time,seconds_elapsed,z,y,x
1772408503158427600,0.043427734375,0.1443749964237213,-0.14602500200271606,0.2194499969482422
1772408503178490000,0.063489990234375,0.08676250278949738,-0.06077500060200691,0.1256749927997589
1772408503198552800,0.083552734375,0.02186249941587448,0.08304999768733978,0.05431250110268593
1772408503218615600,0.103615478515625,0.050599999725818634,0.1714625060558319,0.04895000159740448
1772408503238678300,0.12367822265625,0.030387500301003456,0.13103750348091125,0.01924999989569187
1772408503258740700,0.14374072265625,-0.020762499421834946,0.07026249915361404,-0.015949999913573265
1772408503278803200,0.16380322265625,-0.12622499465942383,0.08195000141859055,0.002199999988079071
1772408503298866000,0.183865966796875,-0.10491249710321426,0.12031249701976776,0.1214125007390976
1772408503318928400,0.203928466796875,-0.07933750003576279,0.18645000457763672,0.19607499241828918
1772408503338990800,0.223990966796875,-0.10807500034570694,0.2780250012874603,0.19071249663829803
1772408503359053600,0.244053466796875,-0.0005499999970197678,0.2246749997138977,0.21312500536441803
1772408503379116000,0.264115966796875,0.0494999997317791,0.16609999537467957,0.21518750488758087
1772408503399178500,0.284178466796875,0.045237500220537186,0.3343999981880188,0.1970375031232834
1772408503419241200,0.3042412109375,0.23594999313354492,0.5955125093460083,0.2780250012874603
1772408503439303700,0.3243037109375,0.2572624981403351,0.6061000227928162,0.44206249713897705
1772408503459366400,0.344366455078125,0.14217500388622284,0.19497500360012054,0.4655750095844269
1772408503479428900,0.364428955078125,-0.04633750021457672,0.12773749232292175,0.552887499332428
1772408503499491600,0.38449169921875,-0.37757501006126404,0.6689375042915344,0.699874997138977
1772408503519553800,0.4045537109375,-0.6140750050544739,1.0247875452041626,0.47189998626708984
1772408503539616300,0.4246162109375,-0.8431500196456909,0.8212875127792358,0.005362499970942736
1772408503559679000,0.444678955078125,-0.935824990272522,0.508062481880188,-0.3601124882698059
1772408503579741400,0.464741455078125,-0.7334250211715698,0.5827249884605408,-0.295074999332428
1772408503599804000,0.484803955078125,-0.28600001335144043,0.6967124938964844,0.1555124968290329
1772408503619866600,0.50486669921875,0.23485000431537628,0.4474250078201294,0.644462525844574
1772408503639929000,0.52492919921875,0.4692874848842621,0.11082500219345093,0.8160625100135803
1772408503659991600,0.544991455078125,0.47987499833106995,-0.38142499327659607,0.6231499910354614
1772408503680054000,0.565053955078125,0.4010874927043915,-0.8170250058174133,0.25671249628067017
1772408503700116500,0.585116455078125,0.2433750033378601,-0.7467625141143799,0.045787498354911804
1772408503720179200,0.60517919921875,0.11137499660253525,-0.3558500111103058,0.1555124968290329
1772408503740241700,0.62524169921875,0.004812499973922968,-0.1545500010251999,0.33563750982284546
1772408503760304000,0.64530419921875,0.010174999944865704,-0.1545500010251999,0.5230500102043152
1772408503780366600,0.66536669921875,0.07617499679327011,-0.317487508058548,0.6679750084877014
1772408503800429000,0.685428955078125,0.04427500069141388,-0.2694999873638153,0.6945124864578247
1772408503820491800,0.70549169921875,0.2083124965429306,0.1555124968290329,0.8490625023841858
1772408503840554200,0.72555419921875,0.18906250596046448,0.38458749651908875,0.949162483215332
1772408503860616700,0.74561669921875,0.023924998939037323,0.20666250586509705,0.8436999917030334
1772408503880679200,0.76567919921875,0.2583625018596649,0.295074999332428,0.6604124903678894
1772408503900741600,0.78574169921875,0.24667499959468842,0.7265499830245972,0.5006374716758728
1772408503920804000,0.80580419921875,-0.2774749994277954,0.911899983882904,0.32065001130104065
1772408503940866600,0.825866455078125,-0.7441499829292297,0.8639125227928162,0.41222500801086426
1772408503960929000,0.845928955078125,-0.7334250211715698,0.6135249733924866,0.608299970626831
1772408503980991700,0.86599169921875,-0.7132124900817871,0.17998750507831573,0.45801249146461487
1772408504001054200,0.88605419921875,-0.5970249772071838,-0.21518750488758087,0.07672499865293503
1772408504021116700,0.90611669921875,-0.37014999985694885,-0.06283749639987946,-0.10009999573230743
1772408504041179100,0.92617919921875,-0.04097500070929527,0.5784624814987183,0.02447500079870224
1772408504061241600,0.94624169921875,0.3436124920845032,0.7701374888420105,0.3951750099658966
1772408504081304000,0.966303955078125,0.33178749680519104,0.3653374910354614,0.5560500025749207
1772408504101366500,0.986366455078125,0.16775000095367432,-0.13846249878406525,0.33137500286102295
1772408504121429000,1.006428955078125,0.05706249922513962,-0.3110249936580658,-0.05857500061392784
1772408504141491500,1.026491455078125,-0.10064999759197235,-0.3675374984741211,-0.4867500066757202
1772408504161554200,1.04655419921875,-0.15386250615119934,-0.3856875002384186,-0.6637125015258789
1772408504181616600,1.06661669921875,-0.14327499270439148,-0.3984749913215637,-0.5720000267028809
1772408504201678800,1.086678955078125,-0.10807500034570694,-0.41442498564720154,-0.27912500500679016
1772408504221741300,1.1067412109375,0.022962499409914017,-0.28558748960494995,0.12787500023841858
1772408504241804000,1.126803955078125,0.15289999544620514,-0.1023000031709671,0.4240500032901764
1772408504261866500,1.146866455078125,0.16032500565052032,0.05115000158548355,0.5816249847412109
1772408504281929000,1.166928955078125,0.13158750534057617,0.20776249468326569,0.7148625254631042
1772408504301991200,1.1869912109375,0.006874999962747097,0.5059999823570251,0.7126625180244446
1772408504322054000,1.207053955078125,-0.015399999916553497,0.6177874803543091,0.26840001344680786
1772408504342116400,1.227116455078125,0.05706249922513962,0.507099986076355,-0.33976250886917114
1772408504362178800,1.2471787109375,-0.16032500565052032,0.5805249810218811,-0.5645750164985657
1772408504382241300,1.2672412109375,-0.49156248569488525,0.5836874842643738,-0.5836874842643738
1772408504402303500,1.287303466796875,-0.7717875242233276,-0.0340999998152256,-0.9437999725341797
1772408504422366000,1.307365966796875,-0.7015249729156494,-0.5411999821662903,-1.207937479019165
1772408504442428400,1.327428466796875,-0.14863750338554382,-0.3526875078678131,-0.9502624869346619
1772408504462491000,1.347490966796875,0.2433750033378601,0.05967500060796738,-0.43037500977516174
1772408504482553300,1.36755322265625,0.26688748598098755,0.5176874995231628,0.06929999589920044
1772408504502615800,1.38761572265625,0.16775000095367432,0.8617125153541565,0.4090625047683716
1772408504522678000,1.407677978515625,0.21037499606609344,0.791450023651123,0.37290000915527344
1772408504542740700,1.42774072265625,0.29768750071525574,0.3269749879837036,-0.03519999980926514
1772408504562803000,1.447802978515625,0.38513749837875366,-0.07562500238418579,-0.48358750343322754
1772408504582865400,1.467865478515625,0.41167500615119934,-0.3782624900341034,-0.7712374925613403
1772408504602927900,1.487927978515625,0.31693750619888306,-0.6807624697685242,-0.8351749777793884
1772408504622990300,1.507990234375,0.2391124963760376,-0.7904874682426453,-0.6168249845504761
1772408504643052800,1.528052734375,0.18369999527931213,-0.9437999725341797,-0.2919124960899353
1772408504663115000,1.548114990234375,0.08470000326633453,-0.9054374694824219,-0.10436250269412994
1772408504683177500,1.568177490234375,0.10711249709129333,-0.4846875071525574,0.05224999785423279
1772408504703240000,1.588239990234375,0.08043749630451202,-0.06613750010728836,0.2237125039100647
1772408504723302400,1.608302490234375,-0.1060125008225441,0.22151249647140503,0.3601124882698059
1772408504743364900,1.62836474609375,-0.03891250118613243,0.7243499755859375,0.6051374673843384
1772408504763427300,1.64842724609375,0.13695000112056732,0.9352750182151794,0.6093999743461609
1772408504783489500,1.668489501953125,0.07617499679327011,0.6518874764442444,0.2194499969482422
1772408504803552000,1.688552001953125,-0.1358499974012375,0.14162500202655792,-0.4059000015258789
1772408504823614200,1.7086142578125,-0.3786749839782715,-0.09377499669790268,-0.7595499753952026
1772408504843676700,1.7286767578125,-0.9219374656677246,-0.05967500060796738,-0.9736375212669373
1772408504863739100,1.7487392578125,-1.3044625520706177,-0.08635000139474869,-1.264449954032898
1772408504883801300,1.76880126953125,-0.870787501335144,0.2961750030517578,-1.263350009918213
1772408504903863800,1.78886376953125,-0.028187500312924385,0.49431249499320984,-0.9022749662399292
1772408504923926300,1.80892626953125,0.6993250250816345,0.12773749232292175,0.10436250269412994
1772408504943988700,1.82898876953125,1.1158125400543213,-0.3451249897480011,1.2495999336242676
1772408504964051000,1.849051025390625,1.1999624967575073,-0.40053749084472656,1.7652249336242676
1772408504984113400,1.869113525390625,1.1626999378204346,0.05211250111460686,1.7022500038146973
1772408505004176000,1.88917578125,1.035925030708313,0.4133250117301941,1.241075038909912
1772408505024238300,1.90923828125,0.7249000072479248,0.31638750433921814,0.5411999821662903
1772408505044300500,1.929300537109375,0.2956250011920929,-0.12044999748468399,-0.08951249718666077
1772408505064363000,1.949363037109375,-0.04207500070333481,-0.42721250653266907,-0.38981249928474426
1772408505084425200,1.96942529296875,-0.06875000149011612,-0.6008750200271606,-0.45801249146461487
1772408505104487700,1.98948779296875,0.030387500301003456,-0.7532249689102173,-0.2172500044107437
1772408505124550100,2.009550048828125,0.03355000168085098,-0.764912486076355,0.272662490606308
1772408505144612400,2.0296123046875,0.005912499967962503,-0.4090625047683716,0.6061000227928162
1772408505164674600,2.049674560546875,0.013337500393390656,-0.009624999947845936,0.7030375003814697
1772408505184737000,2.069737060546875,0.013337500393390656,0.38128748536109924,0.8394374847412109
1772408505204799500,2.089799560546875,0.13901250064373016,0.6902499794960022,0.9235875010490417
1772408505224861700,2.10986181640625,0.38940000534057617,0.2502500116825104,0.6743000149726868
1772408505244924200,2.129924072265625,-0.045237500220537186,-0.4357374906539917,0.21518750488758087
1772408505264986600,2.149986572265625,-0.5842375159263611,-0.9832624793052673,-0.6806250214576721
1772408505285048800,2.170048828125,-0.48413750529289246,-0.7968124747276306,-1.1739749908447266
1772408505305111000,2.190111083984375,-0.20611250400543213,0.13956250250339508,-0.803137481212616
1772408505325173200,2.21017333984375,-0.12622499465942383,0.6125624775886536,-0.09583749622106552
1772408505345236000,2.230236083984375,0.11137499660253525,0.31322500109672546,0.17366249859333038
1772408505365298200,2.250298095703125,0.7024874687194824,-0.08951249718666077,0.6392375230789185
1772408505385360400,2.2703603515625,1.1222749948501587,-0.271699994802475,1.2761374711990356
1772408505405422800,2.2904228515625,1.2905750274658203,-0.1597750037908554,1.464787483215332
1772408505425485000,2.310485107421875,1.3257750272750854,0.055412501096725464,1.1515624523162842
1772408505445547500,2.330547607421875,1.026437520980835,-0.023512499406933784,0.644462525844574
1772408505465609700,2.350609619140625,0.5310249924659729,-0.29727500677108765,-0.007424999959766865
1772408505485672200,2.370672119140625,-0.07933750003576279,-0.14602500200271606,-0.6732000112533569
1772408505505734100,2.390734130859375,-0.46818751096725464,0.23856249451637268,-1.1121000051498413
1772408505525796600,2.410796630859375,-0.5927624702453613,0.36959999799728394,-1.1302499771118164
1772408505545859000,2.430859130859375,-0.6333249807357788,0.33233749866485596,-0.7478625178337097
1772408505565921300,2.45092138671875,-0.5171374678611755,0.11508750170469284,-0.3195500075817108
1772408505585983500,2.4709833984375,-0.428725004196167,-0.1438249945640564,-0.027637500315904617
1772408505606046000,2.4910458984375,-0.32862499356269836,-0.19277499616146088,0.15015000104904175
1772408505626108200,2.511108154296875,-0.170912504196167,-0.056512501090765,0.28338751196861267
1772408505646170600,2.531170654296875,-0.16885000467300415,0.13529999554157257,0.37070000171661377
1772408505666232800,2.55123291015625,-0.24873749911785126,0.3792249858379364,0.3856875002384186
1772408505686295000,2.571294921875,-0.21463750302791595,0.7339749932289124,0.317487508058548
1772408505706357200,2.591357177734375,-0.013337500393390656,0.840399980545044,0.1896124929189682
1772408505726419700,2.611419677734375,0.23704999685287476,0.045787498354911804,0.08841250091791153
1772408505746482000,2.63148193359375,-0.10284999758005142,-0.9448999762535095,-0.07342500239610672
1772408505766544400,2.65154443359375,-0.557699978351593,-1.4423749446868896,-0.5773624777793884
1772408505786606600,2.671606689453125,-0.9326624870300293,-1.006637454032898,-0.8064374923706055
1772408505806668800,2.691668701171875,-1.2351624965667725,0.2620750069618225,-0.6754000186920166
1772408505826731300,2.711731201171875,-1.1615999937057495,1.4433374404907227,-0.4207499921321869
1772408505846793500,2.73179345703125,-0.5043500065803528,1.622362494468689,-0.19923749566078186
1772408505866856000,2.75185595703125,0.3297249972820282,0.9171249866485596,0.3984749913215637
1772408505886918000,2.77191796875,0.9858750104904175,0.08524999767541885,1.124887466430664
1772408505906980000,2.79197998046875,1.259637475013733,-0.38032498955726624,1.5180000066757202
1772408505927042600,2.81204248046875,1.1957000494003296,-0.4581499993801117,1.4616249799728394
1772408505947104800,2.832104736328125,1.03496253490448,-0.1480875015258789,1.1547249555587769
1772408505967167000,2.8521669921875,0.8377875089645386,0.0170499999076128,0.847962498664856
1772408505987229400,2.8722294921875,0.4138749837875366,-0.01924999989569187,0.4889499843120575
1772408506007291600,2.892291748046875,-0.10491249710321426,0.025575000792741776,-0.023375000804662704
1772408506027353900,2.912353759765625,-0.49582499265670776,0.018012499436736107,-0.4090625047683716
1772408506047416000,2.932416015625,-0.7899374961853027,-0.03726249933242798,-0.5592125058174133
1772408506067478500,2.952478515625,-0.8474124670028687,0.1331000030040741,-0.49953749775886536
1772408506087540500,2.97254052734375,-0.6290624737739563,0.3834874927997589,-0.20776249468326569
1772408506107603000,2.99260302734375,-0.40424999594688416,0.19593749940395355,0.15867500007152557
1772408506127665200,3.0126650390625,-0.3605250120162964,-0.002199999988079071,0.43779999017715454
1772408506147727400,3.032727294921875,-0.30195000767707825,0.07342500239610672,0.48262500762939453
1772408506167789800,3.052789794921875,-0.21889999508857727,0.2780250012874603,0.3866499960422516
1772408506187851800,3.072851806640625,-0.016499999910593033,0.6413000226020813,0.3749625086784363
1772408506207914000,3.0929140625,0.21683749556541443,0.7030375003814697,0.3302749991416931
1772408506227976200,3.11297607421875,0.04633750021457672,-0.025575000792741776,-0.021312499418854713
1772408506248038400,3.133038330078125,-0.24021250009536743,-0.8799999952316284,-0.6305750012397766
1772408506268100900,3.153100830078125,0.25093749165534973,-1.2251249551773071,-0.8522250056266785
1772408506288163000,3.1731630859375,0.5491750240325928,-0.7702749967575073,0.056512501090765
1772408506308225300,3.193225341796875,0.04427500069141388,0.5560500025749207,0.45374998450279236
1772408506328287500,3.21328759765625,-0.4405499994754791,1.382699966430664,0.15234999358654022
1772408506348349400,3.233349365234375,-0.05486249923706055,1.3144999742507935,0.3536500036716461
1772408506368411600,3.25341162109375,0.6982250213623047,0.8500249981880188,0.9682750105857849
1772408506388474000,3.27347412109375,1.220312476158142,0.5187875032424927,1.3496999740600586
1772408506408536300,3.293536376953125,1.3641375303268433,0.25987499952316284,1.3624874353408813
1772408506428598500,3.3135986328125,1.1723250150680542,-0.18012499809265137,1.023687481880188
1772408506448660500,3.333660400390625,0.612012505531311,-0.20239999890327454,0.3899500072002411
1772408506468723000,3.353722900390625,-0.04413750022649765,-0.08208750188350677,-0.4357374906539917
1772408506488785200,3.37378515625,-0.5799750089645386,-0.16087499260902405,-1.1749374866485596
1772408506508847400,3.393847412109375,-0.915612518787384,-0.12787500023841858,-1.4902249574661255
1772408506528909600,3.41390966796875,-0.9389874935150146,0.019112499430775642,-1.264449954032898
1772408506548971800,3.4339716796875,-0.6972625255584717,0.06916250288486481,-0.6466624736785889
1772408506569034000,3.454033935546875,-0.46076250076293945,-0.0681999996304512,0.11192499846220016
1772408506589096200,3.47409619140625,-0.41497498750686646,-0.19071249663829803,0.6296125054359436
1772408506609158100,3.494158203125,-0.3988874852657318,-0.12677499651908875,0.5549499988555908
1772408506629220400,3.514220458984375,-0.38830000162124634,0.04152499884366989,0.25671249628067017
1772408506649282600,3.534282470703125,-0.37661248445510864,0.009624999947845936,0.15125000476837158
1772408506669344800,3.5543447265625,-0.369049996137619,0.1788875013589859,0.04688749834895134
1772408506689406700,3.57440673828125,-0.32436248660087585,0.515625,-0.11082500219345093
1772408506709469000,3.594468994140625,-0.3957250118255615,0.46117499470710754,-0.18314999341964722
1772408506729531400,3.614531494140625,-0.5747500061988831,-0.1247124969959259,-0.7147250175476074
1772408506749593300,3.63459326171875,-0.7217375040054321,-0.5465624928474426,-1.364549994468689
1772408506769655600,3.654655517578125,-0.6972625255584717,-0.6477624773979187,-1.1121000051498413
1772408506789717800,3.6747177734375,-0.5736500024795532,-0.1545500010251999,-0.15771250426769257
1772408506809780000,3.694780029296875,-0.6609625220298767,0.41538751125335693,0.3686375021934509
1772408506829842000,3.714842041015625,-0.7067499756813049,0.644462525844574,0.3686375021934509
1772408506849904400,3.734904296875,-0.21889999508857727,0.2780250012874603,0.31322500109672546
1772408506869966300,3.75496630859375,0.5460125207901001,-0.1597750037908554,0.6168249845504761
1772408506890028500,3.775028564453125,0.9667624831199646,-0.1896124929189682,0.8542875051498413
1772408506910090500,3.795090576171875,0.7015249729156494,-0.12361250072717667,0.8628125190734863
1772408506930152700,3.815152587890625,0.15606249868869781,-0.06187500059604645,0.607200026512146
1772408506950215000,3.83521484375,-0.09955000132322311,-0.045787498354911804,0.17366249859333038
1772408506970276900,3.85527685546875,-0.3232625126838684,-0.20350000262260437,-0.3973749876022339
1772408506990339000,3.875339111328125,-0.45003750920295715,-0.2609750032424927,-0.8223875164985657
1772408507010401300,3.8954013671875,-0.3979249894618988,-0.23017500340938568,-0.8787624835968018
1772408507030463500,3.91546337890625,-0.2465374916791916,-0.28971248865127563,-0.6945124864578247
1772408507050525700,3.935525634765625,-0.05596249923110008,-0.3260124921798706,-0.26413750648498535
1772408507070587600,3.955587646484375,0.08676250278949738,-0.42294999957084656,0.20776249468326569
1772408507090649900,3.97564990234375,0.06764999777078629,-0.4496249854564667,0.552887499332428
1772408507110712000,3.995712158203125,-0.011137500405311584,-0.2120250016450882,0.699874997138977
1772408507130774000,4.01577392578125,-0.0494999997317791,0.07452499866485596,0.6274124979972839
1772408507150836000,4.0358359375,-0.26688748598098755,0.24076250195503235,0.39311251044273376
1772408507170898200,4.055898193359375,-0.520437479019165,0.48042500019073486,0.2162874937057495
1772408507190960400,4.07596044921875,-0.4702500104904175,0.7391999959945679,0.25561249256134033
1772408507211022600,4.096022705078125,-0.4468750059604645,0.6476249694824219,0.3152875006198883
1772408507231084500,4.11608447265625,-0.45223748683929443,0.35475000739097595,-0.11288750171661377
1772408507251146800,4.136146728515625,-0.24021250009536743,0.16403749585151672,-0.47616249322891235
1772408507271208700,4.156208740234375,-0.5960624814033508,-0.37290000915527344,-0.49953749775886536
1772408507291271000,4.17627099609375,-0.6748499870300293,-0.5603125095367432,-0.5464249849319458
1772408507311332900,4.196332763671875,-0.34347498416900635,-0.25244998931884766,-0.42294999957084656
1772408507331395000,4.21639501953125,-0.18273749947547913,-0.011687500402331352,-0.16609999537467957
1772408507351457300,4.236457275390625,0.04097500070929527,0.23430000245571136,-0.1373624950647354
1772408507371519200,4.256519287109375,0.5374875068664551,0.21834999322891235,0.14066250622272491
1772408507391581400,4.27658154296875,0.8399875164031982,0.08195000141859055,0.3909125030040741
1772408507411643400,4.296643310546875,0.6642624735832214,-0.07246249914169312,0.3984749913215637
1772408507431705600,4.31670556640625,0.15606249868869781,-0.21312500536441803,0.18851250410079956
1772408507451767800,4.336767822265625,-0.1592250019311905,-0.17476250231266022,-0.17682500183582306
1772408507471829500,4.35682958984375,-0.22206249833106995,-0.14066250622272491,-0.524150013923645
1772408507491891700,4.3768916015625,-0.22962500154972076,-0.16733749210834503,-0.7979124784469604
1772408507511954000,4.396953857421875,-0.16032500565052032,-0.17902499437332153,-0.8351749777793884
1772408507532015900,4.417015869140625,-0.043175000697374344,-0.44632500410079956,-0.6594499945640564
1772408507552077800,4.437077880859375,0.1358499974012375,-0.5858874917030334,-0.30992498993873596
1772408507572140000,4.45714013671875,0.3265624940395355,-0.49431249499320984,0.18328750133514404
1772408507592202000,4.477201904296875,0.3638249933719635,-0.41126251220703125,0.5656750202178955
1772408507612264000,4.497263916015625,0.2424124926328659,-0.2055625021457672,0.7436000108718872
1772408507632326100,4.517326171875,0.13791249692440033,0.0798875018954277,0.72861248254776
1772408507652388000,4.53738818359375,0.01966249942779541,0.19923749566078186,0.5134249925613403
1772408507672450000,4.557449951171875,-0.09748750180006027,0.20350000262260437,0.26743748784065247
1772408507692512300,4.57751220703125,-0.2433750033378601,0.1447875052690506,0.1779250055551529
1772408507712574200,4.59757421875,-0.26785001158714294,0.27582499384880066,0.23223750293254852
1772408507732636200,4.61763623046875,0.030387500301003456,0.4398624897003174,0.1480875015258789
1772408507752698400,4.637698486328125,0.3414124846458435,-0.07039999961853027,-0.3684999942779541
1772408507772760600,4.657760498046875,0.1284250020980835,-0.9673125147819519,-0.5858874917030334
1772408507792822500,4.677822509765625,-0.05692499876022339,-1.3476375341415405,-0.6711375117301941
1772408507812884500,4.697884521484375,-0.3180375099182129,-0.9437999725341797,-0.6657750010490417
1772408507832946400,4.717946533203125,-0.6226000189781189,-0.3749625086784363,-0.598675012588501
1772408507853008600,4.738008544921875,-0.5543999671936035,-0.06503749638795853,-0.7499250173568726
1772408507873070600,4.758070556640625,-0.10807500034570694,0.3334375023841858,-0.8234875202178955
1772408507893132500,4.778132568359375,0.5704874992370605,0.27156248688697815,-0.2886124849319458
1772408507913194500,4.798194580078125,1.0146124362945557,-0.045787498354911804,0.4665375053882599
1772408507933256400,4.81825634765625,1.0551749467849731,-0.028737500309944153,1.032212495803833
1772408507953318700,4.838318603515625,0.9209749698638916,0.20776249468326569,1.02162504196167
1772408507973380900,4.858380859375,0.7899374961853027,0.4772624969482422,0.5773624777793884
1772408507993442600,4.878442626953125,0.5725499987602234,0.5017374753952026,0.19181250035762787
1772408508013504800,4.8985048828125,0.026124998927116394,0.07562500238418579,-0.33550000190734863
1772408508033566700,4.918566650390625,-0.45746248960494995,-0.22481249272823334,-1.0034749507904053
1772408508053628700,4.938628662109375,-0.6140750050544739,-0.19813749194145203,-1.3315500020980835
1772408508073690600,4.958690673828125,-0.4255625009536743,-0.0798875018954277,-1.1035749912261963
1772408508093752600,4.978752685546875,-0.06338749825954437,-0.11508750170469284,-0.4846875071525574
1772408508113814500,4.998814453125,0.10807500034570694,-0.05967500060796738,0.22591249644756317
1772408508133876700,5.018876708984375,0.0943249985575676,0.15015000104904175,0.5827249884605408
1772408508153938700,5.038938720703125,-0.10175000131130219,0.25987499952316284,0.6424000263214111
1772408508174001000,5.0590009765625,-0.3190000057220459,0.4366999864578247,0.5880874991416931
1772408508194062800,5.079062744140625,-0.4138749837875366,0.6061000227928162,0.3792249858379364
1772408508214124800,5.099124755859375,-0.4064500033855438,0.6924499869346619,0.23333749175071716
1772408508234186800,5.119186767578125,-0.2092749923467636,0.7754999995231628,0.40369999408721924
1772408508254249000,5.1392490234375,0.22426250576972961,0.8255500197410583,0.6561499834060669
1772408508274311000,5.159310791015625,0.5554999709129333,0.44206249713897705,0.552887499332428
1772408508294372900,5.179372802734375,0.7526749968528748,-0.19071249663829803,-0.08195000141859055
1772408508314435000,5.19943505859375,0.40741249918937683,-0.7851250171661377,-0.5879499912261963
1772408508334496800,5.219496826171875,-0.34251248836517334,-1.0205249786376953,-0.9000750184059143
1772408508354558700,5.239558837890625,-0.9347249865531921,-0.6765000224113464,-1.0268499851226807
1772408508374621000,5.259620849609375,-1.102062463760376,0.3258749842643738,-0.7882875204086304
1772408508394683000,5.279682861328125,-0.8207374811172485,1.3624874353408813,-0.46543750166893005
1772408508414744800,5.299744873046875,-0.06655000150203705,1.656462550163269,0.002199999988079071
1772408508434806800,5.319806884765625,0.8623999953269958,0.561412513256073,0.8203250169754028
1772408508454869000,5.339868896484375,1.386412501335144,-0.6850249767303467,1.188825011253357
1772408508474930700,5.3599306640625,1.4844499826431274,-0.9684125185012817,0.8533250093460083
1772408508494992600,5.37999267578125,1.203262448310852,-0.589187502861023,0.2546499967575073
1772408508515054800,5.400054931640625,0.6822749972343445,-0.03946249932050705,-0.06599999964237213
1772408508535116500,5.420116455078125,0.16885000467300415,0.1714625060558319,-0.1970375031232834
1772408508555178500,5.440178466796875,-0.17627499997615814,0.18645000457763672,-0.3377000093460083
1772408508575240400,5.460240478515625,-0.29878750443458557,0.12347500026226044,-0.41964998841285706
1772408508595302400,5.480302490234375,-0.1284250020980835,-0.22907499969005585,-0.4867500066757202
1772408508615364600,5.500364501953125,0.02928750030696392,-0.43463748693466187,-0.4739624857902527
1772408508635426600,5.520426513671875,0.19126249849796295,-0.45278748869895935,-0.2737624943256378
1772408508655488500,5.540488525390625,0.345674991607666,-0.6733375191688538,0.05321250110864639
1772408508675550500,5.560550537109375,0.33508750796318054,-0.7115625143051147,0.31322500109672546
1772408508695612400,5.5806123046875,0.23058749735355377,-0.41868749260902405,0.41126251220703125
1772408508715674400,5.60067431640625,0.14547500014305115,-0.6733375191688538,0.14272500574588776
1772408508735736300,5.620736328125,-0.06875000149011612,-0.7552874684333801,-0.4772624969482422
1772408508755798000,5.640798095703125,-0.2040500044822693,-0.4442625045776367,-0.7360374927520752
1772408508775860200,5.660860107421875,0.08896250277757645,-0.41126251220703125,-0.774399995803833
1772408508795922000,5.680921875,0.4372499883174896,-0.681862473487854,-0.9246875047683716
1772408508815983900,5.70098388671875,0.3499374985694885,-1.188825011253357,-0.7968124747276306
1772408508836045800,5.7210458984375,0.1060125008225441,-1.6427124738693237,-1.1504625082015991
1772408508856107800,5.741107666015625,-0.47987499833106995,-1.6117750406265259,-2.160399913787842
1772408508876169700,5.761169677734375,-1.3832499980926514,-0.3951750099658966,-2.6322999000549316
1772408508896232000,5.78123193359375,-1.4748250246047974,1.18236243724823,-1.797124981880188
1772408508916293600,5.801293701171875,-0.5523374676704407,1.5445375442504883,-0.49004998803138733
1772408508936355600,5.82135546875,0.47561249136924744,0.6593124866485596,0.20666250586509705
1772408508956417300,5.841417236328125,1.3437875509262085,-0.6370375156402588,0.7595499753952026
1772408508976479500,5.8614794921875,1.6666375398635864,-1.315600037574768,1.2336499691009521
1772408508996541400,5.88154150390625,1.376924991607666,-0.8544250130653381,1.3017125129699707
1772408509016603100,5.90160302734375,0.731362521648407,0.27059999108314514,1.049262523651123
1772408509036665000,5.9216650390625,0.10381250083446503,1.140837550163269,0.6179249882698059
1772408509056727300,5.941727294921875,-0.2796750068664551,1.4444375038146973,0.15441249310970306
1772408509076789200,5.961789306640625,-0.41813749074935913,1.1845624446868896,-0.15015000104904175
1772408509096851000,5.981850830078125,-0.428725004196167,0.5282750129699707,-0.1938749998807907
1772408509116913000,6.001912841796875,-0.3297249972820282,-0.04262499883770943,-0.1331000030040741
1772408509136974800,6.021974853515625,-0.11027500033378601,-0.10656250268220901,-0.0798875018954277
1772408509157036800,6.042036865234375,0.020762499421834946,0.17682500183582306,0.18645000457763672
1772408509177098500,6.062098388671875,0.045237500220537186,0.3334375023841858,0.5486249923706055
1772408509197160400,6.082160400390625,0.09638749808073044,0.23856249451637268,0.7606499791145325
1772408509217222400,6.102222412109375,0.09322500228881836,0.009624999947845936,0.6583499908447266
1772408509237284400,6.122284423828125,0.009074999950826168,0.005362499970942736,0.4240500032901764
1772408509257346300,6.14234619140625,-0.013337500393390656,-0.18012499809265137,0.1214125007390976
1772408509277408000,6.162407958984375,-0.13048750162124634,-0.3536500036716461,-0.040424998849630356
1772408509297470000,6.182469970703125,-0.20184999704360962,-0.234437495470047,0.005362499970942736
1772408509317532000,6.202531982421875,-0.08249999582767487,0.11921250075101852,0.22687499225139618
1772408509337593900,6.22259375,0.19552500545978546,0.3067624866962433,0.26633748412132263
1772408509357655800,6.24265576171875,0.33934998512268066,-0.009624999947845936,-0.11288750171661377
1772408509377717800,6.2627177734375,-0.147537499666214,-0.33880001306533813,-0.2737624943256378
1772408509397779700,6.28277978515625,-0.5810750126838684,-0.07246249914169312,0.047987498342990875
1772408509417841400,6.30284130859375,-0.6876375079154968,0.820187509059906,0.3451249897480011
1772408509437903400,6.3229033203125,-0.7365875244140625,1.0716749429702759,0.3632749915122986
1772408509457965000,6.342965087890625,-0.4702500104904175,0.9171249866485596,0.4633750021457672
1772408509478027300,6.36302734375,0.24447499215602875,0.4729999899864197,0.5295125246047974
1772408509498089000,6.3830888671875,0.7217375040054321,-0.33233749866485596,0.6370375156402588
1772408509518151000,6.40315087890625,0.7132124900817871,-0.74566251039505,0.8490625023841858
1772408509538212900,6.423212890625,0.5960624814033508,-0.44632500410079956,0.8490625023841858
1772408509558274600,6.443274658203125,0.40424999594688416,0.05637500062584877,0.6850249767303467
1772408509578336500,6.46333642578125,0.06338749825954437,0.28971248865127563,0.36217498779296875
1772408509598398500,6.4833984375,-0.34347498416900635,0.2246749997138977,-0.14588749408721924
1772408509618460200,6.503460205078125,-0.6364874839782715,0.07562500238418579,-0.6870874762535095
1772408509638522000,6.523522216796875,-0.6450124979019165,-0.018149999901652336,-0.9767999649047852
1772408509658584000,6.543583984375,-0.359562486410141,0.113987497985363,-0.7232499718666077
1772408509678645800,6.563645751953125,-0.06875000149011612,0.020212499424815178,-0.22907499969005585
1772408509698707700,6.583707763671875,-0.02502499893307686,-0.3825249969959259,0.02667500078678131
1772408509718769400,6.603769287109375,-0.08043749630451202,-0.39627498388290405,0.11715000122785568
1772408509738831400,6.623831298828125,-0.07727500051259995,-0.15771250426769257,0.09583749622106552
1772408509758893000,6.64389306640625,-0.11343749612569809,-0.18645000457763672,0.002199999988079071
1772408509778955300,6.663955322265625,-0.22426250576972961,-0.14272500574588776,-0.113987497985363
1772408509799017000,6.684016845703125,-0.41923749446868896,0.0031624999828636646,-0.1597750037908554
1772408509819079000,6.704078857421875,-0.6470749974250793,0.13956250250339508,0.03726249933242798
1772408509839140600,6.724140625,-0.6055499911308289,0.4548499882221222,0.1821874976158142
1772408509859202600,6.74420263671875,-0.41923749446868896,0.6945124864578247,0.08841250091791153
1772408509879264500,6.764264404296875,-0.420199990272522,0.2737624943256378,-0.1023000031709671
1772408509899326200,6.784326171875,-0.05169999971985817,-0.0681999996304512,-0.1363999992609024
1772408509919388000,6.804387939453125,0.5332249999046326,-0.24076250195503235,0.44536250829696655
1772408509939450000,6.8244501953125,0.46076250076293945,-0.44632500410079956,1.1217249631881714
1772408509959511800,6.84451171875,0.09102500230073929,-0.6583499908447266,0.4431625008583069
1772408509979573800,6.86457373046875,-0.5310249924659729,-0.6051374673843384,-0.4729999899864197
1772408509999635200,6.88463525390625,-0.6344249844551086,0.3386625051498413,-0.8362749814987183
1772408510019697200,6.904697265625,0.045237500220537186,1.0918874740600586,-0.15867500007152557
1772408510039758800,6.9247587890625,0.44481250643730164,0.8798624873161316,0.6168249845504761
1772408510059820800,6.94482080078125,0.427762508392334,0.5816249847412109,0.7871875166893005
1772408510079882500,6.964882568359375,0.37441250681877136,0.6646749973297119,0.6402000188827515
1772408510099944400,6.9849443359375,0.23278750479221344,0.5560500025749207,0.3643749952316284
1772408510120006400,7.00500634765625,-0.06338749825954437,0.30992498993873596,-0.08841250091791153
1772408510140068000,7.025068115234375,-0.30621248483657837,0.20239999890327454,-0.6976749897003174
1772408510160130000,7.045130126953125,-0.427762508392334,0.07768750190734863,-1.0769000053405762
1772408510180191700,7.065191650390625,-0.3371500074863434,0.038362499326467514,-1.023687481880188
1772408510200253700,7.085253662109375,-0.04633750021457672,0.05211250111460686,-0.5475249886512756
1772408510220315400,7.1053154296875,0.07081250101327896,-0.24186250567436218,0.032999999821186066
1772408510240377300,7.12537744140625,0.0494999997317791,-0.3377000093460083,0.26633748412132263
1772408510260439000,7.14543896484375,0.05596249923110008,-0.05431250110268593,0.3302749991416931
1772408510280500700,7.165500732421875,0.04207500070333481,-0.17902499437332153,0.3515875041484833
1772408510300562700,7.185562744140625,0.07933750003576279,-0.6434999704360962,0.4750624895095825
1772408510320624400,7.205624267578125,0.23278750479221344,-0.7882875204086304,0.5838249921798706
1772408510340686300,7.225686279296875,0.2924624979496002,-0.8777999877929688,0.5369374752044678
1772408510360748000,7.245748046875,0.15399999916553497,-0.985462486743927,0.3834874927997589
1772408510380810000,7.26581005859375,-0.1518000066280365,-0.8703749775886536,0.3899500072002411
1772408510400871700,7.28587158203125,-0.29768750071525574,-0.43779999017715454,0.4314749836921692
1772408510420933400,7.305933349609375,0.035750001668930054,0.055412501096725464,0.38142499327659607
1772408510440995300,7.325995361328125,0.38830000162124634,-0.478362500667572,0.057475000619888306
1772408510461057000,7.34605712890625,0.43834999203681946,-1.2581249475479126,0.5315750241279602
1772408510481119000,7.366118896484375,0.2381500005722046,-0.7382375001907349,1.4722124338150024
1772408510501180400,7.386180419921875,-0.428725004196167,-0.1256749927997589,0.7180249691009521
1772408510521242400,7.406242431640625,-0.9081875085830688,-0.46447500586509705,-0.3642374873161316
1772408510541304300,7.42630419921875,-0.862262487411499,-0.47946250438690186,-0.5347374677658081
1772408510561366000,7.446365966796875,0.03355000168085098,0,-0.09473749995231628
1772408510581427700,7.466427734375,0.427762508392334,-0.06077500060200691,0.09913749992847443
1772408510601489400,7.486489501953125,0.31267499923706055,-0.38885000348091125,0.05115000158548355
1772408510621551400,7.50655126953125,0.14643749594688416,-0.05115000158548355,-0.009624999947845936
1772408510641613000,7.526613037109375,-0.09638749808073044,0.47189998626708984,-0.21518750488758087
1772408510661675000,7.546675048828125,-0.3104749917984009,0.5421624779701233,-0.5284125208854675
1772408510681736400,7.566736328125,-0.4883999824523926,0.10862500220537186,-1.041837453842163
1772408510701798400,7.58679833984375,-0.5512375235557556,-0.41552498936653137,-1.5723124742507935
1772408510721860000,7.606860107421875,-0.4489375054836273,-0.5295125246047974,-1.6245625019073486
1772408510741922000,7.626922119140625,-0.2433750033378601,-0.5582500100135803,-1.188825011253357
1772408510761983700,7.646983642578125,-0.18479999899864197,-0.45058751106262207,-0.41538751125335693
1772408510782045400,7.66704541015625,-0.10381250083446503,-0.2120250016450882,0.3601124882698059
1772408510802107100,7.687107177734375,-0.22316250205039978,-0.23223750293254852,0.7382375001907349
1772408510822169000,7.707169189453125,-0.5150749683380127,-0.1480875015258789,0.6264500021934509
1772408510842230800,7.727230712890625,-0.6353874802589417,0.25987499952316284,0.2003374993801117
1772408510862292500,7.74729248046875,-0.7973625063896179,0.33550000190734863,-0.3590124845504761
1772408510882354400,7.7673544921875,-0.8399875164031982,0.35571250319480896,-0.7754999995231628
1772408510902416000,7.787415771484375,-0.6609625220298767,0.5432624816894531,-0.7786625027656555
1772408510922477800,7.807477783203125,-0.6589000225067139,0.5592125058174133,-0.41538751125335693
1772408510942539500,7.82753955078125,-0.4745124876499176,0.515625,-0.19497500360012054
1772408510962601200,7.847601318359375,0.2572624981403351,0.29397499561309814,-0.30140000581741333
1772408510982663000,7.867662841796875,0.5171374678611755,-0.19497500360012054,-0.1373624950647354
1772408511002724900,7.887724853515625,0.41167500615119934,-0.7339749932289124,0.2162874937057495
1772408511022786300,7.907786376953125,0.32010000944137573,-0.654087483882904,0.699874997138977
1772408511042848300,7.92784814453125,-0.3371500074863434,-0.6327750086784363,0.3398999869823456
1772408511062910000,7.947909912109375,-0.8303624987602234,-0.23017500340938568,-0.6700375080108643
1772408511082971600,7.9679716796875,-0.19868749380111694,0.9000750184059143,-0.6316750049591064
1772408511103033600,7.98803369140625,0.649275004863739,0.7402999997138977,0.0085249999538064
1772408511123095000,8.008094970703125,0.6939625144004822,-0.0798875018954277,0.5209875106811523
1772408511143157000,8.028156982421875,0.5128750205039978,-0.47519999742507935,0.5017374753952026
1772408511163218700,8.04821875,0.5927624702453613,-0.3291749954223633,0.4240500032901764
1772408511183280000,8.068280029296876,0.5970249772071838,0.04468749836087227,0.41442498564720154
1772408511203342000,8.088342041015625,0.3903625011444092,0.14698749780654907,0.07452499866485596
1772408511223403800,8.10840380859375,-0.03464999794960022,-0.22261250019073486,-0.6103624701499939
1772408511243465500,8.128465576171875,-0.4787749946117401,-0.737137496471405,-1.264449954032898
1772408511263527200,8.148527099609375,-0.5341874957084656,-0.5784624814987183,-1.6084749698638916
1772408511283588900,8.1685888671875,-0.368087500333786,-0.20666250586509705,-1.3784375190734863
1772408511303650800,8.18865087890625,-0.38830000162124634,-0.06710000336170197,-0.4676375091075897
1772408511323712500,8.20871240234375,-0.37014999985694885,0.0798875018954277,0.42721250653266907
1772408511343774000,8.22877392578125,-0.3328875005245209,0.17998750507831573,0.9587875008583069
1772408511363836000,8.2488359375,-0.3573625087738037,0.26633748412132263,0.9332125186920166
1772408511383897300,8.2688974609375,-0.4127750098705292,0.49857500195503235,0.4388999938964844
1772408511403959300,8.288959228515624,-0.40851250290870667,0.561412513256073,-0.012787500396370888
1772408511424020700,8.309020751953126,-0.3328875005245209,0.5293750166893005,-0.03189999982714653
1772408511444082700,8.329082763671876,-0.19442500174045563,0.6498249769210815,0.25891250371932983
1772408511464144100,8.34914404296875,-0.11343749612569809,0.7723374962806702,0.6529874801635742
1772408511484206000,8.3692060546875,0.15399999916553497,0.7445625066757202,0.7862250208854675
1772408511504267500,8.389267578125,0.9762499928474426,0.4409624934196472,0.6136624813079834
1772408511524329500,8.40932958984375,1.103024959564209,0.03726249933242798,0.7862250208854675
1772408511544391000,8.429390869140626,0.23704999685287476,-0.9981124997138977,0.6199874877929688
1772408511564452900,8.449452880859376,-0.17943750321865082,-0.9096999764442444,0.5145249962806702
1772408511584514300,8.469514404296875,0.06228749826550484,0.41222500801086426,0.5134249925613403
1772408511604576000,8.489575927734375,0.5256624817848206,1.2516624927520752,0.17998750507831573
1772408511624637700,8.5096376953125,0.7908999919891357,1.2047749757766724,0.10436250269412994
1772408511644699600,8.52969970703125,0.7984625101089478,0.5634750127792358,0.3143250048160553
1772408511664761000,8.549760986328126,0.5768125057220459,-0.03203750029206276,0.40053749084472656
1772408511684823000,8.569822998046876,0.45223748683929443,0.025575000792741776,0.5219500064849854
1772408511704884500,8.589884521484375,0.19868749380111694,0.303600013256073,0.4133250117301941
1772408511724946400,8.609946533203125,-0.12732499837875366,0.44632500410079956,-0.019112499430775642
1772408511745008000,8.630008056640625,-0.4702500104904175,0.19277499616146088,-0.5571500062942505
1772408511765069800,8.65006982421875,-0.7601000070571899,-0.32284998893737793,-1.1515624523162842
1772408511785131300,8.67013134765625,-0.7441499829292297,-0.5508249998092651,-1.4881625175476074
1772408511805193200,8.690193115234376,-0.4596624970436096,-0.45278748869895935,-1.2835625410079956
1772408511825254700,8.710254638671875,-0.2381500005722046,-0.44632500410079956,-0.5912500023841858
1772408511845316400,8.73031640625,-0.30195000767707825,-0.4388999938964844,0.2652375102043152
1772408511865378000,8.7503779296875,-0.382937490940094,-0.24928750097751617,0.720087468624115
1772408511885439700,8.770439697265624,-0.37661248445510864,-0.056512501090765,0.7414000034332275
1772408511905501200,8.790501220703124,-0.5310249924659729,-0.07246249914169312,0.4292750060558319
1772408511925563100,8.810563232421876,-0.5853375196456909,0.015949999913573265,0.11618749797344208
1772408511945624600,8.83062451171875,-0.48413750529289246,0.06916250288486481,0.018149999901652336
1772408511965686500,8.8506865234375,-0.4446749985218048,0.07136250287294388,0.19923749566078186
1772408511985748000,8.870748046875,-0.33178749680519104,0.27582499384880066,0.5295125246047974
1772408512005809700,8.8908095703125,-0.09322500228881836,0.8073999881744385,0.6264500021934509
1772408512025871400,8.910871337890624,0.7919999957084656,1.3890249729156494,0.5880874991416931
1772408512045932800,8.930932861328126,1.3895750045776367,0.8414999842643738,0.45374998450279236
1772408512065994800,8.950994873046875,0.8548374772071838,-0.46131250262260437,0.6402000188827515
1772408512086056200,8.97105615234375,0.5630624890327454,-0.8245875239372253,1.0355124473571777
1772408512106118000,8.991117919921875,0.5384500026702881,-0.0681999996304512,1.0844625234603882
1772408512126179600,9.0111796875,-0.1358499974012375,0.28971248865127563,0.055412501096725464
1772408512146241000,9.031240966796876,-0.5449125170707703,0.30992498993873596,-0.5997750163078308
1772408512166302700,9.051302734375,-0.2540999948978424,0.19277499616146088,-0.5539875030517578
1772408512186364400,9.071364501953125,0.2316875010728836,-0.10009999573230743,-0.21408750116825104
1772408512206426000,9.091426025390625,0.5682874917984009,-0.19607499241828918,0.04262499883770943
1772408512226487600,9.111487548828125,0.5438125133514404,-0.06393750011920929,0.09377499669790268
1772408512246549500,9.131549560546874,0.2870999872684479,0.027637500315904617,0.05967500060796738
1772408512266611000,9.15161083984375,-0.015399999916553497,0.08098749816417694,-0.12361250072717667
1772408512286672600,9.171672607421876,-0.30951249599456787,-0.2578125,-0.5358374714851379
1772408512306734300,9.191734375,-0.5853375196456909,-0.764912486076355,-0.9917874932289124
1772408512326796000,9.211796142578125,-0.6546375155448914,-0.7020750045776367,-1.2931874990463257
1772408512346857500,9.231857421875,-0.4437125027179718,-0.5858874917030334,-1.2036750316619873
1772408512366919200,9.251919189453124,-0.5182374715805054,-0.8095999956130981,-1.0012749433517456
1772408512386980900,9.27198095703125,-0.6131125092506409,-0.6221874952316284,-0.810699999332428
1772408512407042300,9.292042236328125,-0.5640249848365784,-0.20776249468326569,-0.5198875069618225
1772408512427104000,9.31210400390625,-0.6939625144004822,-0.09487500041723251,-0.2876499891281128
1772408512447165700,9.332165771484375,-0.7195374965667725,0.19923749566078186,-0.19813749194145203
1772408512467227400,9.352227294921875,-0.6897000074386597,0.3334375023841858,-0.15234999358654022
1772408512487288800,9.372288818359374,-0.7823749780654907,0.11824999749660492,-0.1480875015258789
1772408512507350500,9.3923505859375,-0.9432500004768372,0.08304999768733978,-0.21518750488758087
1772408512527412200,9.412412109375,-0.9890375137329102,0.2172500044107437,-0.13529999554157257
1772408512547473700,9.4324736328125,-0.38183748722076416,0.7434625029563904,0.14272500574588776
1772408512567535600,9.45253564453125,-0.2572624981403351,0.7562500238418579,0.26317501068115234
1772408512587597000,9.47259716796875,-0.4585624933242798,0.021312499418854713,0.18328750133514404
1772408512607658500,9.492658447265624,-0.2583625018596649,0.4750624895095825,0.9725375175476074
1772408512627720200,9.51272021484375,0.02502499893307686,1.5361499786376953,1.8184374570846558
1772408512647782000,9.532781982421875,0.26785001158714294,1.4722124338150024,2.0475125312805176
1772408512667843600,9.552843505859375,-0.12416250258684158,0.8894875049591064,2.1859750747680664
1772408512687905000,9.572905029296875,-0.4735499918460846,0.4665375053882599,1.4892624616622925
1772408512707966700,9.592966796875,-0.3073124885559082,0.4281750023365021,0.30896249413490295
1772408512728028200,9.613028076171876,-0.02928750030696392,0.7339749932289124,-0.1779250055551529
1772408512748090000,9.633090087890626,-0.0943249985575676,1.189924955368042,-0.0798875018954277
1772408512768151600,9.653151611328125,0.05912499874830246,1.5956875085830688,0.23333749175071716
1772408512788213200,9.673213134765625,0.07823749631643295,1.031112551689148,0.6231499910354614
1772408512808274700,9.693274658203125,-0.18796250224113464,0.6635749936103821,0.6487249732017517
1772408512828336400,9.71333642578125,-0.05169999971985817,1.0003124475479126,0.4442625045776367
1772408512848398000,9.733398193359376,0.3531000018119812,1.1749374866485596,0.9182249903678894
1772408512868459500,9.75345947265625,0.2924624979496002,0.1097249984741211,1.3305875062942505
1772408512888521200,9.773521240234375,0.23485000431537628,-0.09583749622106552,0.8181250095367432
1772408512908582700,9.793582763671875,0.4596624970436096,0.561412513256073,0.32381248474121094
1772408512928644400,9.813644287109375,0.4926624894142151,0.7968124747276306,-0.21092499792575836
1772408512948706000,9.8337060546875,0.6088500022888184,0.7860875129699707,-0.41964998841285706
