time,seconds_elapsed,z,y,x
1772408503158427600,0.043427734375,2.8399500846862793,-8.38800048828125,4.858950138092041
1772408503178490000,0.063489990234375,2.5909500122070312,-8.164950370788574,5.026950359344482
1772408503198552800,0.083552734375,2.373000144958496,-8.138999938964844,4.792050361633301
1772408503218615600,0.103615478515625,2.410950183868408,-8.074049949645996,4.560000419616699
1772408503238678300,0.12367822265625,2.6070001125335693,-7.933050155639648,4.468950271606445
1772408503258740700,0.14374072265625,2.7180001735687256,-7.677000522613525,4.6080002784729
1772408503278803200,0.16380322265625,3.3190500736236572,-7.753050327301025,4.43595027923584
1772408503298866000,0.183865966796875,3.268050193786621,-7.5859503746032715,4.084050178527832
1772408503318928400,0.203928466796875,2.9160001277923584,-7.0660505294799805,4.183950424194336
1772408503338990800,0.223990966796875,2.890050172805786,-6.487050533294678,3.8389501571655273
1772408503359053600,0.244053466796875,2.751000165939331,-5.919000148773193,3.1500000953674316
1772408503379116000,0.264115966796875,2.8279502391815186,-5.473950386047363,3.375000238418579
1772408503399178500,0.284178466796875,3.1530001163482666,-6.106050491333008,3.484950065612793
1772408503419241200,0.3042412109375,3.4840502738952637,-7.543050289154053,4.005000114440918
1772408503439303700,0.3243037109375,4.200000286102295,-9.930000305175781,5.709000110626221
1772408503459366400,0.344366455078125,5.490000247955322,-12.385951042175293,6.946950435638428
1772408503479428900,0.364428955078125,7.0489501953125,-14.124000549316406,7.6459503173828125
1772408503499491600,0.38449169921875,6.618000507354736,-16.576051712036133,8.302050590515137
1772408503519553800,0.4045537109375,4.935000419616699,-18.951000213623047,9.087000846862793
1772408503539616300,0.4246162109375,4.40595006942749,-19.93695068359375,8.476950645446777
1772408503559679000,0.444678955078125,5.265000343322754,-18.858001708984375,6.88200044631958
1772408503579741400,0.464741455078125,5.938050270080566,-14.919000625610352,4.11899995803833
1772408503599804000,0.484803955078125,4.719000339508057,-10.356000900268555,1.6870501041412354
1772408503619866600,0.50486669921875,2.502000093460083,-6.087000370025635,0.4440000355243683
1772408503639929000,0.52492919921875,0.4459500312805176,-2.6730000972747803,0.43695002794265747
1772408503659991600,0.544991455078125,-0.5610000491142273,-0.6739500164985657,0.8730000257492065
1772408503680054000,0.565053955078125,-0.004050000105053186,0.4459500312805176,1.1820000410079956
1772408503700116500,0.585116455078125,1.276050090789795,1.0489500761032104,1.3180500268936157
1772408503720179200,0.60517919921875,2.11395001411438,1.2720000743865967,1.4140501022338867
1772408503740241700,0.62524169921875,2.4210000038146973,1.0039499998092651,1.3180500268936157
1772408503760304000,0.64530419921875,2.6430001258850098,0.5179499983787537,1.0810500383377075
1772408503780366600,0.66536669921875,2.614950180053711,0.1660500019788742,1.4020500183105469
1772408503800429000,0.685428955078125,2.9569501876831055,-0.41700002551078796,1.88100004196167
1772408503820491800,0.70549169921875,3.1750502586364746,-1.5690001249313354,2.48895001411438
1772408503840554200,0.72555419921875,2.8470001220703125,-4.45395040512085,4.926000118255615
1772408503860616700,0.74561669921875,4.444050312042236,-9.78600025177002,6.969000339508057
1772408503880679200,0.76567919921875,7.717050552368164,-14.017050743103027,7.768050193786621
1772408503900741600,0.78574169921875,10.92300033569336,-17.902050018310547,10.210050582885742
1772408503920804000,0.80580419921875,13.20405101776123,-21.397951126098633,11.544000625610352
1772408503940866600,0.825866455078125,12.946050643920898,-23.47395133972168,11.272950172424316
1772408503960929000,0.845928955078125,11.172000885009766,-22.522951126098633,9.708000183105469
1772408503980991700,0.86599169921875,9.139050483703613,-20.35395050048828,8.470050811767578
1772408504001054200,0.88605419921875,7.92495059967041,-16.7320499420166,7.141050338745117
1772408504021116700,0.90611669921875,6.916950225830078,-11.493000984191895,4.621950149536133
1772408504041179100,0.92617919921875,5.0620503425598145,-6.622950077056885,2.308950185775757
1772408504061241600,0.94624169921875,2.1480000019073486,-2.5960500240325928,1.158000111579895
1772408504081304000,0.966303955078125,0.004950000438839197,0.08400000631809235,0.595050036907196
1772408504101366500,0.986366455078125,-1.231950044631958,1.0830000638961792,0.31995001435279846
1772408504121429000,1.006428955078125,-1.456950068473816,1.5780000686645508,0.5140500068664551
1772408504141491500,1.026491455078125,-0.24105000495910645,0.9919500350952148,0.5520000457763672
1772408504161554200,1.04655419921875,1.111050009727478,0.5460000038146973,0.8370000123977661
1772408504181616600,1.06661669921875,2.3419501781463623,0.4050000309944153,0.8419500589370728
1772408504201678800,1.086678955078125,3.390000104904175,0.4650000333786011,0.6499500274658203
1772408504221741300,1.1067412109375,3.6940500736236572,0.5890500545501709,0.6619500517845154
1772408504241804000,1.126803955078125,3.241950035095215,0.7930500507354736,1.3210500478744507
1772408504261866500,1.146866455078125,3.019050121307373,0.5029500126838684,1.9620001316070557
1772408504281929000,1.166928955078125,2.980950117111206,-1.1640000343322754,3.406050205230713
1772408504301991200,1.1869912109375,3.358950138092041,-5.440950393676758,5.53695011138916
1772408504322054000,1.207053955078125,5.179050445556641,-11.212950706481934,6.289050102233887
1772408504342116400,1.227116455078125,8.449049949645996,-15.894001007080078,7.6080002784729
1772408504362178800,1.2471787109375,11.428050994873047,-19.663951873779297,8.869950294494629
1772408504382241300,1.2672412109375,12.57705020904541,-23.37795066833496,9.628950119018555
1772408504402303500,1.287303466796875,12.736950874328613,-25.162050247192383,9.532950401306152
1772408504422366000,1.307365966796875,14.008950233459473,-24.910051345825195,8.355000495910645
1772408504442428400,1.327428466796875,14.695950508117676,-20.6820011138916,6.612000465393066
1772408504462491000,1.347490966796875,12.792000770568848,-14.42595100402832,6.070950508117676
1772408504482553300,1.36755322265625,9.630000114440918,-9.57300090789795,5.697000503540039
1772408504502615800,1.38761572265625,5.671950340270996,-5.84505033493042,3.9880502223968506
1772408504522678000,1.407677978515625,2.176950216293335,-2.436000108718872,2.001000165939331
1772408504542740700,1.42774072265625,0.3160500228404999,0.5779500007629395,0.6619500517845154
1772408504562803000,1.447802978515625,0.19395001232624054,2.3490002155303955,0.21000000834465027
1772408504582865400,1.467865478515625,1.1640000343322754,2.83305025100708,0.5879999995231628
1772408504602927900,1.487927978515625,2.275050163269043,2.3710501194000244,1.075950026512146
1772408504622990300,1.507990234375,3.1530001163482666,1.6690500974655151,1.6750500202178955
1772408504643052800,1.528052734375,3.5080502033233643,1.128000020980835,1.9890000820159912
1772408504663115000,1.548114990234375,3.928950071334839,0.843000054359436,2.001000165939331
1772408504683177500,1.568177490234375,4.188000202178955,1.059000015258789,2.1349501609802246
1772408504703240000,1.588239990234375,3.919950246810913,1.432050108909607,2.439000129699707
1772408504723302400,1.608302490234375,3.781050205230713,0.9220500588417053,2.269050121307373
1772408504743364900,1.62836474609375,3.472050189971924,-1.3990501165390015,2.4120001792907715
1772408504763427300,1.64842724609375,3.3160500526428223,-5.670000076293945,4.701000213623047
1772408504783489500,1.668489501953125,4.61400032043457,-11.296950340270996,6.712050437927246
1772408504803552000,1.688552001953125,7.000950336456299,-15.726000785827637,7.546050548553467
1772408504823614200,1.7086142578125,10.474950790405273,-21.223051071166992,9.163949966430664
1772408504843676700,1.7286767578125,12.958050727844238,-27.910051345825195,11.779050827026367
1772408504863739100,1.7487392578125,14.566950798034668,-31.738052368164062,10.665000915527344
1772408504883801300,1.76880126953125,14.767951011657715,-28.992000579833984,6.700050354003906
1772408504903863800,1.78886376953125,14.19795036315918,-20.61495018005371,3.394050121307373
1772408504923926300,1.80892626953125,12.414000511169434,-11.854950904846191,1.977000117301941
1772408504943988700,1.82898876953125,8.305950164794922,-5.17995023727417,1.3830000162124634
1772408504964051000,1.849051025390625,3.328050136566162,-1.3699500560760498,1.4719500541687012
1772408504984113400,1.869113525390625,-0.595050036907196,0.534000039100647,1.7970000505447388
1772408505004176000,1.88917578125,-3.0870001316070557,1.954050064086914,2.1610500812530518
1772408505024238300,1.90923828125,-3.52305006980896,2.63700008392334,2.137050151824951
1772408505044300500,1.929300537109375,-2.1060001850128174,2.574000120162964,1.9429501295089722
1772408505064363000,1.949363037109375,-0.07095000147819519,1.7530500888824463,1.1989500522613525
1772408505084425200,1.96942529296875,1.7500500679016113,0.7980000376701355,0.8389500379562378
1772408505104487700,1.98948779296875,3.5650501251220703,0.6040500402450562,1.3399500846862793
1772408505124550100,2.009550048828125,4.096950054168701,0.7309500575065613,1.3450500965118408
1772408505144612400,2.0296123046875,3.4260001182556152,0.6160500049591064,1.4280000925064087
1772408505164674600,2.049674560546875,2.883000135421753,0.1660500019788742,1.4550000429153442
1772408505184737000,2.069737060546875,2.614950180053711,-1.3729500770568848,1.696950078010559
1772408505204799500,2.089799560546875,2.7079501152038574,-4.606950283050537,2.281050205230713
1772408505224861700,2.10986181640625,3.3540000915527344,-9.784050941467285,5.439000129699707
1772408505244924200,2.129924072265625,6.534000396728516,-17.674951553344727,10.095000267028809
1772408505264986600,2.149986572265625,10.94895076751709,-25.554000854492188,10.917000770568848
1772408505285048800,2.170048828125,17.40795135498047,-33.175052642822266,10.753950119018555
1772408505305111000,2.190111083984375,20.746051788330078,-35.38500213623047,10.267950057983398
1772408505325173200,2.21017333984375,17.940000534057617,-31.92795181274414,9.16200065612793
1772408505345236000,2.230236083984375,13.783950805664062,-23.3299503326416,5.374050140380859
1772408505365298200,2.250298095703125,10.741050720214844,-12.280950546264648,1.9410001039505005
1772408505385360400,2.2703603515625,5.989950180053711,-3.055950164794922,0.5550000071525574
1772408505405422800,2.2904228515625,0.40995001792907715,2.203050136566162,0.05700000375509262
1772408505425485000,2.310485107421875,-2.656050205230713,4.260000228881836,0.9880500435829163
1772408505445547500,2.330547607421875,-3.7270500659942627,3.475050210952759,2.8189501762390137
1772408505465609700,2.350609619140625,-3.3100502490997314,2.265000104904175,3.9850502014160156
1772408505485672200,2.370672119140625,-1.6699501276016235,1.2000000476837158,3.7170002460479736
1772408505505734100,2.390734130859375,0.44805002212524414,0.5080500245094299,2.3430001735687256
1772408505525796600,2.410796630859375,2.593050241470337,0.4429500102996826,1.579050064086914
1772408505545859000,2.430859130859375,3.8359501361846924,0.6520500183105469,0.8590500354766846
1772408505565921300,2.45092138671875,3.4360501766204834,0.8269500136375427,0.19500000774860382
1772408505585983500,2.4709833984375,2.9569501876831055,1.3030500411987305,0.23595000803470612
1772408505606046000,2.4910458984375,2.5909500122070312,1.1430000066757202,0.12405000627040863
1772408505626108200,2.511108154296875,2.385000228881836,1.0180500745773315,0.39705002307891846
1772408505646170600,2.531170654296875,1.9870500564575195,0.9580500721931458,1.2439500093460083
1772408505666232800,2.55123291015625,1.8769501447677612,0.14205001294612885,1.0999500751495361
1772408505686295000,2.571294921875,2.155050039291382,-1.7730001211166382,0.9040500521659851
1772408505706357200,2.591357177734375,3.5749502182006836,-5.505000114440918,2.118000030517578
1772408505726419700,2.611419677734375,6.337950229644775,-11.445000648498535,5.82705020904541
1772408505746482000,2.63148193359375,9.58395004272461,-16.210050582885742,8.704050064086914
1772408505766544400,2.65154443359375,14.059050559997559,-21.369001388549805,10.027950286865234
1772408505786606600,2.671606689453125,18.33300018310547,-28.530000686645508,12.292950630187988
1772408505806668800,2.691668701171875,19.72800064086914,-34.20900344848633,12.37695026397705
1772408505826731300,2.711731201171875,17.466001510620117,-36.35700225830078,11.245050430297852
1772408505846793500,2.73179345703125,13.992000579833984,-29.731950759887695,6.978000164031982
1772408505866856000,2.75185595703125,11.599950790405273,-18.355051040649414,3.3100502490997314
1772408505886918000,2.77191796875,8.193000793457031,-7.861050605773926,1.5150001049041748
1772408505906980000,2.79197998046875,4.054049968719482,-1.6309500932693481,2.0490000247955322
1772408505927042600,2.81204248046875,0.36705002188682556,1.1880000829696655,2.6110501289367676
1772408505947104800,2.832104736328125,-1.4590500593185425,2.686950206756592,2.48895001411438
1772408505967167000,2.8521669921875,-2.3620500564575195,3.2730002403259277,2.9580001831054688
1772408505987229400,2.8722294921875,-2.8120501041412354,3.2470500469207764,3.6600000858306885
1772408506007291600,2.892291748046875,-2.118000030517578,2.4760501384735107,3.52305006980896
1772408506027353900,2.912353759765625,-0.753000020980835,1.67205011844635,2.8339500427246094
1772408506047416000,2.932416015625,0.9240000247955322,0.8670000433921814,2.0220000743865967
1772408506067478500,2.952478515625,2.370000123977661,0.25905001163482666,0.6430500149726868
1772408506087540500,2.97254052734375,2.722050189971924,0.19905000925064087,-0.13395000994205475
1772408506107603000,2.99260302734375,2.502000093460083,0.831000030040741,0.14805001020431519
1772408506127665200,3.0126650390625,1.8340500593185425,0.9919500350952148,0.4729500114917755
1772408506147727400,3.032727294921875,1.01295006275177,0.9460500478744507,0.286050021648407
1772408506167789800,3.052789794921875,1.1970000267028809,0.24000000953674316,0.05205000191926956
1772408506187851800,3.072851806640625,2.5000500679016113,-1.477950096130371,0.22905001044273376
1772408506207914000,3.0929140625,3.4429502487182617,-5.866950511932373,2.6329500675201416
1772408506227976200,3.11297607421875,6.304050445556641,-13.452000617980957,6.516000270843506
1772408506248038400,3.133038330078125,12.586950302124023,-21.751951217651367,6.778950214385986
1772408506268100900,3.153100830078125,23.020051956176758,-28.840951919555664,6.547050476074219
1772408506288163000,3.1731630859375,28.740001678466797,-33.165000915527344,11.532000541687012
1772408506308225300,3.193225341796875,25.0030517578125,-31.75800132751465,13.141050338745117
1772408506328287500,3.21328759765625,20.368051528930664,-28.216951370239258,10.294050216674805
1772408506348349400,3.233349365234375,16.137001037597656,-19.542001724243164,4.866000175476074
1772408506368411600,3.25341162109375,10.498950958251953,-9.790950775146484,2.2710001468658447
1772408506388474000,3.27347412109375,4.590000152587891,-1.974000096321106,1.8400501012802124
1772408506408536300,3.293536376953125,-0.3679500222206116,3.3070502281188965,2.26200008392334
1772408506428598500,3.3135986328125,-3.346050262451172,6.063000202178955,3.00600004196167
1772408506448660500,3.333660400390625,-4.383000373840332,5.54295015335083,3.802950143814087
1772408506468723000,3.353722900390625,-3.4560000896453857,3.642000198364258,3.9589502811431885
1772408506488785200,3.37378515625,-1.1670000553131104,1.6330500841140747,3.3889501094818115
1772408506508847400,3.393847412109375,1.9729501008987427,0.031950000673532486,2.1229500770568848
1772408506528909600,3.41390966796875,4.318950176239014,-0.6040500402450562,0.4729500114917755
1772408506548971800,3.4339716796875,5.076000213623047,-0.22800001502037048,-0.11505000293254852
1772408506569034000,3.454033935546875,4.348050117492676,0.5580000281333923,0.12405000627040863
1772408506589096200,3.47409619140625,1.8720000982284546,0.9820500612258911,0.5209500193595886
1772408506609158100,3.494158203125,-0.3049500286579132,1.1260499954223633,0.6960000395774841
1772408506629220400,3.514220458984375,-0.4030500054359436,1.0350000858306885,0.583050012588501
1772408506649282600,3.534282470703125,0.09105000644922256,1.0039499998092651,0.7200000286102295
1772408506669344800,3.5543447265625,0.2880000174045563,0.4339500069618225,0.7050000429153442
1772408506689406700,3.57440673828125,1.5829501152038574,-0.25200000405311584,1.440000057220459
1772408506709469000,3.594468994140625,3.3979501724243164,-2.7370500564575195,3.601950168609619
1772408506729531400,3.614531494140625,6.7950005531311035,-10.428000450134277,6.814950466156006
1772408506749593300,3.63459326171875,15.241950988769531,-18.858001708984375,8.226000785827637
1772408506769655600,3.654655517578125,24.07200050354004,-24.040950775146484,8.623050689697266
1772408506789717800,3.6747177734375,26.80605125427246,-27.616050720214844,10.753950119018555
1772408506809780000,3.694780029296875,23.716951370239258,-28.494001388549805,11.38800048828125
1772408506829842000,3.714842041015625,19.669050216674805,-28.489051818847656,9.588000297546387
1772408506849904400,3.734904296875,15.907051086425781,-23.42595100402832,6.339000225067139
1772408506869966300,3.75496630859375,12.187050819396973,-13.582950592041016,3.4729502201080322
1772408506890028500,3.775028564453125,7.381950378417969,-5.116950035095215,3.0040502548217773
1772408506910090500,3.795090576171875,2.791950225830078,0.8220000267028809,3.5329501628875732
1772408506930152700,3.815152587890625,-0.6400500535964966,3.5850002765655518,2.326050043106079
1772408506950215000,3.83521484375,-2.5060501098632812,3.7350001335144043,1.0380001068115234
1772408506970276900,3.85527685546875,-2.146050214767456,2.3899500370025635,1.0600500106811523
1772408506990339000,3.875339111328125,0.20400001108646393,0.7810500264167786,0.6910500526428223
1772408507010401300,3.8954013671875,2.0280001163482666,-0.17295001447200775,0.27900001406669617
1772408507030463500,3.91546337890625,3.690000057220459,-0.15900000929832458,-0.28995001316070557
1772408507050525700,3.935525634765625,4.32705020904541,0.16305001080036163,-0.4020000100135803
1772408507070587600,3.955587646484375,3.6850502490997314,0.8410500288009644,0.021000001579523087
1772408507090649900,3.97564990234375,2.9760000705718994,1.3840500116348267,0.7750500440597534
1772408507110712000,3.995712158203125,2.176950216293335,1.5400500297546387,1.0170000791549683
1772408507130774000,4.01577392578125,1.1569499969482422,1.6500000953674316,1.3420500755310059
1772408507150836000,4.0358359375,0.817050039768219,2.158050060272217,1.8739501237869263
1772408507170898200,4.055898193359375,2.053950071334839,1.5570000410079956,1.5720000267028809
1772408507190960400,4.07596044921875,3.1960501670837402,0.3240000009536743,1.3950001001358032
1772408507211022600,4.096022705078125,3.7710001468658447,-1.987950086593628,3.2980501651763916
1772408507231084500,4.11608447265625,6.12000036239624,-7.095000267028809,5.296950340270996
1772408507251146800,4.136146728515625,12.169950485229492,-12.384000778198242,8.058000564575195
1772408507271208700,4.156208740234375,17.43000030517578,-20.040000915527344,11.440950393676758
1772408507291271000,4.17627099609375,22.041000366210938,-26.590951919555664,11.850000381469727
1772408507311332900,4.196332763671875,23.551950454711914,-28.816951751708984,12.010951042175293
1772408507331395000,4.21639501953125,21.4189510345459,-27.61305046081543,11.829000473022461
1772408507351457300,4.236457275390625,17.90595054626465,-24.05295181274414,10.039950370788574
1772408507371519200,4.256519287109375,14.442000389099121,-17.05695152282715,7.873950481414795
1772408507391581400,4.27658154296875,9.189000129699707,-8.521950721740723,6.115950107574463
1772408507411643400,4.296643310546875,4.02495002746582,-1.2550500631332397,4.941000461578369
1772408507431705600,4.31670556640625,0.6420000195503235,1.8799500465393066,3.4230000972747803
1772408507451767800,4.336767822265625,-0.5209500193595886,2.7370500564575195,1.440000057220459
1772408507471829500,4.35682958984375,-0.38895002007484436,2.5099501609802246,0.5380499958992004
1772408507491891700,4.3768916015625,0.9079500436782837,1.4989501237869263,0.39705002307891846
1772408507511954000,4.396953857421875,2.422950029373169,0.43605002760887146,0.41100001335144043
1772408507532015900,4.417015869140625,3.430950164794922,-0.1969500035047531,0.5689499974250793
1772408507552077800,4.437077880859375,4.165950298309326,-0.13500000536441803,0.10005000233650208
1772408507572140000,4.45714013671875,3.859950065612793,0.2350500077009201,0.41805002093315125
1772408507592202000,4.477201904296875,2.9140501022338867,0.8740500211715698,1.2060000896453857
1772408507612264000,4.497263916015625,1.5610500574111938,1.054050087928772,1.527000069618225
1772408507632326100,4.517326171875,0.30900001525878906,1.3510500192642212,1.4119501113891602
1772408507652388000,4.53738818359375,-0.2569500207901001,1.6500000953674316,1.3519500494003296
1772408507672450000,4.557449951171875,0.32100000977516174,1.593000054359436,1.290000081062317
1772408507692512300,4.57751220703125,1.221000075340271,1.1069999933242798,1.075950026512146
1772408507712574200,4.59757421875,2.263050079345703,-0.30300000309944153,0.625950038433075
1772408507732636200,4.61763623046875,2.9569501876831055,-3.8340001106262207,1.7710500955581665
1772408507752698400,4.637698486328125,6.241950511932373,-8.625,5.673000335693359
1772408507772760600,4.657760498046875,11.940000534057617,-13.044000625610352,8.752050399780273
1772408507792822500,4.677822509765625,16.46295166015625,-19.546951293945312,11.472000122070312
1772408507812884500,4.697884521484375,20.914051055908203,-24.81705093383789,14.239951133728027
1772408507832946400,4.717946533203125,21.571950912475586,-28.714950561523438,14.98905086517334
1772408507853008600,4.738008544921875,19.693050384521484,-30.127052307128906,14.134050369262695
1772408507873070600,4.758070556640625,18.89805030822754,-26.884950637817383,11.857950210571289
1772408507893132500,4.778132568359375,16.945951461791992,-18.25695037841797,8.617950439453125
1772408507913194500,4.798194580078125,12.666000366210938,-8.910000801086426,6.564000129699707
1772408507933256400,4.81825634765625,6.510000228881836,-2.0910000801086426,4.7470502853393555
1772408507953318700,4.838318603515625,0.8119500279426575,1.5520501136779785,3.0330002307891846
1772408507973380900,4.858380859375,-1.8690000772476196,3.721050262451172,1.6060501337051392
1772408507993442600,4.878442626953125,-3.142050266265869,4.156949996948242,1.9000500440597534
1772408508013504800,4.8985048828125,-3.3030002117156982,3.1300501823425293,2.7520501613616943
1772408508033566700,4.918566650390625,-1.1460000276565552,1.1830500364303589,2.2930500507354736
1772408508053628700,4.938628662109375,2.0710501670837402,-0.07304999977350235,1.0210500955581665
1772408508073690600,4.958690673828125,4.768950462341309,-0.48705002665519714,-0.41700002551078796
1772408508093752600,4.978752685546875,6.091050148010254,0.1870500147342682,-0.5580000281333923
1772408508113814500,4.998814453125,5.587950229644775,1.075950026512146,0.12405000627040863
1772408508133876700,5.018876708984375,3.670950174331665,1.6000500917434692,1.1080501079559326
1772408508153938700,5.038938720703125,2.3899500370025635,1.8730500936508179,1.480950117111206
1772408508174001000,5.0590009765625,1.4989501237869263,1.4059500694274902,1.1910001039505005
1772408508194062800,5.079062744140625,1.1759999990463257,1.0780500173568726,0.47805002331733704
1772408508214124800,5.099124755859375,1.9830000400543213,0.34005001187324524,-0.17205001413822174
1772408508234186800,5.119186767578125,3.015000104904175,-0.4320000112056732,-0.8710500597953796
1772408508254249000,5.1392490234375,3.280050039291382,-1.1740500926971436,-0.5749500393867493
1772408508274311000,5.159310791015625,4.069950103759766,-5.184000015258789,2.63700008392334
1772408508294372900,5.179372802734375,7.282950401306152,-10.902000427246094,6.676950454711914
1772408508314435000,5.19943505859375,12.559950828552246,-15.633000373840332,10.918950080871582
1772408508334496800,5.219496826171875,18.64095115661621,-22.35795021057129,13.174050331115723
1772408508354558700,5.239558837890625,23.449050903320312,-29.172000885009766,14.379000663757324
1772408508374621000,5.259620849609375,24.517051696777344,-32.056949615478516,13.216950416564941
1772408508394683000,5.279682861328125,20.643001556396484,-30.774002075195312,10.759050369262695
1772408508414744800,5.299744873046875,17.100000381469727,-24.244951248168945,7.198050498962402
1772408508434806800,5.319806884765625,11.358000755310059,-14.869050979614258,4.965000152587891
1772408508454869000,5.339868896484375,4.819950103759766,-6.6060004234313965,3.8989500999450684
1772408508474930700,5.3599306640625,0.7159500122070312,-0.7860000133514404,3.475050210952759
1772408508494992600,5.37999267578125,-0.2880000174045563,2.55495023727417,3.556950092315674
1772408508515054800,5.400054931640625,-0.07500000298023224,3.6850502490997314,3.163950204849243
1772408508535116500,5.420116455078125,-0.26205000281333923,3.0870001316070557,2.070000171661377
1772408508555178500,5.440178466796875,-0.1469999998807907,1.5520501136779785,1.227000117301941
1772408508575240400,5.460240478515625,0.5320500135421753,0.10605000704526901,0.4540500342845917
1772408508595302400,5.480302490234375,0.9910500645637512,-0.4510500133037567,-0.30195000767707825
1772408508615364600,5.500364501953125,2.0299501419067383,-0.45795002579689026,-0.31095001101493835
1772408508635426600,5.520426513671875,2.8399500846862793,-0.4129500091075897,-0.3330000042915344
1772408508655488500,5.540488525390625,2.40405011177063,-0.06300000101327896,0.05400000140070915
1772408508675550500,5.560550537109375,1.5970500707626343,0.4050000309944153,0.7800000309944153
1772408508695612400,5.5806123046875,0.18495000898838043,0.6660000085830688,0.9880500435829163
1772408508715674400,5.60067431640625,-2.1510000228881836,0.9220500588417053,1.0879501104354858
1772408508735736300,5.620736328125,-2.2159500122070312,0.661050021648407,1.218000054359436
1772408508755798000,5.640798095703125,-0.5590500235557556,-0.14505000412464142,0.5879999995231628
1772408508775860200,5.660860107421875,-0.22095000743865967,-1.9759501218795776,0.14295001327991486
1772408508795922000,5.680921875,1.3699500560760498,-4.389000415802002,3.574050188064575
1772408508815983900,5.70098388671875,4.470000267028809,-8.235000610351562,7.16295051574707
1772408508836045800,5.7210458984375,6.805050373077393,-13.921051025390625,10.984050750732422
1772408508856107800,5.741107666015625,10.827000617980957,-20.944950103759766,14.93595027923584
1772408508876169700,5.761169677734375,17.26500129699707,-29.287052154541016,16.179000854492188
1772408508896232000,5.78123193359375,21.724950790405273,-35.94000244140625,13.318050384521484
1772408508916293600,5.801293701171875,19.081951141357422,-36.67995071411133,10.632000923156738
1772408508936355600,5.82135546875,14.895000457763672,-30.322952270507812,8.296950340270996
1772408508956417300,5.841417236328125,11.928000450134277,-20.8780517578125,7.7059502601623535
1772408508976479500,5.8614794921875,8.559000015258789,-11.778000831604004,7.6650004386901855
1772408508996541400,5.88154150390625,5.191050052642822,-3.705000162124634,6.844050407409668
1772408509016603100,5.90160302734375,2.710050106048584,0.9679500460624695,5.122950077056885
1772408509036665000,5.9216650390625,0.5389500260353088,3.180000066757202,2.419950008392334
1772408509056727300,5.941727294921875,-0.5040000081062317,3.229950189590454,0.11595000326633453
1772408509076789200,5.961789306640625,-0.28395000100135803,1.7170500755310059,-0.9190500378608704
1772408509096851000,5.981850830078125,0.7470000386238098,0.22305001318454742,-0.7230000495910645
1772408509116913000,6.001912841796875,1.4629501104354858,-0.9030000567436218,-0.5460000038146973
1772408509136974800,6.021974853515625,2.095050096511841,-0.9079500436782837,-0.21495001018047333
1772408509157036800,6.042036865234375,2.464050054550171,-0.40800002217292786,0.3439500033855438
1772408509177098500,6.062098388671875,1.8799500465393066,0.34800001978874207,0.8490000367164612
1772408509197160400,6.082160400390625,0.3160500228404999,0.7090500593185425,0.7339500188827515
1772408509217222400,6.102222412109375,-0.9829500317573547,1.237950086593628,0.9139500260353088
1772408509237284400,6.122284423828125,-1.3950001001358032,0.9919500350952148,1.0669500827789307
1772408509257346300,6.14234619140625,-0.7290000319480896,1.0830000638961792,1.4280000925064087
1772408509277408000,6.162407958984375,0.7660500407218933,0.9610500335693359,1.7470500469207764
1772408509297470000,6.182469970703125,2.6269500255584717,0.208950012922287,1.4310001134872437
1772408509317532000,6.202531982421875,4.357950210571289,-1.3300501108169556,1.711050033569336
1772408509337593900,6.22259375,5.362950325012207,-6.690000534057617,4.002000331878662
1772408509357655800,6.24265576171875,8.605050086975098,-14.493000984191895,8.950950622558594
1772408509377717800,6.2627177734375,16.003049850463867,-20.838001251220703,11.793000221252441
1772408509397779700,6.28277978515625,21.820951461791992,-28.128002166748047,11.605950355529785
1772408509417841400,6.30284130859375,21.703950881958008,-33.943050384521484,12.612000465393066
1772408509437903400,6.3229033203125,20.00895118713379,-35.83005142211914,12.933000564575195
1772408509457965000,6.342965087890625,16.35300064086914,-31.44900131225586,9.562050819396973
1772408509478027300,6.36302734375,11.971050262451172,-21.331050872802734,6.034950256347656
1772408509498089000,6.3830888671875,8.44694995880127,-10.249950408935547,5.214000225067139
1772408509518151000,6.40315087890625,5.028000354766846,-1.4419500827789307,3.832050085067749
1772408509538212900,6.423212890625,1.4179500341415405,3.433950185775757,2.1040501594543457
1772408509558274600,6.443274658203125,-0.8269500136375427,4.759950160980225,1.6459500789642334
1772408509578336500,6.46333642578125,-2.227950096130371,3.7189502716064453,1.960050106048584
1772408509598398500,6.4833984375,-2.6200501918792725,1.8540000915527344,2.095950126647949
1772408509618460200,6.503460205078125,-1.6909500360488892,-0.3360000252723694,1.4310001134872437
1772408509638522000,6.523522216796875,0.8329500555992126,-1.2550500631332397,0.013050000183284283
1772408509658584000,6.543583984375,2.45205020904541,-1.3609501123428345,-0.6340500116348267
1772408509678645800,6.563645751953125,2.083050012588501,-0.208950012922287,-0.1579500138759613
1772408509698707700,6.583707763671875,1.221000075340271,0.8500500321388245,0.4249500334262848
1772408509718769400,6.603769287109375,0.9439500570297241,0.9439500570297241,0.5500500202178955
1772408509738831400,6.623831298828125,0.8209500312805176,1.1040000915527344,0.3439500033855438
1772408509758893000,6.64389306640625,1.0080000162124634,1.3440001010894775,0.8059500455856323
1772408509778955300,6.663955322265625,1.6950000524520874,1.2169500589370728,1.3519500494003296
1772408509799017000,6.684016845703125,2.9449501037597656,1.4080500602722168,2.0029501914978027
1772408509819079000,6.704078857421875,4.135050296783447,0.9169500470161438,1.4740500450134277
1772408509839140600,6.724140625,4.396049976348877,-0.9079500436782837,1.3830000162124634
1772408509859202600,6.74420263671875,5.4810004234313965,-4.5259504318237305,3.5929501056671143
1772408509879264500,6.764264404296875,8.883000373840332,-11.146050453186035,7.249050140380859
1772408509899326200,6.784326171875,14.557050704956055,-16.73400115966797,7.0759501457214355
1772408509919388000,6.804387939453125,19.28295135498047,-20.305950164794922,9.40095043182373
1772408509939450000,6.8244501953125,18.546001434326172,-26.080951690673828,14.170050621032715
1772408509959511800,6.84451171875,16.609050750732422,-31.465051651000977,17.35004997253418
1772408509979573800,6.86457373046875,17.238000869750977,-32.72700119018555,17.28795051574707
1772408509999635200,6.88463525390625,17.962051391601562,-27.216001510620117,11.350050926208496
1772408510019697200,6.904697265625,15.699000358581543,-17.713050842285156,6.406050205230713
1772408510039758800,6.9247587890625,9.484050750732422,-9.1399507522583,4.408950328826904
1772408510059820800,6.94482080078125,3.9049501419067383,-2.656050205230713,2.1949501037597656
1772408510079882500,6.964882568359375,0.1579500138759613,0.9630000591278076,0.6049500107765198
1772408510099944400,6.9849443359375,-2.1559500694274902,2.6389501094818115,0.697950005531311
1772408510120006400,7.00500634765625,-2.893050193786621,2.5500001907348633,0.7680000066757202
1772408510140068000,7.025068115234375,-1.9669500589370728,1.4490001201629639,0.6769500374794006
1772408510160130000,7.045130126953125,0.5700000524520874,0.3550500273704529,0.2939999997615814
1772408510180191700,7.065191650390625,3.0649502277374268,-0.5659500360488892,-0.49995002150535583
1772408510200253700,7.085253662109375,4.252050399780273,-0.4249500334262848,-0.3930000066757202
1772408510220315400,7.1053154296875,3.558000087738037,0.34995001554489136,0.23400001227855682
1772408510240377300,7.12537744140625,2.5879502296447754,0.6520500183105469,0.5520000457763672
1772408510260439000,7.14543896484375,1.8199501037597656,0.8479500412940979,0.5400000214576721
1772408510280500700,7.165500732421875,1.4989501237869263,1.3459500074386597,0.14295001327991486
1772408510300562700,7.185562744140625,1.5919500589370728,1.360050082206726,-0.5700000524520874
1772408510320624400,7.205624267578125,1.4250000715255737,1.363050103187561,-0.5580000281333923
1772408510340686300,7.225686279296875,1.2190500497817993,1.6140000820159912,-0.14595000445842743
1772408510360748000,7.245748046875,2.49495005607605,1.2619500160217285,1.048050045967102
1772408510380810000,7.26581005859375,4.422000408172607,0.7710000276565552,1.8190500736236572
1772408510400871700,7.28587158203125,6.031050205230713,-1.6789500713348389,2.6569502353668213
1772408510420933400,7.305933349609375,8.904000282287598,-9.493950843811035,6.447000503540039
1772408510440995300,7.325995361328125,16.015050888061523,-16.702951431274414,9.796050071716309
1772408510461057000,7.34605712890625,23.242950439453125,-19.46295166015625,11.556000709533691
1772408510481119000,7.366118896484375,21.89295196533203,-25.33905029296875,16.854000091552734
1772408510501180400,7.386180419921875,17.83905029296875,-29.77800178527832,19.416000366210938
1772408510521242400,7.406242431640625,17.892000198364258,-30.820951461791992,18.328950881958008
1772408510541304300,7.42630419921875,17.734050750732422,-26.373001098632812,12.72705078125
1772408510561366000,7.446365966796875,13.567950248718262,-17.224950790405273,7.70805025100708
1772408510581427700,7.466427734375,7.506000518798828,-7.573950290679932,5.311950206756592
1772408510601489400,7.486489501953125,2.9830501079559326,-1.152000069618225,2.9820001125335693
1772408510621551400,7.50655126953125,-0.08505000174045563,2.224950075149536,1.7280000448226929
1772408510641613000,7.526613037109375,-1.8450000286102295,3.0199501514434814,1.0909500122070312
1772408510661675000,7.546675048828125,-2.5510501861572266,2.098050117492676,0.739050030708313
1772408510681736400,7.566736328125,-2.0410501956939697,0.7260000109672546,0.6049500107765198
1772408510701798400,7.58679833984375,0.25394999980926514,-0.5749500393867493,0.38700002431869507
1772408510721860000,7.606860107421875,2.8759500980377197,-1.1880000829696655,0.04905000329017639
1772408510741922000,7.626922119140625,4.386000156402588,-0.906000018119812,0.7170000076293945
1772408510761983700,7.646983642578125,4.565999984741211,0.15105000138282776,0.922950029373169
1772408510782045400,7.66704541015625,2.871000051498413,0.6679500341415405,1.0360500812530518
1772408510802107100,7.687107177734375,0.9550500512123108,1.4350500106811523,1.894950032234192
1772408510822169000,7.707169189453125,-0.7549500465393066,1.6530001163482666,1.8229501247406006
1772408510842230800,7.727230712890625,-1.9549500942230225,1.8919501304626465,1.2630000114440918
1772408510862292500,7.74729248046875,-1.6699501276016235,1.758000135421753,0.7920000553131104
1772408510882354400,7.7673544921875,0.21105000376701355,0.9649500250816345,0.17100000381469727
1772408510902416000,7.787415771484375,2.4379501342773438,0.10305000841617584,0.3559500277042389
1772408510922477800,7.807477783203125,3.9100501537323,-0.8940000534057617,1.3570500612258911
1772408510942539500,7.82753955078125,4.9830002784729,-4.62600040435791,2.776050090789795
1772408510962601200,7.847601318359375,7.765050411224365,-9.553950309753418,6.435000419616699
1772408510982663000,7.867662841796875,12.07905101776123,-14.232000350952148,11.458050727844238
1772408511002724900,7.887724853515625,16.510950088500977,-19.368000030517578,14.482050895690918
1772408511022786300,7.907786376953125,17.926050186157227,-25.281002044677734,19.32000160217285
1772408511042848300,7.92784814453125,16.9320011138916,-31.28805160522461,23.152950286865234
1772408511062910000,7.947909912109375,17.58300018310547,-32.89500045776367,20.500951766967773
1772408511082971600,7.9679716796875,16.432050704956055,-27.121952056884766,13.984050750732422
1772408511103033600,7.98803369140625,11.848950386047363,-16.791000366210938,9.802950859069824
1772408511123095000,8.008094970703125,7.5610504150390625,-7.9860005378723145,7.261050224304199
1772408511143157000,8.028156982421875,4.361999988555908,-2.0910000801086426,3.4900500774383545
1772408511163218700,8.04821875,1.7290500402450562,1.5690001249313354,1.324950098991394
1772408511183280000,8.068280029296876,-1.0260000228881836,3.6060001850128174,1.2799500226974487
1772408511203342000,8.088342041015625,-2.8429501056671143,3.9130501747131348,2.02905011177063
1772408511223403800,8.10840380859375,-2.640000104904175,3.1180500984191895,2.5510501861572266
1772408511243465500,8.128465576171875,-0.3630000054836273,1.4490001201629639,2.647050142288208
1772408511263527200,8.148527099609375,2.7750000953674316,-0.5110500454902649,1.7710500955581665
1772408511283588900,8.1685888671875,5.239050388336182,-0.690000057220459,1.5739500522613525
1772408511303650800,8.18865087890625,5.758050441741943,0.13695000112056732,1.4550000429153442
1772408511323712500,8.20871240234375,4.219050407409668,0.6780000329017639,1.1220000982284546
1772408511343774000,8.22877392578125,2.0880000591278076,1.0870500802993774,0.7890000343322754
1772408511363836000,8.2488359375,0.17505000531673431,1.4610000848770142,0.9280500411987305
1772408511383897300,8.2688974609375,-0.6910500526428223,1.5180001258850098,0.6019500494003296
1772408511403959300,8.288959228515624,0.06495000422000885,1.1640000343322754,0.0690000057220459
1772408511424020700,8.309020751953126,2.3110501766204834,0.5029500126838684,-0.13905000686645508
1772408511444082700,8.329082763671876,3.919950246810913,-0.19005000591278076,0.04005000367760658
1772408511464144100,8.34914404296875,4.125,-1.4590500593185425,0.922950029373169
1772408511484206000,8.3692060546875,4.635000228881836,-5.119950294494629,2.2639501094818115
1772408511504267500,8.389267578125,8.076000213623047,-9.694950103759766,5.613000392913818
1772408511524329500,8.40932958984375,11.409000396728516,-14.131051063537598,13.347001075744629
1772408511544391000,8.429390869140626,14.725050926208496,-22.147050857543945,19.51905059814453
1772408511564452900,8.449452880859376,18.2989501953125,-28.69095230102539,20.395050048828125
1772408511584514300,8.469514404296875,18.622051239013672,-32.19300079345703,19.78995132446289
1772408511604576000,8.489575927734375,17.25,-30.060001373291016,17.332950592041016
1772408511624637700,8.5096376953125,14.860950469970703,-22.972951889038086,13.273050308227539
1772408511644699600,8.52969970703125,11.332050323486328,-14.377950668334961,9.504000663757324
1772408511664761000,8.549760986328126,7.6210503578186035,-6.7069501876831055,6.379950523376465
1772408511684823000,8.569822998046876,3.787950277328491,-0.9469500184059143,3.8370001316070557
1772408511704884500,8.589884521484375,0.27300000190734863,2.6800501346588135,2.427000045776367
1772408511724946400,8.609946533203125,-1.8520500659942627,3.9559502601623535,1.5769500732421875
1772408511745008000,8.630008056640625,-1.7749500274658203,3.391050100326538,1.3609501123428345
1772408511765069800,8.65006982421875,-0.17400000989437103,1.6360501050949097,0.9739500284194946
1772408511785131300,8.67013134765625,2.136000156402588,0.16095000505447388,0.34905001521110535
1772408511805193200,8.690193115234376,4.852950096130371,-0.3820500075817108,0.06599999964237213
1772408511825254700,8.710254638671875,6.204000473022461,0.27105000615119934,0.8250000476837158
1772408511845316400,8.73031640625,5.413050174713135,1.0849500894546509,1.1959500312805176
1772408511865378000,8.7503779296875,3.3540000915527344,1.324950098991394,1.171950101852417
1772408511885439700,8.770439697265624,1.5130500793457031,1.76295006275177,0.8680500388145447
1772408511905501200,8.790501220703124,0.5890500545501709,1.9609501361846924,0.8350500464439392
1772408511925563100,8.810563232421876,0.6109500527381897,1.8229501247406006,0.6019500494003296
1772408511945624600,8.83062451171875,1.6879501342773438,1.645050048828125,0.4249500334262848
1772408511965686500,8.8506865234375,3.4050002098083496,1.3680000305175781,0.4990500211715698
1772408511985748000,8.870748046875,3.739950180053711,0.5700000524520874,0.4129500091075897
1772408512005809700,8.8908095703125,4.507950305938721,-1.1020500659942627,0.6289500594139099
1772408512025871400,8.910871337890624,6.277950286865234,-4.459050178527832,1.821000099182129
1772408512045932800,8.930932861328126,9.141000747680664,-9.865050315856934,8.30505084991455
1772408512065994800,8.950994873046875,16.12995147705078,-15.348000526428223,12.928050994873047
1772408512086056200,8.97105615234375,21.213001251220703,-21.03900146484375,14.058000564575195
1772408512106118000,8.991117919921875,20.43000030517578,-25.849050521850586,17.94405174255371
1772408512126179600,9.0111796875,18.924001693725586,-27.87900161743164,18.58500099182129
1772408512146241000,9.031240966796876,18.33300018310547,-27.781051635742188,15.765000343322754
1772408512166302700,9.051302734375,16.46295166015625,-22.827001571655273,11.011950492858887
1772408512186364400,9.071364501953125,13.195050239562988,-14.859001159667969,7.801950454711914
1772408512206426000,9.091426025390625,8.812950134277344,-6.834000110626221,5.625000476837158
1772408512226487600,9.111487548828125,4.8319501876831055,-0.520050048828125,3.5659501552581787
1772408512246549500,9.131549560546874,1.603950023651123,3.289950132369995,2.0719501972198486
1772408512266611000,9.15161083984375,-0.5539500117301941,4.090050220489502,1.2799500226974487
1772408512286672600,9.171672607421876,-1.2630000114440918,3.063000202178955,1.2990000247955322
1772408512306734300,9.191734375,-0.1879500150680542,1.576050043106079,1.6699501276016235
1772408512326796000,9.211796142578125,1.6090500354766846,0.21405000984668732,1.3489500284194946
1772408512346857500,9.231857421875,2.751000165939331,0.2850000262260437,0.8110500574111938
1772408512366919200,9.251919189453124,3.3330001831054688,1.0200001001358032,1.0960500240325928
1772408512386980900,9.27198095703125,3.421950101852417,1.2690000534057617,0.9570000171661377
1772408512407042300,9.292042236328125,3.1440000534057617,1.072950005531311,0.6070500016212463
1772408512427104000,9.31210400390625,2.4970500469207764,1.1759999990463257,0.6430500149726868
1772408512447165700,9.332165771484375,1.984950065612793,1.0950000286102295,0.8059500455856323
1772408512467227400,9.352227294921875,2.0329501628875732,0.8740500211715698,0.3769500255584717
1772408512487288800,9.372288818359374,2.6050500869750977,0.690000057220459,0.46605002880096436
1772408512507350500,9.3923505859375,3.8520002365112305,0.31200000643730164,1.062000036239624
1772408512527412200,9.412412109375,5.430000305175781,-1.0969500541687012,0.6460500359535217
1772408512547473700,9.4324736328125,7.73805046081543,-2.0460000038146973,1.0860000848770142
1772408512567535600,9.45253564453125,10.195050239562988,-3.5710501670837402,4.717950344085693
1772408512587597000,9.47259716796875,13.563000679016113,-7.243050575256348,9.133049964904785
1772408512607658500,9.492658447265624,19.015050888061523,-10.794000625610352,11.95305061340332
1772408512627720200,9.51272021484375,19.687950134277344,-15.084000587463379,15.178050994873047
1772408512647782000,9.532781982421875,18.796951293945312,-18.336000442504883,18.196950912475586
1772408512667843600,9.552843505859375,17.985000610351562,-21.790950775146484,21.070051193237305
1772408512687905000,9.572905029296875,15.571950912475586,-22.30500030517578,20.572050094604492
1772408512707966700,9.592966796875,15.31095027923584,-19.143001556396484,17.091001510620117
1772408512728028200,9.613028076171876,15.840001106262207,-14.287050247192383,13.533000946044922
1772408512748090000,9.633090087890626,14.173951148986816,-9.943950653076172,10.129050254821777
1772408512768151600,9.653151611328125,10.13700008392334,-5.704050064086914,5.740050315856934
1772408512788213200,9.673213134765625,4.863000392913818,-1.3420500755310059,2.8980002403259277
1772408512808274700,9.693274658203125,1.755000114440918,0.45795002579689026,1.078950047492981
1772408512828336400,9.71333642578125,1.081950068473816,0.2639999985694885,-0.7300500273704529
1772408512848398000,9.733398193359376,0.08400000631809235,0.6280500292778015,-0.895050048828125
1772408512868459500,9.75345947265625,0.4720500111579895,-0.11595000326633453,-0.04305000230669975
1772408512888521200,9.773521240234375,0.970050036907196,-0.6829500198364258,-0.07200000435113907
1772408512908582700,9.793582763671875,0.2970000207424164,-0.4510500133037567,0.31005001068115234
1772408512928644400,9.813644287109375,0.012000000104308128,-0.2740500271320343,0.33195000886917114
1772408512948706000,9.8337060546875,1.8769501447677612,-0.9010500311851501,-0.40905001759529114
