time,seconds_elapsed,z,y,x
1772645757442928000,0.05092822265625,0.13089999556541443,-0.05884999781847,0.16279999911785126
1772645757462991000,0.0709912109375,0.09569999575614929,-0.011962499469518661,0.1297999918460846
1772645757483053800,0.0910537109375,0.07644999772310257,0.020075000822544098,0.09033749997615814
1772645757503116800,0.11111669921875,0.0775500014424324,0.023237500339746475,0.009349999949336052
1772645757523179500,0.131179443359375,0.0882750004529953,0.14464999735355377,-0.08428750187158585
1772645757543242200,0.1512421875,0.11591249704360962,0.2512125074863434,-0.06091250106692314
1772645757563305000,0.171304931640625,0.17132499814033508,0.18411250412464142,0.04455000162124634
1772645757583368000,0.191367919921875,0.1989624947309494,0.07218749821186066,-0.022549999877810478
1772645757603431000,0.211430908203125,0.22453749179840088,0.26922500133514404,-0.23663750290870667
1772645757623493600,0.23149365234375,0.305525004863739,1.042662501335144,-0.3997125029563904
1772645757643556400,0.251556396484375,0.11055000126361847,1.3303124904632568,-0.2536875009536743
1772645757663619000,0.271619140625,0.011549999937415123,0.5366625189781189,0.1681624948978424
1772645757683682000,0.29168212890625,0.027499999850988388,-0.671412467956543,0.571862518787384
1772645757703744800,0.311744873046875,0.19043749570846558,-1.6055874824523926,0.9212499856948853
1772645757723807500,0.331807373046875,0.30016249418258667,-1.7642624378204346,1.2205874919891357
1772645757743870500,0.351870361328125,0.24158750474452972,-1.5800124406814575,1.1034375429153442
1772645757763933200,0.37193310546875,0.3737249970436096,-1.4426499605178833,0.3620375096797943
1772645757783996000,0.391995849609375,0.08181250095367432,-1.0591624975204468,-0.9706124663352966
1772645757804059000,0.412058837890625,-0.3218874931335449,-0.5702124834060669,-1.562962532043457
1772645757824121600,0.43212158203125,-0.2952125072479248,-0.014024999924004078,-1.0984874963760376
1772645757844184300,0.452184326171875,0.025437500327825546,0.1691250056028366,-0.4614500105381012
1772645757864247000,0.4722470703125,0.4259749948978424,0.6399250030517578,-0.26551249623298645
1772645757884309800,0.492309814453125,0.7518500089645386,1.216325044631958,-0.18548749387264252
1772645757904372500,0.51237255859375,0.792412519454956,0.9223499894142151,0.020075000822544098
1772645757924435700,0.532435791015625,0.5132874846458435,0.2032250016927719,0.1681624948978424
1772645757944498400,0.55249853515625,0.14368750154972076,-0.23141250014305115,0.13612499833106995
1772645757964561200,0.57256103515625,-0.09707500040531158,-0.2899875044822693,-0.018287500366568565
1772645757984623900,0.592623779296875,-0.26221248507499695,-0.18988749384880066,-0.2217874974012375
1772645758004686800,0.612686767578125,-0.25905001163482666,0.16596250236034393,-0.32615000009536743
1772645758024749600,0.63274951171875,-0.17806249856948853,0.3704249858856201,-0.29205000400543213
1772645758044812300,0.652812255859375,-0.089649997651577,0.23086249828338623,-0.11096250265836716
1772645758064875000,0.672875,0.10532499849796295,-0.09391249716281891,0.28847500681877136
1772645758084938000,0.69293798828125,0.3577750027179718,-0.5850625038146973,0.6528499722480774
1772645758105000700,0.713000732421875,0.4973374903202057,-0.5989499688148499,0.7891125082969666
1772645758125063700,0.733063720703125,-0.0012374999932944775,0.8573125004768372,0.30016249418258667
1772645758145126400,0.75312646484375,-1.5916999578475952,0.9446250200271606,0.22453749179840088
1772645758165189000,0.773189208984375,-0.9216625094413757,-0.6586250066757202,0.39077499508857727
1772645758185251800,0.793251953125,0.5889124870300293,-1.1741124391555786,0.8051999807357788
1772645758205314800,0.813314697265625,1.0832250118255615,-1.3585000038146973,1.1598124504089355
1772645758225377800,0.833377685546875,0.24584999680519104,-0.7235249876976013,0.3044250011444092
1772645758245440500,0.8534404296875,-0.23237499594688416,-0.47533750534057617,-1.0239624977111816
1772645758265503200,0.873503173828125,0.03712499886751175,-0.3059374988079071,-1.4702874422073364
1772645758285566000,0.89356591796875,0.38967499136924744,0.18301250040531158,-0.9174000024795532
1772645758305629000,0.91362890625,0.6506500244140625,0.7433249950408936,-0.28036248683929443
1772645758325691600,0.933691650390625,0.7177500128746033,0.8200500011444092,-0.17806249856948853
1772645758345754400,0.95375439453125,0.6901124715805054,0.9937124848365784,-0.4614500105381012
1772645758365817300,0.9738173828125,0.6506500244140625,0.8541499972343445,-0.37193748354911804
1772645758385880300,0.99388037109375,0.6017000079154968,0.328900009393692,-0.09817499667406082
1772645758405943000,1.013943115234375,0.3470500111579895,0.08923749625682831,0.015812499448657036
1772645758426005800,1.034005859375,-0.00976249948143959,0.15427500009536743,0.05843750014901161
1772645758446068700,1.05406884765625,-0.2153249979019165,0.41304999589920044,-0.19511249661445618
1772645758466131500,1.07413134765625,-0.2994749844074249,0.5781875252723694,-0.467912495136261
1772645758486194200,1.094194091796875,-0.279262512922287,0.4545750021934509,-0.41346248984336853
1772645758506257000,1.1142568359375,-0.09281250089406967,0.16596250236034393,-0.03849999979138374
1772645758526319900,1.13431982421875,0.20116250216960907,-0.08868750184774399,0.3993000090122223
1772645758546382600,1.154382568359375,0.3492499887943268,-0.28036248683929443,0.37152498960494995
1772645758566445600,1.174445556640625,0.09569999575614929,0.045512501150369644,-0.24199999868869781
1772645758586508300,1.19450830078125,-0.7596874833106995,0.5931749939918518,-0.7596874833106995
1772645758606571000,1.214571044921875,-1.6183749437332153,-1.4756499528884888,0.01691249944269657
1772645758626634000,1.234634033203125,-0.652162492275238,-2.508962392807007,0.6283749938011169
1772645758646697000,1.254697021484375,0.23100000619888306,-1.6801124811172485,0.6676999926567078
1772645758666759700,1.274759765625,0.5900124907493591,-1.611912488937378,0.9616749882698059
1772645758686822400,1.294822509765625,0.5388625264167786,-1.0441750288009644,0.5952374935150146
1772645758706885000,1.314885009765625,0.2320999950170517,-0.06627500057220459,-0.3335750102996826
1772645758726948000,1.334947998046875,0.11701250076293945,0.5952374935150146,-0.8599249720573425
1772645758747011000,1.355010986328125,0.21285000443458557,0.8370999693870544,-0.6542249917984009
1772645758767073800,1.37507373046875,0.3119874894618988,0.7742624878883362,-0.3207874894142151
1772645758787136500,1.395136474609375,0.25437501072883606,0.6995999813079834,-0.3102000057697296
1772645758807199500,1.415199462890625,0.14794999361038208,0.5377625226974487,-0.10779999941587448
1772645758827262200,1.43526220703125,0.1266375035047531,0.4503124952316284,0.27252501249313354
1772645758847325200,1.4553251953125,0.13296249508857727,0.4258374869823456,0.6315374970436096
1772645758867388000,1.475387939453125,0.12333749979734421,0.2404875010251999,0.767799973487854
1772645758887450600,1.49545068359375,-0.04496249929070473,0.07328750193119049,0.3353624939918518
1772645758907513300,1.515513427734375,-0.3293125033378601,0.28421249985694885,-0.1845249980688095
1772645758927576300,1.535576416015625,-0.4763000011444092,0.6282374858856201,-0.2601499855518341
1772645758947639000,1.55563916015625,-0.4156624972820282,0.776324987411499,-0.2675749957561493
1772645758967701800,1.57570166015625,-0.20473749935626984,0.5600374937057495,-0.11948750168085098
1772645758987764700,1.5957646484375,0.004124999977648258,0.08607500046491623,0.24901250004768372
1772645759007827500,1.615827392578125,0.12127500027418137,-0.23567499220371246,0.5931749939918518
1772645759027890400,1.635890380859375,0.06696250289678574,-0.11948750168085098,0.5739250183105469
1772645759047953200,1.655953125,-0.19511249661445618,0.6708624958992004,-0.09281250089406967
1772645759068016000,1.67601611328125,-1.0239624977111816,1.0192874670028687,-0.41346248984336853
1772645759088078800,1.696078857421875,-0.8151000142097473,0.15523749589920044,0.23526249825954437
1772645759108141800,1.716141845703125,0.027499999850988388,-0.5403749942779541,0.8850874900817871
1772645759128204500,1.73620458984375,0.7987374663352966,-1.5757499933242798,1.1609125137329102
1772645759148267300,1.756267333984375,0.5792874693870544,-1.4702874422073364,0.8350374698638916
1772645759168330200,1.776330322265625,0.1522125005722046,-1.1166374683380127,0.027499999850988388
1772645759188393200,1.796393310546875,0.11481250077486038,-0.3806000053882599,-0.6106374859809875
1772645759208456000,1.8164560546875,0.21821250021457672,-0.06943749636411667,-1.1016499996185303
1772645759228518700,1.8365185546875,0.3918749988079071,0.07535000145435333,-1.3776124715805054
1772645759248581600,1.85658154296875,0.43876248598098755,0.1915374994277954,-1.1016499996185303
1772645759268644400,1.876644287109375,0.44618749618530273,0.12127500027418137,-0.5168625116348267
1772645759288707300,1.896707275390625,0.583549976348877,-0.0002749999985098839,0.020075000822544098
1772645759308770000,1.91677001953125,0.6389625072479248,-0.06091250106692314,0.2437874972820282
1772645759328832800,1.936832763671875,0.5527499914169312,-0.2143625020980835,0.22673749923706055
1772645759348895700,1.956895751953125,0.29809999465942383,-0.37950000166893005,0.08181250095367432
1772645759368958700,1.976958740234375,0.026399999856948853,-0.38472500443458557,-0.07479999959468842
1772645759389021400,1.997021484375,-0.14079999923706055,-0.030112499371170998,-0.30277499556541443
1772645759409084200,2.017084228515625,-0.22288750112056732,0.4866124987602234,-0.4955500066280365
1772645759429147100,2.037147216796875,-0.21752500534057617,0.6910749673843384,-0.3676750063896179
1772645759449209900,2.0572099609375,-0.17379999160766602,0.35983750224113464,0.03396249935030937
1772645759469272600,2.0772724609375,-0.16637499630451202,-0.23457500338554382,0.48881250619888306
1772645759489335600,2.09733544921875,-0.1311749964952469,-0.8417750000953674,0.7742624878883362
1772645759509398300,2.117398193359375,-0.09281250089406967,-0.6489999890327454,0.3620375096797943
1772645759529461000,2.1374609375,-0.5935875177383423,-0.04179999977350235,-0.19827499985694885
1772645759549524000,2.15752392578125,-0.9290875196456909,-0.6297500133514404,-0.022549999877810478
1772645759569587000,2.1775869140625,-0.2579500079154968,-0.5318499803543091,0.0999625027179718
1772645759589649700,2.197649658203125,0.1414874941110611,-0.854562520980835,0.7987374663352966
1772645759609712600,2.217712646484375,0.7401624917984009,-1.1101750135421753,1.5358749628067017
1772645759629775400,2.237775390625,0.5335000157356262,-0.202674999833107,1.1140249967575073
1772645759649838000,2.257838134765625,0.2639999985694885,0.3694624900817871,-0.14300000667572021
1772645759669901000,2.277901123046875,0.08071249723434448,1.2131625413894653,-1.5405499935150146
1772645759689963800,2.2979638671875,-0.022549999877810478,1.4101999998092651,-1.8623000383377075
1772645759710026800,2.31802685546875,0.17242500185966492,1.1512874364852905,-1.122962474822998
1772645759730089500,2.33808935546875,0.3768875002861023,1.1140249967575073,-0.16747500002384186
1772645759750152400,2.35815234375,0.48881250619888306,0.895675003528595,0.5995000004768372
1772645759770215200,2.378215087890625,0.5590749979019165,0.23086249828338623,0.9436625242233276
1772645759790278100,2.398278076171875,0.4259749948978424,-0.10037499666213989,0.5622375011444092
1772645759810340900,2.4183408203125,0.17132499814033508,-0.16005000472068787,0.34168750047683716
1772645759830403800,2.43840380859375,-0.04496249929070473,-0.3730374872684479,0.26826250553131104
1772645759850466800,2.458466796875,-0.11316250264644623,-0.2633124887943268,0.047712501138448715
1772645759870529500,2.478529541015625,-0.12058749794960022,0.2287999987602234,-0.3676750063896179
1772645759890592300,2.49859228515625,-0.19304999709129333,0.5963374972343445,-0.6777374744415283
1772645759910655000,2.518655029296875,-0.27293750643730164,0.35337498784065247,-0.5444999933242798
1772645759930718000,2.538718017578125,-0.22384999692440033,-0.18878750503063202,-0.08112499862909317
1772645759950781000,2.558781005859375,-0.09707500040531158,-0.43697500228881836,0.13296249508857727
1772645759970843600,2.57884375,-0.20253749191761017,0.017875000834465027,-0.09281250089406967
1772645759990906400,2.59890625,-0.6265875101089478,1.216325044631958,-0.5765374898910522
1772645760010969300,2.61896923828125,-1.5586999654769897,2.0546624660491943,-0.6478999853134155
1772645760031032000,2.639031982421875,-1.2082124948501587,0.8626750111579895,0.20652499794960022
1772645760051095000,2.659094970703125,0.007287499960511923,-0.8705124855041504,1.2333749532699585
1772645760071157800,2.67915771484375,0.7475875020027161,-1.7675625085830688,1.549762487411499
1772645760091220700,2.699220703125,0.37798750400543213,-1.012274980545044,1.007599949836731
1772645760111283500,2.719283447265625,-0.10353749990463257,-0.7757750153541565,0.07864999771118164
1772645760131346200,2.73934619140625,-0.1237500011920929,-1.0100749731063843,-0.5945500135421753
1772645760151409200,2.7594091796875,-0.15358750522136688,-1.114437460899353,-0.9185000061988831
1772645760171472000,2.779471923828125,0.08401250094175339,-0.3922874927520752,-0.5339124798774719
1772645760191534600,2.79953466796875,0.6912124752998352,0.7464874982833862,0.0882750004529953
1772645760211597600,2.81959765625,1.1492249965667725,1.5795999765396118,0.06476250290870667
1772645760231660300,2.839660400390625,1.173699975013733,1.3100999593734741,0.14891250431537628
1772645760251723000,2.859722900390625,0.895675003528595,0.4801499843597412,0.6762250065803528
1772645760271785700,2.87978564453125,0.5186499953269958,-0.082225002348423,1.1130625009536743
1772645760291848700,2.8998486328125,0.259737491607666,-0.5253875255584717,1.1620124578475952
1772645760311911700,2.91991162109375,-0.035337500274181366,-0.8471375107765198,0.8115249872207642
1772645760331974400,2.939974365234375,-0.22288750112056732,-0.9717124700546265,0.3928374946117401
1772645760352037000,2.960037109375,-0.2525874972343445,-0.7607874870300293,0.1223749965429306
1772645760372100000,2.98010009765625,-0.1578499972820282,-0.4614500105381012,0.07975000143051147
1772645760392162800,3.000162841796875,-0.02681249938905239,-0.3806000053882599,0.2671625018119812
1772645760412225800,3.020225830078125,0.0658624991774559,-0.3698749840259552,0.41318750381469727
1772645760432288500,3.04028857421875,0.11481250077486038,-0.3741374909877777,0.4217124879360199
1772645760452351500,3.0603515625,0.05197500064969063,-0.059950001537799835,0.08291249722242355
1772645760472414200,3.080414306640625,-0.4295499920845032,1.006500005722046,-0.2644124925136566
1772645760492477000,3.100476806640625,-1.4595625400543213,1.3281124830245972,0.08607500046491623
1772645760512539600,3.12053955078125,-1.2816375494003296,-0.20473749935626984,1.4932500123977661
1772645760532602600,3.1406025390625,-0.5424374938011169,-0.6254875063896179,2.031287431716919
1772645760552665300,3.160665283203125,0.5335000157356262,-0.21642500162124634,1.4889874458312988
1772645760572728300,3.180728271484375,0.7039999961853027,-0.2666124999523163,0.9724000096321106
1772645760592791000,3.200791015625,0.29493749141693115,-0.9205625057220459,0.5451874732971191
1772645760612853800,3.220853759765625,-0.022549999877810478,-1.1976250410079956,-0.13227500021457672
1772645760632916500,3.24091650390625,-0.1578499972820282,-1.0921624898910522,-0.26124998927116394
1772645760652979500,3.2609794921875,0.06379999965429306,-0.3763374984264374,0.683650016784668
1772645760673042200,3.281042236328125,0.2938374876976013,0.25011250376701355,1.5508625507354736
1772645760693105200,3.301105224609375,0.4311999976634979,0.2106499969959259,1.4889874458312988
1772645760713168000,3.32116796875,0.45787498354911804,0.021037500351667404,0.866937518119812
1772645760733230600,3.341230712890625,0.341825008392334,0.18191249668598175,0.3119874894618988
1772645760753293300,3.361293212890625,0.20652499794960022,0.1264999955892563,0.319412499666214
1772645760773356300,3.381356201171875,0.0541750006377697,-0.172837495803833,0.5218124985694885
1772645760793419000,3.4014189453125,-0.1163249984383583,-0.3772999942302704,0.563337504863739
1772645760813481700,3.421481689453125,-0.31130000948905945,-0.3741374909877777,0.27678748965263367
1772645760833544700,3.441544677734375,-0.42625001072883606,0.0008249999955296516,-0.3676750063896179
1772645760853607700,3.461607666015625,-0.4071374833583832,0.16596250236034393,-0.6456999778747559
1772645760873670100,3.481670166015625,-0.18658749759197235,0.05829999968409538,-0.3335750102996826
1772645760893733000,3.501733154296875,0.09886249899864197,-0.20047499239444733,0.12553749978542328
1772645760913795800,3.5217958984375,0.1872749924659729,-0.26977500319480896,0.3726249933242798
1772645760933858800,3.54185888671875,0.03918749839067459,-0.08016250282526016,0.296999990940094
1772645760953921500,3.561921630859375,-0.1621125042438507,1.0000375509262085,-0.5328124761581421
1772645760973984300,3.581984375,-1.1453750133514404,1.7957500219345093,-1.4052499532699585
1772645760994047200,3.602047119140625,-1.1197999715805054,1.0224499702453613,-0.8406749963760376
1772645761014109700,3.622109619140625,-0.27390000224113464,-0.09184999763965607,0.20542499423027039
1772645761034172700,3.642172607421875,0.40988749265670776,-0.28888750076293945,0.9649749994277954
1772645761054235400,3.6622353515625,0.22783750295639038,-0.21326249837875366,0.8626750111579895
1772645761074298000,3.682298095703125,0.1457500010728836,-0.2857249975204468,-0.07479999959468842
1772645761094360800,3.70236083984375,0.16596250236034393,-0.20157499611377716,-0.9227625131607056
1772645761114423800,3.722423828125,-0.015124999918043613,-0.26977500319480896,-0.9568625092506409
1772645761134486500,3.742486572265625,0.09679999947547913,-0.20363749563694,-0.1504250019788742
1772645761154549500,3.762549560546875,0.4515500068664551,0.14354999363422394,0.3438875079154968
1772645761174612000,3.782612060546875,0.729574978351593,0.3917374908924103,0.2330625057220459
1772645761194675000,3.802675048828125,0.7688999772071838,0.30662500858306885,-0.018287500366568565
1772645761214737700,3.822737548828125,0.7262749671936035,0.0849749967455864,0.1223749965429306
1772645761234800600,3.842800537109375,0.5707625150680542,0.027499999850988388,0.42061248421669006
1772645761254863400,3.86286328125,0.34814998507499695,0.02956249937415123,0.4749250113964081
1772645761274926000,3.882926025390625,0.2363625019788742,0.07218749821186066,0.09143749624490738
1772645761294988800,3.90298876953125,0.19470000267028809,0.28847500681877136,-0.6148999929428101
1772645761315051500,3.923051513671875,0.08923749625682831,0.4684624969959259,-0.8534625172615051
1772645761335114200,3.9431142578125,-0.22068749368190765,0.40562498569488525,-0.46035000681877136
1772645761355177200,3.96317724609375,-0.559487521648407,-0.06627500057220459,0.36629998683929443
1772645761375240000,3.983239990234375,-0.5796999931335449,-0.9418749809265137,0.9948124885559082
1772645761395302700,4.003302734375,-0.36877501010894775,-1.6439499855041504,1.0213500261306763
1772645761415365600,4.02336572265625,-0.048124998807907104,-1.8271000385284424,0.7028999924659729
1772645761435428400,4.043428466796875,0.41318750381469727,-1.7334624528884888,0.5559124946594238
1772645761455491000,4.063490966796875,0.8680375218391418,-1.4234000444412231,0.4641999900341034
1772645761475553800,4.0835537109375,0.14464999735355377,-0.26124998927116394,-0.7192624807357788
1772645761495616500,4.103616455078125,-0.15248750150203705,0.08607500046491623,-0.763949990272522
1772645761515679500,4.123679443359375,-0.06201250106096268,-0.3763374984264374,0.32573750615119934
1772645761535742200,4.1437421875,0.22027499973773956,-0.1611499935388565,0.44618749618530273
1772645761555805000,4.163804931640625,0.4152500033378601,0.16376249492168427,-0.6627500057220459
1772645761575867600,4.18386767578125,0.46213749051094055,1.0022374391555786,-1.511812448501587
1772645761595930400,4.203930419921875,0.24584999680519104,1.7606874704360962,-1.1815375089645386
1772645761615993300,4.223993408203125,0.036024998873472214,1.7447375059127808,-0.03217500075697899
1772645761636056000,4.24405615234375,0.07864999771118164,1.4048374891281128,0.7475875020027161
1772645761656118800,4.264118896484375,0.22027499973773956,0.9989374876022339,0.8094624876976013
1772645761676181500,4.284181396484375,0.3993000090122223,0.7242124676704407,0.5516499876976013
1772645761696244200,4.304244140625,0.3993000090122223,0.4460499882698059,0.4610374867916107
1772645761716307200,4.32430712890625,0.21821250021457672,-0.11426249891519547,0.6070625185966492
1772645761736369700,4.34436962890625,0.1223749965429306,-0.7107374668121338,0.5153499841690063
1772645761756432600,4.3644326171875,0.16706250607967377,-0.7522624731063843,0.030662499368190765
1772645761776495400,4.384495361328125,0.2287999987602234,-0.4562250077724457,-0.5498625040054321
1772645761796558000,4.40455810546875,0.2788499891757965,-0.1611499935388565,-0.8523625135421753
1772645761816620800,4.424620849609375,0.2938374876976013,-0.015124999918043613,-0.6766374707221985
1772645761836683500,4.44468359375,0.32257500290870667,-0.016224998980760574,-0.219587504863739
1772645761856746500,4.46474658203125,0.31088748574256897,-0.05238749831914902,0.05939999967813492
1772645761876809200,4.484809326171875,0.09569999575614929,0.2714250087738037,0.09459999948740005
1772645761896872000,4.504871826171875,-0.6106374859809875,1.2854875326156616,-0.3667125105857849
1772645761916934700,4.5249345703125,-1.6332249641418457,1.0736000537872314,-0.491287499666214
1772645761936997400,4.544997314453125,-1.4564000368118286,-0.5264874696731567,0.14464999735355377
1772645761957060400,4.565060302734375,-0.772475004196167,-2.388512372970581,0.7369999885559082
1772645761977122800,4.585122802734375,-0.3133625090122223,-1.796299934387207,0.9010375142097473
1772645761997185500,4.605185546875,-0.07906249910593033,-0.7149999737739563,0.5335000157356262
1772645762017248300,4.625248291015625,0.2671625018119812,-0.10779999941587448,-0.18878750503063202
1772645762037311000,4.64531103515625,0.2639999985694885,0.028462499380111694,-0.6553249955177307
1772645762057374000,4.6653740234375,0.06476250290870667,0.0317624993622303,-0.4763000011444092
1772645762077436700,4.685436767578125,-0.002337499987334013,0.4141499996185303,0.1073874980211258
1772645762097499400,4.70549951171875,0.08923749625682831,0.8892124891281128,0.6283749938011169
1772645762117562000,4.72556201171875,0.32573750615119934,0.8892124891281128,0.8573125004768372
1772645762137624800,4.745624755859375,0.4643374979496002,0.6399250030517578,0.8307750225067139
1772645762157687600,4.7656875,0.4482499957084656,0.46213749051094055,0.6549124717712402
1772645762177750500,4.78575048828125,0.17668749392032623,0.32257500290870667,0.27994999289512634
1772645762197813000,4.80581298828125,-0.19827499985694885,0.320374995470047,-0.16005000472068787
1772645762217875700,4.825875732421875,-0.3665750026702881,0.4248749911785126,-0.491287499666214
1772645762237938400,4.8459384765625,-0.31556248664855957,0.49720001220703125,-0.762987494468689
1772645762258001200,4.866001220703125,-0.16417500376701355,0.5292375087738037,-0.8694124817848206
1772645762278063900,4.88606396484375,-0.09501250088214874,0.34911251068115234,-0.8054749965667725
1772645762298126600,4.906126708984375,0.026399999856948853,0.060499999672174454,-0.5242875218391418
1772645762318189300,4.926189208984375,0.17765000462532043,-0.14300000667572021,-0.1812250018119812
1772645762338252300,4.946252197265625,0.1116499975323677,-0.07163749635219574,-0.1919499933719635
1772645762358315000,4.96631494140625,-0.36451250314712524,1.007462501525879,-0.7906249761581421
1772645762378377500,4.98637744140625,-1.1837375164031982,0.9488874673843384,-0.7203624844551086
1772645762398440200,5.006440185546875,-0.6723750233650208,0.17338749766349792,-0.15468749403953552
1772645762418503000,5.0265029296875,-0.27073749899864197,-1.6152124404907227,0.34072500467300415
1772645762438566000,5.04656591796875,0.07328750193119049,-2.2010998725891113,0.5952374935150146
1772645762458628400,5.06662841796875,-0.12691250443458557,-1.7258999347686768,0.5963374972343445
1772645762478691000,5.086691162109375,-0.1428624987602234,-0.7618874907493591,0.09033749997615814
1772645762498753800,5.10675390625,-0.03849999979138374,0.0658624991774559,-0.8779374957084656
1772645762518816500,5.12681640625,-0.1013374999165535,-0.13021250069141388,-1.4350874423980713
1772645762538879200,5.146879150390625,0.08607500046491623,-0.3123999834060669,-1.095324993133545
1772645762558942000,5.16694189453125,0.3396250009536743,0.39393749833106995,-0.3932499885559082
1772645762579004700,5.187004638671875,0.526075005531311,1.0011374950408936,-0.12058749794960022
1772645762599067400,5.2070673828125,0.64638751745224,0.822112500667572,-0.16843749582767487
1772645762619130000,5.227130126953125,0.4982999861240387,0.5952374935150146,-0.03959999978542328
1772645762639192800,5.24719287109375,0.3279374837875366,0.35337498784065247,0.4291374981403351
1772645762659255600,5.267255615234375,0.15853749215602875,0.04124999791383743,0.6335999965667725
1772645762679318000,5.287318115234375,-0.10670000314712524,-0.13653749227523804,0.38651248812675476
1772645762699381000,5.307381103515625,-0.27073749899864197,0.1798499971628189,-0.08855000138282776
1772645762719443700,5.327443603515625,-0.3634124994277954,0.6037625074386597,-0.24736249446868896
1772645762739506400,5.34750634765625,-0.454025000333786,0.5409250259399414,-0.05238749831914902
1772645762759569000,5.36756884765625,-0.40603750944137573,0.24268749356269836,0.26510000228881836
1772645762779631600,5.387631591796875,-0.31872498989105225,-0.24736249446868896,0.6485875248908997
1772645762799694300,5.4076943359375,-0.2451625019311905,-0.8695499897003174,0.9766625165939331
1772645762819757000,5.427757080078125,-0.24626250565052032,-1.185937523841858,0.9735000133514404
1772645762839819800,5.44781982421875,-0.28146249055862427,-1.2402499914169312,0.7507500052452087
1772645762859882500,5.467882568359375,-0.24736249446868896,-0.8556625247001648,0.3077250123023987
1772645762879945200,5.4879453125,-0.8597875237464905,-0.30703750252723694,-0.0672374963760376
1772645762900008000,5.508008056640625,-0.7522624731063843,-0.004537499975413084,0.33219999074935913
1772645762920070400,5.5280703125,-0.07479999959468842,0.02213750034570694,0.8945749998092651
1772645762940133000,5.548133056640625,0.5303375124931335,0.23842500150203705,1.2483625411987305
1772645762960196000,5.568196044921875,0.4450874924659729,0.045512501150369644,1.2600499391555786
1772645762980258600,5.588258544921875,0.13186250627040863,-0.18232500553131104,0.841362476348877
1772645763000321300,5.6083212890625,-0.07576250284910202,-0.4295499920845032,0.15633749961853027
1772645763020384000,5.628384033203125,-0.23980000615119934,-0.5520625114440918,-0.3634124994277954
1772645763040446700,5.64844677734375,-0.3144625127315521,-0.06627500057220459,-0.5541250109672546
1772645763060509200,5.66850927734375,-0.2079000025987625,0.35241249203681946,-0.5658124685287476
1772645763080572000,5.688572021484375,-0.082225002348423,0.20858749747276306,-0.4838624894618988
1772645763100635000,5.708634765625,-0.025712499395012856,-0.07906249910593033,-0.3293125033378601
1772645763120697300,5.728697265625,0.07548750191926956,-0.21546250581741333,-0.24626250565052032
1772645763140760000,5.748760009765625,0.2139499932527542,-0.18342499434947968,0.0008249999955296516
1772645763160822800,5.76882275390625,0.3620375096797943,-0.03863750025629997,0.4493499994277954
1772645763180885500,5.788885498046875,0.5047624707221985,-0.025849999859929085,0.767799973487854
1772645763200948000,5.808947998046875,0.5942749977111816,-0.06311249732971191,0.6080250144004822
1772645763221010700,5.8290107421875,0.3993000090122223,0.10092499852180481,0.2788499891757965
1772645763241073400,5.849073486328125,-0.0672374963760376,0.46736249327659607,-0.07479999959468842
1772645763261136100,5.86913623046875,-0.3665750026702881,0.5302000045776367,-0.004399999976158142
1772645763281198600,5.889198486328125,-0.35804998874664307,0.3320625126361847,0.4760249853134155
1772645763301261300,5.90926123046875,-0.26963749527931213,0.1190750002861023,1.042662501335144
1772645763321324000,5.929323974609375,-0.10037499666213989,0.10312499850988388,1.393149971961975
1772645763341386800,5.94938671875,0.03396249935030937,0.09776250272989273,1.0352375507354736
1772645763361449200,5.96944921875,0.1340624988079071,0.18617500364780426,0.053075000643730164
1772645763381512000,5.989511962890625,-0.36877501010894775,2.1569623947143555,-1.388200044631958
1772645763401574700,6.00957470703125,-1.4819749593734741,2.706549882888794,-1.527762532234192
1772645763421637000,6.02963720703125,-1.121862530708313,-0.03959999978542328,0.16279999911785126
1772645763441699800,6.049699951171875,-0.12484999746084213,-1.5789124965667725,1.475237488746643
1772645763461762600,6.069762451171875,0.3012624979019165,-1.9666625261306763,1.3622125387191772
1772645763481825300,6.0898251953125,0.1872749924659729,-1.453237533569336,0.17132499814033508
1772645763501888000,6.109887939453125,-0.029975000768899918,-0.7501999735832214,-1.0899624824523926
1772645763521950500,6.129950439453125,-0.08112499862909317,-0.29315000772476196,-0.9440749883651733
1772645763542013200,6.15001318359375,0.06270000338554382,-0.0034374999813735485,0.11055000126361847
1772645763562075600,6.17007568359375,0.1755875051021576,-0.015124999918043613,0.7572125196456909
1772645763582138400,6.190138427734375,0.12127500027418137,-0.44013750553131104,0.6059625148773193
1772645763602201000,6.210201171875,-0.04592499881982803,-0.6510624885559082,-0.1504250019788742
1772645763622263600,6.230263671875,-0.05555000156164169,-0.3176249861717224,-0.7320500016212463
1772645763642326300,6.250326171875,0.0849749967455864,0.1264999955892563,-0.7107374668121338
1772645763662389000,6.270388916015625,0.09569999575614929,0.2106499969959259,-0.3624500036239624
1772645763682451500,6.290451416015625,-0.07259999960660934,0.17132499814033508,0.0019249999895691872
1772645763702514200,6.31051416015625,-0.23457500338554382,0.017875000834465027,0.22990000247955322
1772645763722577000,6.330576904296875,-0.25478750467300415,-0.023649999871850014,0.04455000162124634
1772645763742639400,6.350639404296875,-0.18658749759197235,0.25011250376701355,-0.20363749563694
1772645763762702000,6.3707021484375,-0.16637499630451202,0.334262490272522,-0.00976249948143959
1772645763782764800,6.390764892578125,-0.20583750307559967,0.11701250076293945,0.3630000054836273
1772645763802827300,6.4108271484375,-0.1621125042438507,-0.11426249891519547,0.2810499966144562
1772645763822890000,6.430889892578125,-0.008662499487400055,-0.00976249948143959,0.0849749967455864
1772645763842952700,6.45095263671875,0.5016000270843506,0.7870500087738037,-0.22288750112056732
1772645763863015400,6.471015380859375,0.41635000705718994,1.7447375059127808,-1.1635249853134155
1772645763883078000,6.491077880859375,-0.5200250148773193,0.8115249872207642,-1.2178374528884888
1772645763903140600,6.511140625,-0.6297500133514404,-0.6117374897003174,0.18837499618530273
1772645763923203000,6.531203125,-0.3623124957084656,-1.0175000429153442,1.1034375429153442
1772645763943265800,6.551265869140625,-0.13859999179840088,-0.7863624691963196,0.6964374780654907
1772645763963328300,6.571328369140625,-0.02681249938905239,-0.10037499666213989,-0.38266250491142273
1772645763983391000,6.591390869140625,-0.11838749796152115,-0.21326249837875366,-0.9674500226974487
1772645764003453700,6.61145361328125,-0.08758749812841415,-0.22288750112056732,-0.46254998445510864
1772645764023516200,6.63151611328125,0.09679999947547913,0.5622375011444092,0.2853125035762787
1772645764043579000,6.651578857421875,0.20432500541210175,1.1523874998092651,0.3928374946117401
1772645764063641300,6.671641357421875,0.15001249313354492,1.0394999980926514,0.1989624947309494
1772645764083704000,6.6917041015625,-0.012924999929964542,0.6154500246047974,0.09776250272989273
1772645764103766800,6.711766845703125,-0.13337500393390656,0.40878748893737793,0.025437500327825546
1772645764123829200,6.731829345703125,-0.1396999955177307,0.5068249702453613,0.0019249999895691872
1772645764143892000,6.75189208984375,-0.14932499825954437,0.4248749911785126,-0.06943749636411667
1772645764163954400,6.771954345703125,-0.1802625060081482,0.12540000677108765,-0.2494249939918518
1772645764184017200,6.79201708984375,-0.09075000137090683,-0.18136249482631683,-0.4657124876976013
1772645764204079600,6.81207958984375,0.025437500327825546,-0.36781248450279236,-0.5648499727249146
1772645764224142000,6.83214208984375,0.11701250076293945,-0.2686749994754791,-0.2994749844074249
1772645764244204800,6.852204833984375,0.16706250607967377,-0.08112499862909317,0.17242500185966492
1772645764264267500,6.872267578125,0.17448750138282776,-0.06943749636411667,0.39077499508857727
1772645764284330200,6.892330322265625,0.273624986410141,0.08717499673366547,0.46213749051094055
1772645764304392400,6.912392333984375,0.5016000270843506,0.283112496137619,0.46956250071525574
1772645764324455200,6.932455078125,0.9840874671936035,0.30016249418258667,0.5132874846458435
1772645764344518000,6.952517822265625,1.4954500198364258,-0.29534998536109924,0.31088748574256897
1772645764364580400,6.972580322265625,1.1045374870300293,-0.010862499475479126,-0.0193875003606081
1772645764384643000,6.99264306640625,0.027499999850988388,-0.3123999834060669,0.7242124676704407
1772645764404705800,7.012705810546875,-0.042762499302625656,-0.2942500114440918,0.5526124835014343
1772645764424768300,7.032768310546875,-0.08855000138282776,-0.20157499611377716,-0.8386124968528748
1772645764444830700,7.052830810546875,-0.4464625120162964,-0.3198249936103821,-1.277512550354004
1772645764464893400,7.0728935546875,-0.5807999968528748,0.026399999856948853,-1.047337532043457
1772645764484956000,7.092955810546875,-0.4358749985694885,0.11371249705553055,-0.718162477016449
1772645764505018600,7.1130185546875,-0.16101250052452087,-0.055687498301267624,-0.24736249446868896
1772645764525081000,7.1330810546875,0.04675000160932541,0.357637494802475,0.2714250087738037
1772645764545143800,7.153143798828125,0.10628750175237656,1.1470249891281128,0.5505499839782715
1772645764565206300,7.173206298828125,0.08717499673366547,1.3388375043869019,0.738099992275238
1772645764585268700,7.193268798828125,0.10958749800920486,0.8104249835014343,0.7049624919891357
1772645764605331500,7.21333154296875,0.11055000126361847,0.11701250076293945,0.21931250393390656
1772645764625394000,7.233393798828125,0.045649997889995575,-0.20473749935626984,-0.467912495136261
1772645764645456600,7.25345654296875,0.020075000822544098,-0.1568875014781952,-0.9248250126838684
1772645764665519400,7.273519287109375,-0.008662499487400055,0.2330625057220459,-1.0995874404907227
1772645764685581800,7.293581787109375,-0.23663750290870667,0.4877125024795532,-0.7757750153541565
1772645764705644300,7.313644287109375,-0.4017750024795532,0.5281375050544739,-0.11838749796152115
1772645764725707000,7.33370703125,-0.39861249923706055,0.2447499930858612,0.40562498569488525
1772645764745769500,7.35376953125,-0.3091000020503998,-0.15468749403953552,0.5867124795913696
1772645764765832200,7.373832275390625,-0.1919499933719635,-0.3251875042915344,0.5249750018119812
1772645764785894700,7.393894775390625,-0.06627500057220459,-0.26124998927116394,0.19580000638961792
1772645764805957000,7.41395703125,0.14794999361038208,-0.18562500178813934,-0.07259999960660934
1772645764826019800,7.434019775390625,0.26936250925064087,0.03918749839067459,-0.17916250228881836
1772645764846082300,7.454082275390625,-0.5253875255584717,0.1989624947309494,-0.3357749879360199
1772645764866144800,7.474144775390625,-0.7000125050544739,-0.0705375000834465,-0.6851624846458435
1772645764886207500,7.49420751953125,-0.28888750076293945,-0.9003499746322632,-0.36451250314712524
1772645764906270000,7.51427001953125,-0.2153249979019165,-0.947237491607666,0.04455000162124634
1772645764926332400,7.53433251953125,-0.6659125089645386,-0.5275874733924866,-0.28888750076293945
1772645764946395100,7.55439501953125,-0.7128000259399414,-0.2143625020980835,-0.8736749887466431
1772645764966457900,7.574457763671875,-0.38788750767707825,0.2532750070095062,-0.8736749887466431
1772645764986520300,7.594520263671875,-0.16637499630451202,0.5974375009536743,-0.3772999942302704
1772645765006582800,7.614582763671875,-0.1802625060081482,0.5568749904632568,0.4141499996185303
1772645765026645200,7.634645263671875,-0.1993750035762787,0.6612374782562256,1.0374374389648438
1772645765046708000,7.6547080078125,-0.06297499686479568,0.7156875133514404,1.0969749689102173
1772645765066770400,7.6747705078125,0.12553749978542328,0.4450874924659729,0.6560124754905701
1772645765086833000,7.6948330078125,0.1522125005722046,-0.06311249732971191,-0.1046374961733818
1772645765106895600,7.7148955078125,-0.048124998807907104,-0.33371248841285706,-0.7991499900817871
1772645765126958000,7.7349580078125,-0.3102000057697296,-0.29205000400543213,-1.0708500146865845
1772645765147020500,7.7550205078125,-0.42102500796318054,-0.19415000081062317,-1.1027499437332153
1772645765167083000,7.7750830078125,-0.3815625011920929,0.12223749607801437,-0.7255874872207642
1772645765187145700,7.795145751953125,-0.18878750503063202,0.12966249883174896,-0.14506250619888306
1772645765207208200,7.815208251953125,-0.03739999979734421,-0.08332499861717224,0.16596250236034393
1772645765227270700,7.835270751953125,0.09459999948740005,-0.0929500013589859,0.3044250011444092
1772645765247333400,7.85533349609375,0.14891250431537628,-0.18136249482631683,0.39820000529289246
1772645765267395800,7.875395751953125,0.1872749924659729,-0.3772999942302704,0.4035624861717224
1772645765287458300,7.895458251953125,0.2363625019788742,-0.47327500581741333,0.40039998292922974
1772645765307520800,7.915520751953125,0.4493499994277954,-0.3176249861717224,0.3620375096797943
1772645765327583500,7.93558349609375,0.7423624992370605,0.10202500224113464,-0.08428750187158585
1772645765347646000,7.95564599609375,0.988349974155426,1.799049973487854,-1.6758500337600708
1772645765367708700,7.975708740234375,-0.3964124917984009,0.9350000023841858,-1.8847124576568604
1772645765387771000,7.99577099609375,-0.04592499881982803,-0.9196000099182129,-0.14396250247955322
1772645765407833600,8.01583349609375,0.6335999965667725,-1.239150047302246,1.0522874593734741
1772645765427896000,8.03589599609375,0.4493499994277954,-0.975012481212616,0.46213749051094055
1772645765447958500,8.05595849609375,0.4675000011920929,-0.7044125199317932,-0.3656125068664551
1772645765468021000,8.07602099609375,0.6549124717712402,-0.9994875192642212,-0.3474625051021576
1772645765488083700,8.096083740234375,0.6358000040054321,-0.6415749788284302,0.25657498836517334
1772645765508146200,8.116146240234375,0.3375625014305115,0.13612499833106995,0.7881500124931335
1772645765528208600,8.136208740234375,-0.19085000455379486,0.3363249897956848,0.8615750074386597
1772645765548271000,8.15627099609375,-0.4358749985694885,0.554812490940094,0.4376625120639801
1772645765568333600,8.17633349609375,-0.4295499920845032,0.9957749843597412,0.010449999943375587
1772645765588396300,8.196396240234375,-0.408237487077713,1.1416624784469604,-0.14822499454021454
1772645765608458800,8.216458740234375,-0.38692501187324524,0.8860499858856201,-0.3091000020503998
1772645765628521200,8.236521240234374,-0.41676250100135803,0.43230000138282776,-0.4049375057220459
1772645765648583700,8.256583740234374,-0.5785999894142151,0.12443749606609344,-0.42528748512268066
1772645765668646100,8.276646240234374,-0.6234250068664551,0.15207499265670776,-0.31226250529289246
1772645765688708600,8.29670849609375,-0.5029749870300293,0.16596250236034393,-0.10986249893903732
1772645765708771000,8.31677099609375,-0.34209999442100525,-0.02681249938905239,0.10106249898672104
1772645765728833800,8.336833740234376,-0.20253749191761017,-0.09184999763965607,0.2213750034570694
1772645765748896300,8.356896240234375,-0.1344749927520752,-0.10243749618530273,0.34168750047683716
1772645765768958700,8.376958740234375,-0.20679999887943268,-0.12594999372959137,0.37056249380111694
1772645765789021200,8.397021240234375,-0.24310000240802765,0.12443749606609344,0.3544749915599823
1772645765809083600,8.417083740234375,-0.1769624948501587,0.2895750105381012,0.4217124879360199
1772645765829146000,8.43714599609375,-0.029975000768899918,-0.031075000762939453,0.11811249703168869
1772645765849208600,8.45720849609375,0.20432500541210175,-0.5083374977111816,-0.3783999979496002
1772645765869271300,8.477271240234375,0.2171124964952469,-1.0335874557495117,-0.3485625088214874
1772645765889333800,8.497333740234374,0.10422500222921371,-1.0634249448776245,-0.4423374831676483
1772645765909396200,8.517396240234374,-0.08538749814033508,-1.1891000270843506,-0.4199250042438507
1772645765929458700,8.537458740234374,-0.15138749778270721,-0.8364124894142151,0.17448750138282776
1772645765949521200,8.557521240234376,-0.17806249856948853,0.08181250095367432,0.20748749375343323
1772645765969583600,8.57758349609375,0.0541750006377697,0.20006249845027924,-0.033275000751018524
1772645765989646000,8.59764599609375,0.18521249294281006,-0.11096250265836716,-0.10353749990463257
1772645766009708800,8.617708740234375,0.1073874980211258,-0.1120624989271164,-0.0034374999813735485
1772645766029771300,8.637771240234375,-0.004399999976158142,0.2447499930858612,0.0775500014424324
1772645766049833500,8.65783349609375,0.011549999937415123,0.6793875098228455,0.23732499778270721
1772645766069896200,8.677896240234375,0.13832500576972961,0.8476874828338623,0.5824499726295471
1772645766089958400,8.69795849609375,0.19580000638961792,0.8200500011444092,0.9266124963760376
1772645766110021000,8.718021240234375,0.1574375033378601,0.6645374894142151,0.8317375183105469
1772645766130083600,8.73808349609375,0.04028749838471413,0.3651999831199646,0.4525125026702881
1772645766150146300,8.758146240234375,-0.3207874894142151,0.27348750829696655,0.15963749587535858
1772645766170208500,8.77820849609375,-0.5765374898910522,0.37894999980926514,0.028599999845027924
1772645766190271000,8.79827099609375,-0.6829624772071838,0.3950375020503998,0.02969999983906746
1772645766210333700,8.818333740234374,-0.8822000026702881,0.3363249897956848,0.10848750174045563
1772645766230396200,8.838396240234376,-1.0984874963760376,0.546287477016449,0.3151499927043915
1772645766250458400,8.858458251953126,-0.9813374876976013,0.8519499897956848,0.41208750009536743
1772645766270520800,8.878520751953126,-0.8162000179290771,0.7635374665260315,0.26179999113082886
1772645766290583300,8.898583251953125,-0.6649500131607056,0.5036625266075134,0.1574375033378601
1772645766310645800,8.918645751953125,-0.35062500834465027,0.3012624979019165,0.30346250534057617
1772645766330708200,8.938708251953125,-0.3315125107765198,-0.22605000436306,0.21078750491142273
1772645766350770700,8.958770751953125,-0.4529249966144562,-0.7001500129699707,-0.20679999887943268
1772645766370833200,8.978833251953125,0.3492499887943268,-0.3550249934196472,0.23732499778270721
1772645766390895600,8.9988955078125,0.9490249752998352,0.055137500166893005,1.3590500354766846
1772645766410958000,9.0189580078125,0.5644375085830688,-0.2686749994754791,1.4634125232696533
1772645766431020500,9.0390205078125,-0.2186249941587448,-0.8971874713897705,0.2287999987602234
1772645766451083000,9.0590830078125,-0.7841625213623047,-1.048437476158142,-1.0771750211715698
1772645766471145500,9.0791455078125,-1.0334500074386597,-0.5531625151634216,-1.5937625169754028
1772645766491208000,9.0992080078125,-0.7341125011444092,0.18411250412464142,-1.178375005722046
1772645766511270400,9.1192705078125,-0.42528748512268066,0.3768875002861023,-0.4998124837875366
1772645766531332900,9.139332763671876,-0.2909500002861023,0.05939999967813492,-0.15152500569820404
1772645766551395300,9.159395263671875,0.049912501126527786,-0.30277499556541443,-0.007699999958276749
1772645766571457800,9.179457763671875,0.26510000228881836,-0.27719998359680176,-0.05664999783039093
1772645766591520300,9.199520263671875,0.26826250553131104,-0.29961249232292175,-0.21216249465942383
1772645766611582700,9.219582763671875,0.07012499868869781,-0.3166624903678894,-0.37193748354911804
1772645766631645200,9.239645263671875,-0.10986249893903732,-0.30277499556541443,-0.5520625114440918
1772645766651707600,9.259707763671875,-0.31872498989105225,-0.27403751015663147,-0.5413374900817871
1772645766671770000,9.27977001953125,-0.42528748512268066,-0.05664999783039093,-0.2686749994754791
1772645766691832600,9.29983251953125,-0.3708375096321106,0.1457500010728836,-0.006599999964237213
1772645766711895000,9.31989501953125,-0.4092000126838684,0.2330625057220459,0.12870000302791595
1772645766731957500,9.33995751953125,-0.39544999599456787,0.4610374867916107,0.18617500364780426
1772645766772082400,9.38008251953125,-0.2303124964237213,0.4791874885559082,0.19689999520778656
1772645766792145000,9.400144775390626,-0.10889999568462372,0.31185001134872437,0.37152498960494995
1772645766812207400,9.420207275390625,-0.04496249929070473,0.1648624986410141,0.5377625226974487
1772645766832269800,9.440269775390625,-0.12594999372959137,0.4716250002384186,0.6432250142097473
1772645766852332300,9.460332275390625,-0.16637499630451202,0.5568749904632568,0.38225001096725464
1772645766872394800,9.480394775390625,-0.20157499611377716,-0.09721250087022781,-0.3218874931335449
1772645766892457200,9.500457275390625,-0.26647499203681946,0.35667499899864197,-0.36451250314712524
1772645766912519700,9.520519775390625,-0.1769624948501587,1.3772000074386597,0.2320999950170517
1772645766932582000,9.540581787109375,-0.2718375027179718,1.2854875326156616,0.5409250259399414
1772645766952644400,9.560644287109374,-0.2835249900817871,0.028462499380111694,0.22357499599456787
1772645766972706800,9.580706787109374,-0.29631251096725464,-0.8534625172615051,-0.38692501187324524
1772645766992769300,9.600769287109374,-0.2611125111579895,-0.7309499979019165,-0.7383750081062317
1772645767012831700,9.620831787109376,0.04675000160932541,-0.22495000064373016,-0.4156624972820282
1772645767032894200,9.640894287109376,0.3833499848842621,-0.05458749830722809,0.2287999987602234
1772645767052956700,9.660956787109376,0.46639999747276306,-0.4017750024795532,0.6400625109672546
1772645767073019100,9.68101904296875,0.259737491607666,-0.4039750099182129,0.7134875059127808
1772645767093081600,9.70108154296875,0.26083749532699585,0.04124999791383743,0.49197500944137573
1772645767113144000,9.72114404296875,0.48977500200271606,0.22343750298023224,0.3885749876499176
1772645767133206300,9.741206298828125,0.40039998292922974,-0.008799999952316284,0.32903748750686646
1772645767153268700,9.761268798828125,0.15001249313354492,-0.2942500114440918,0.12333749979734421
1772645767173331200,9.781331298828125,-0.022549999877810478,-0.36355000734329224,-0.0705375000834465
1772645767193393700,9.8013935546875,-0.06297499686479568,-0.2910875082015991,-0.06311249732971191
1772645767213456100,9.8214560546875,-0.09184999763965607,-0.11742500215768814,0.04235000163316727
1772645767233518600,9.8415185546875,-0.24199999868869781,0.2256374955177307,0.20116250216960907
1772645767253580800,9.861580810546876,-0.33041250705718994,0.5707625150680542,0.3151499927043915
1772645767273643300,9.881643310546876,-0.3283500075340271,0.5654000043869019,0.3438875079154968
1772645767293705500,9.90170556640625,-0.4049375057220459,0.3959999978542328,0.5207124948501587
1772645767313768000,9.921767822265625,-0.3357749879360199,0.07438749819993973,0.9286749958992004
1772645767333830400,9.941830322265625,-0.2153249979019165,0.10518749803304672,0.8307750225067139
1772645767353892900,9.961892822265625,-0.07259999960660934,0.04028749838471413,0.5654000043869019
1772645767373955300,9.981955322265625,-0.057750001549720764,0.3396250009536743,0.1574375033378601
1772645767394017800,10.002017822265625,-0.06201250106096268,0.18411250412464142,0.3151499927043915
