time,seconds_elapsed,z,y,x
1772593982922628000,0.259628173828125,5.254673957824707,-7.8080902099609375,3.546112060546875
1772593982942923000,0.279923095703125,5.263951778411865,-7.804199695587158,3.55479097366333
1772593982963186000,0.30018603515625,5.265448093414307,-7.797914981842041,3.5790321826934814
1772593982983450000,0.3204501953125,5.266944408416748,-7.791630268096924,3.568258285522461
1772593983003714000,0.340714111328125,5.236119270324707,-7.772476673126221,3.564666986465454
1772593983023977000,0.36097705078125,5.210381507873535,-7.776965618133545,3.578732967376709
1772593983044241000,0.381240966796875,5.208286285400391,-7.759308338165283,3.5960910320281982
1772593983064505000,0.401505126953125,5.162796497344971,-7.733271598815918,3.584120035171509
1772593983084768000,0.42176806640625,5.125088214874268,-7.722198486328125,3.579930067062378
1772593983105032000,0.442031982421875,5.134665012359619,-7.728483200073242,3.579930067062378
1772593983125296000,0.462296142578125,5.117606163024902,-7.74823522567749,3.563469886779785
1772593983145559000,0.48255908203125,5.062240123748779,-7.7341694831848145,3.513490915298462
1772593983165823000,0.502822998046875,4.378994941711426,-6.742371082305908,3.438971519470215
1772593983186087000,0.5230869140625,4.455010890960693,-5.578489780426025,2.640505313873291
1772593983206350000,0.54335009765625,4.501996994018555,-4.468478202819824,2.607884168624878
1772593983226614000,0.563614013671875,4.479850769042969,-3.6116533279418945,1.8638859987258911
1772593983246878000,0.5838779296875,3.7316625118255615,-2.8658595085144043,1.8157026767730713
1772593983267141000,0.60414111328125,2.9538464546203613,-2.8167781829833984,1.7387889623641968
1772593983287405000,0.624405029296875,1.9979612827301025,-4.326920986175537,0.9454103708267212
1772593983307669000,0.6446689453125,1.967136025428772,-9.86351203918457,0.961870551109314
1772593983327932000,0.664931884765625,-0.6745663285255432,-15.691597938537598,2.094327926635742
1772593983348196000,0.685196044921875,-3.2665889263153076,-16.675016403198242,2.154482364654541
1772593983368460000,0.7054599609375,-3.181295394897461,-14.831181526184082,2.085050344467163
1772593983388723000,0.725722900390625,-1.592742681503296,-12.015600204467773,1.2530653476715088
1772593983408987000,0.74598681640625,-1.5146318674087524,-9.784204483032227,1.1991957426071167
1772593983429251000,0.7662509765625,-0.806546688079834,-7.559991359710693,0.31453824043273926
1772593983449514000,0.786513916015625,-0.7149685025215149,-6.357503414154053,0.27563247084617615
1772593983469778000,0.80677783203125,0.44681790471076965,-5.063736438751221,0.25677812099456787
1772593983490042000,0.8270419921875,0.42616790533065796,-5.051167011260986,0.2684498727321625
1772593983510305000,0.847304931640625,0.36481648683547974,-6.3482255935668945,1.2192472219467163
1772593983530569000,0.86756884765625,1.161487102508545,-9.772233963012695,1.1941081285476685
1772593983550833000,0.8878330078125,1.2171522378921509,-12.785934448242188,1.1785458326339722
1772593983571096000,0.908095947265625,2.7829601764678955,-16.790836334228516,1.212663173675537
1772593983591360000,0.928360107421875,4.0620622634887695,-21.29253387451172,1.9488801956176758
1772593983611624000,0.9486240234375,4.024353981018066,-23.658004760742188,3.012205123901367
1772593983631887000,0.96888720703125,2.657863140106201,-23.68613624572754,3.910329818725586
1772593983652151000,0.989151123046875,-0.5222352743148804,-21.788732528686523,3.881300210952759
1772593983672415000,1.0094150390625,-0.6024410128593445,-19.48670768737793,3.854365348815918
1772593983692679000,1.029678955078125,-0.6506243348121643,-17.340604782104492,3.807080030441284
1772593983712942000,1.049942138671875,-0.6275801062583923,-14.194622993469238,2.9891607761383057
1772593983733206000,1.0702060546875,-0.5862801671028137,-11.162067413330078,2.93349552154541
1772593983753470000,1.090469970703125,-1.4622586965560913,-8.091204643249512,2.0248961448669434
1772593983773733000,1.110733154296875,-2.804208755493164,-5.7526679039001465,1.1890203952789307
1772593983793997000,1.1309970703125,-2.73537540435791,-4.751293182373047,1.1632827520370483
1772593983814261000,1.151260986328125,-0.9965864419937134,-1.0920552015304565,1.0872668027877808
1772593983834524000,1.17152392578125,-0.9415197968482971,0.013168109580874443,1.0489596128463745
1772593983854788000,1.1917880859375,-0.8855553269386292,0.844853937625885,1.0693103075027466
1772593983875052000,1.212052001953125,0.055665191262960434,0.8658031821250916,1.0935516357421875
1772593983895315000,1.23231494140625,0.11222820729017258,0.8933365345001221,1.0663175582885742
1772593983915579000,1.252578857421875,0.8921394348144531,0.8684966564178467,1.0758943557739258
1772593983935843000,1.272843017578125,0.9190741777420044,0.06853402405977249,1.1109095811843872
1772593983956106000,1.29310595703125,0.945111095905304,0.0035913025494664907,1.1510124206542969
1772593983976370000,1.313369873046875,0.9262567758560181,-0.7972691655158997,1.1788450479507446
1772593983996634000,1.333634033203125,-3.338714361190796,-2.681206703186035,1.1872247457504272
1772593984016897000,1.35389697265625,-5.2911858558654785,-5.209483623504639,1.2497732639312744
1772593984037161000,1.374160888671875,-2.858976125717163,-9.768342971801758,2.8476035594940186
1772593984057425000,1.3944248046875,0.6835445761680603,-15.873557090759277,2.909852981567383
1772593984077688000,1.41468798828125,-0.4034229815006256,-21.163545608520508,2.875436305999756
1772593984097952000,1.434951904296875,-1.5966333150863647,-24.942792892456055,-0.046986207365989685
1772593984118216000,1.4552158203125,-1.6382324695587158,-26.036344528198242,-2.016216993331909
1772593984138479000,1.47547900390625,-1.6558897495269775,-26.03095817565918,-2.0380642414093018
1772593984158743000,1.495742919921875,-1.6196774244308472,-23.374591827392578,-0.9448118209838867
1772593984179007000,1.516007080078125,-1.5714941024780273,-20.591930389404297,0.5701192617416382
1772593984199270000,1.536269775390625,-1.5601216554641724,-16.654664993286133,1.6050130128860474
1772593984219534000,1.5565341796875,-1.5819687843322754,-12.246341705322266,1.6558897495269775
1772593984239798000,1.576798095703125,-2.6728270053863525,-8.529942512512207,1.647510051727295
1772593984260061000,1.59706103515625,-2.76350736618042,-6.101922512054443,1.63613760471344
1772593984280325000,1.6173251953125,-2.5480291843414307,-4.9491143226623535,1.7127519845962524
1772593984300589000,1.637589111328125,-1.2210428714752197,-4.901230335235596,3.4252047538757324
1772593984320852000,1.65785205078125,-0.3866635859012604,-3.945943593978882,3.4850597381591797
1772593984341116000,1.678115966796875,-0.3139396905899048,-3.8744168281555176,3.482067108154297
1772593984361380000,1.698380126953125,0.48722004890441895,-3.0427310466766357,2.288557529449463
1772593984381643000,1.71864306640625,0.5039794445037842,-1.9737200736999512,2.20116925239563
1772593984401907000,1.738906982421875,0.42676645517349243,-1.1061211824417114,1.3787609338760376
1772593984422171000,1.7591708984375,-0.5461772680282593,-1.0462661981582642,1.357512354850769
1772593984442434000,1.77943408203125,-0.5991489887237549,-0.9828197956085205,1.3350666761398315
1772593984462698000,1.799697998046875,-0.5997475385665894,-0.9298480749130249,1.2713210582733154
1772593984482962000,1.8199619140625,-0.5740098357200623,-0.9394248723983765,0.5096656680107117
1772593984503225000,1.84022509765625,-0.5363011956214905,-2.056020736694336,0.4976946711540222
1772593984523489000,1.860489013671875,-1.4514847993850708,-4.454711437225342,0.46896424889564514
1772593984543753000,1.8807529296875,-1.4446014165878296,-10.043975830078125,1.227926254272461
1772593984564016000,1.90101611328125,1.0660183429718018,-16.54572868347168,0.3974374830722809
1772593984584280000,1.921280029296875,1.0327987670898438,-22.164920806884766,0.4222773313522339
1772593984604544000,1.9415439453125,-0.17537526786327362,-26.284744262695312,0.43275195360183716
1772593984624807000,1.961806884765625,-1.5870563983917236,-27.475858688354492,-0.6254851818084717
1772593984645071000,1.982071044921875,-1.6621745824813843,-27.40193748474121,-0.6551134586334229
1772593984665335000,2.0023349609375,-1.665466547012329,-24.52470588684082,-0.5934627652168274
1772593984685598000,2.022597900390625,-1.6274585723876953,-21.095012664794922,0.2124854028224945
1772593984705862000,2.04286181640625,-1.5771803855895996,-17.043724060058594,0.9950900673866272
1772593984726126000,2.0631259765625,-0.7185598015785217,-13.033136367797852,1.07110595703125
1772593984746389000,2.083388916015625,0.04159925505518913,-8.975563049316406,1.139639973640442
1772593984766653000,2.10365283203125,-0.03531447425484657,-6.1845221519470215,2.0760722160339355
1772593984786917000,2.123917236328125,-0.08050503581762314,-4.910807132720947,3.0977976322174072
1772593984807180000,2.144179931640625,-0.047884032130241394,-3.7265748977661133,4.399345397949219
1772593984827444000,2.16444384765625,-0.05446808785200119,-2.88531231880188,5.2471923828125
1772593984847708000,2.1847080078125,-0.059555768966674805,-2.847304344177246,4.330512523651123
1772593984867971000,2.20497119140625,-0.038007952272892,-2.791339874267578,3.2276830673217773
1772593984888235000,2.225235107421875,0.004788403399288654,-1.986289620399475,1.6852186918258667
1772593984908499000,2.2454990234375,0.04997896030545235,-1.1743559837341309,0.7595604658126831
1772593984928762000,2.26576220703125,0.05117605999112129,-1.1189900636672974,0.7305307984352112
1772593984949026000,2.286026123046875,0.0293289702385664,-0.37828385829925537,0.7529764175415039
1772593984969290000,2.3062900390625,0,-0.3866635859012604,0.7323264479637146
1772593984989554000,2.326553955078125,0.012569558806717396,-0.38067805767059326,0.6590040326118469
1772593985009817000,2.346817138671875,-0.014065935276448727,-0.42706573009490967,-0.23612813651561737
1772593985030081000,2.3670810546875,-0.058957215398550034,-1.3775638341903687,-0.2876034677028656
1772593985050345000,2.387344970703125,-5.004180908203125,-2.2409727573394775,-0.32351651787757874
1772593985070608000,2.40760791015625,-4.11443567276001,-5.061641693115234,-0.2630629241466522
1772593985090872000,2.4278720703125,-1.1863269805908203,-11.14381217956543,1.015141487121582
1772593985111136000,2.448135986328125,3.620631456375122,-17.5677547454834,1.0316016674041748
1772593985131399000,2.46839892578125,1.6092028617858887,-24.671051025390625,2.1942858695983887
1772593985151663000,2.4886630859375,-1.8911200761795044,-27.366323471069336,2.1658546924591064
1772593985171927000,2.508927001953125,-2.9984383583068848,-27.340286254882812,1.2225391864776611
1772593985192190000,2.52918994140625,-2.999934673309326,-24.444799423217773,0.5006874203681946
1772593985212454000,2.549453857421875,-2.030282974243164,-21.256919860839844,0.5135562419891357
1772593985232718000,2.569718017578125,-1.2210428714752197,-17.835905075073242,0.568622887134552
1772593985252981000,2.58998095703125,-0.22834698855876923,-14.188937187194824,1.4736311435699463
1772593985273245000,2.610244873046875,-0.15322890877723694,-10.53837776184082,1.51163911819458
1772593985293509000,2.630509033203125,-1.0591349601745605,-7.475595474243164,2.9221231937408447
1772593985313772000,2.65077197265625,-1.8959084749221802,-5.579687118530273,4.299986362457275
1772593985334036000,2.671035888671875,-1.875557780265808,-4.713285446166992,4.364330291748047
1772593985354300000,2.6912998046875,-0.8577227592468262,-4.659715175628662,4.344278812408447
1772593985374563000,2.71156298828125,0.25977087020874023,-3.576937437057495,2.651578426361084
1772593985394827000,2.731826904296875,1.0229226350784302,-2.775777578353882,1.445499300956726
1772593985415091000,2.752091064453125,0.99479079246521,-1.8429367542266846,0.43993455171585083
1772593985435354000,2.77235400390625,-0.24600422382354736,-1.0974421501159668,0.3869628608226776
1772593985455618000,2.7926181640625,-0.29718029499053955,-1.0375871658325195,0.33279404044151306
1772593985475882000,2.812882080078125,-0.32950201630592346,-0.961870551109314,0.30855274200439453
1772593985496145000,2.833144775390625,-0.3357867896556854,-0.2115875780582428,0.32950201630592346
1772593985516409000,2.8534091796875,-0.31184476613998413,-0.2687491476535797,0.37978023290634155
1772593985536673000,2.873673095703125,-0.33848026394844055,-1.2665326595306396,0.46238020062446594
1772593985556936000,2.89393603515625,-2.2026655673980713,-1.3317747116088867,1.1662755012512207
1772593985577200000,2.9142001953125,-3.864241600036621,-3.5266590118408203,2.211045265197754
1772593985597464000,2.934464111328125,-3.835211753845215,-6.752247333526611,2.243666172027588
1772593985617727000,2.95472705078125,0.42197805643081665,-12.356474876403809,2.2212207317352295
1772593985637991000,2.974990966796875,2.100912094116211,-18.354549407958984,3.231873035430908
1772593985658255000,2.995255126953125,-0.0942716896533966,-23.325809478759766,3.279757022857666
1772593985678518000,3.01551806640625,-0.8517372608184814,-26.948535919189453,1.8300678730010986
1772593985698782000,3.035781982421875,-1.7498621940612793,-28.061241149902344,1.7447744607925415
1772593985719046000,3.0560458984375,-2.821866035461426,-27.998991012573242,1.7744027376174927
1772593985739309000,3.07630908203125,-2.9059622287750244,-24.753053665161133,1.8587983846664429
1772593985759573000,3.096572998046875,-2.93888258934021,-20.515316009521484,1.8581998348236084
1772593985779837000,3.1168369140625,-2.853888511657715,-16.376638412475586,1.8061258792877197
1772593985800100000,3.13710009765625,-1.3958195447921753,-12.569559097290039,1.7402853965759277
1772593985820364000,3.157364013671875,-0.3564367890357971,-8.677783966064453,1.7190368175506592
1772593985840628000,3.1776279296875,-0.2696469724178314,-6.090848922729492,1.7663222551345825
1772593985860891000,3.197890869140625,-0.2849099934101105,-5.043984413146973,2.6180596351623535
1772593985881155000,3.218155029296875,-0.33189621567726135,-4.137180328369141,3.4626142978668213
1772593985901419000,3.2384189453125,-0.3363853394985199,-4.0872015953063965,3.5125932693481445
1772593985921682000,3.258681884765625,-0.3456628620624542,-3.3402106761932373,3.4916439056396484
1772593985941946000,3.278946044921875,-0.3860650360584259,-3.268683910369873,2.6674399375915527
1772593985962210000,3.2992099609375,-0.46477439999580383,-2.086247444152832,1.7510592937469482
1772593985982473000,3.319472900390625,-1.1815385818481445,-1.2650363445281982,0.9615712761878967
1772593986002737000,3.33973681640625,-1.192013144493103,-0.47405192255973816,0.8681973814964294
1772593986023001000,3.3600009765625,-1.1522095203399658,-0.4264671802520752,-0.06464344263076782
1772593986043264000,3.380263916015625,-0.3743932843208313,-0.39534255862236023,-0.0628477931022644
1772593986063528000,3.40052783203125,0.4569932520389557,-0.40940847992897034,-0.019452888518571854
1772593986083792000,3.4207919921875,0.4953004717826843,-0.5039794445037842,0.735319197177887
1772593986104055000,3.441054931640625,0.5249287486076355,-0.5644330382347107,0.7122750282287598
1772593986124319000,3.461319091796875,-0.6126163601875305,-1.5304933786392212,0.6646902561187744
1772593986144583000,3.4815830078125,-0.5707178115844727,-5.086182117462158,0.7149685025215149
1772593986164846000,3.50184619140625,-0.5662286877632141,-11.006444931030273,0.7637503147125244
1772593986185110000,3.522110107421875,0.6664859056472778,-17.274763107299805,2.6339211463928223
1772593986205374000,3.5423740234375,-0.1322796493768692,-18.15313720703125,2.649782657623291
1772593986225637000,3.56263720703125,-1.4972739219665527,-22.90772247314453,-0.7257423996925354
1772593986245901000,3.582901123046875,-2.5462334156036377,-25.134628295898438,-0.8143278360366821
1772593986266165000,3.6031650390625,-2.5737667083740234,-25.16246223449707,0.1834557056427002
1772593986286429000,3.623428955078125,-2.575263261795044,-23.07352066040039,1.0645219087600708
1772593986306692000,3.643692138671875,-2.526780605316162,-20.286968231201172,2.003647565841675
1772593986326956000,3.6639560546875,-1.7824832201004028,-16.87044334411621,1.978209137916565
1772593986347220000,3.684219970703125,-0.39863458275794983,-11.376049041748047,1.9820997714996338
1772593986367483000,3.70448291015625,-0.33668461441993713,-7.613262176513672,2.0299837589263916
1772593986387747000,3.7247470703125,-0.34656068682670593,-4.780921459197998,2.8347349166870117
1772593986408011000,3.745010986328125,-1.1234791278839111,-3.277961492538452,2.882319688796997
1772593986428274000,3.76527392578125,-1.0971429347991943,-3.208828926086426,3.840299606323242
1772593986448538000,3.7855380859375,-0.3597288131713867,-3.136404275894165,3.853766918182373
1772593986468802000,3.805802001953125,-0.39055415987968445,-3.069366693496704,3.074753522872925
1772593986489065000,3.82606494140625,-1.2410943508148193,-3.001730442047119,2.202366352081299
1772593986509329000,3.846328857421875,-1.2629413604736328,-2.214038133621216,1.3808557987213135
1772593986529593000,3.866593017578125,-1.2524667978286743,-1.30543851852417,1.3075333833694458
1772593986549856000,3.88685595703125,-0.47644615173339844,-1.2375030517578125,0.5467758178710938
1772593986570120000,3.907119873046875,-0.4258686304092407,-0.47135844826698303,0.49051207304000854
1772593986590384000,3.927384033203125,0.3100491166114807,-0.4572925269603729,0.4677671492099762
1772593986610647000,3.94764697265625,0.3851672112941742,-0.44262802600860596,0.4626794755458832
1772593986630911000,3.967910888671875,1.212363839149475,-0.4812345504760742,0.4710591733455658
1772593986651175000,3.9881748046875,-2.676118850708008,-1.909675121307373,0.43843817710876465
1772593986671438000,4.00843798828125,-4.40233850479126,-4.236240863800049,0.3776853084564209
1772593986691702000,4.028701904296875,-2.500145196914673,-8.988431930541992,0.4474164545536041
1772593986711966000,4.048966064453125,0.30885201692581177,-15.06102466583252,3.0247745513916016
1772593986732229000,4.06922900390625,1.3611036539077759,-20.706851959228516,3.8157589435577393
1772593986752493000,4.0894931640625,0.03860650211572647,-25.26421546936035,1.646013617515564
1772593986772757000,4.109757080078125,-0.7897872924804688,-27.600656509399414,0.4950011968612671
1772593986793020000,4.13002001953125,-0.8242039084434509,-27.615020751953125,-0.23283611238002777
1772593986813284000,4.1502841796875,-0.8798691034317017,-25.611074447631836,0.8442553877830505
1772593986833548000,4.170548095703125,-1.7142484188079834,-22.57343101501465,0.8580220341682434
1772593986853811000,4.19081103515625,-1.7271173000335693,-19.00307846069336,0.8849567770957947
1772593986874075000,4.211074951171875,-1.679532527923584,-15.289970397949219,0.9519944787025452
1772593986894339000,4.231339111328125,-0.5755062103271484,-11.617863655090332,1.7636288404464722
1772593986914602000,4.25160205078125,-0.553359866142273,-8.420706748962402,2.557007312774658
1772593986934866000,4.271865966796875,-1.8100165128707886,-6.026804447174072,2.580350875854492
1772593986955130000,4.292130126953125,-1.8291701078414917,-5.250185012817383,3.359663486480713
1772593986975393000,4.31239306640625,-0.9460089206695557,-4.478055000305176,4.107552528381348
1772593986995657000,4.332656982421875,-0.8502408862113953,-4.459799289703369,4.036025524139404
1772593987015921000,4.3529208984375,-0.12240356206893921,-4.395155906677246,2.9867665767669678
1772593987036184000,4.37318408203125,-0.09965864568948746,-3.4677019119262695,2.044348955154419
1772593987056448000,4.393447998046875,-0.08649053424596786,-2.5103204250335693,1.9686323404312134
1772593987076712000,4.4137119140625,-0.06643909960985184,-2.4256255626678467,1.2009913921356201
1772593987096975000,4.43397509765625,-0.050876785069704056,-1.3476362228393555,1.1414356231689453
1772593987117239000,4.454239013671875,0.020051438361406326,-0.4908113479614258,0.39205053448677063
1772593987137503000,4.4745029296875,0.09696517139673233,-0.39294835925102234,0.34835633635520935
1772593987157766000,4.494765869140625,0.046088382601737976,0.7523778676986694,0.3100491166114807
1772593987178030000,4.515030029296875,-0.015562310814857483,0.8239046335220337,0.28221651911735535
1772593987198294000,4.5352939453125,-3.20404052734375,-0.16759411990642548,0.22445641458034515
1772593987218557000,4.555556884765625,-2.1496939659118652,-1.0878653526306152,0.16639702022075653
1772593987238821000,4.575821044921875,2.0685901641845703,-5.385158061981201,0.15502455830574036
1772593987259085000,4.5960849609375,-4.941632270812988,-12.742838859558105,7.275380611419678
1772593987279348000,4.616347900390625,-3.8588545322418213,-16.602890014648438,7.196671009063721
1772593987299612000,4.63661181640625,-2.27748441696167,-16.61186981201172,3.292027235031128
1772593987319876000,4.6568759765625,-1.0456676483154297,-19.85990333557129,2.438793659210205
1772593987340139000,4.677138916015625,-1.0232219696044922,-19.928436279296875,2.459743022918701
1772593987360403000,4.69740283203125,-0.05506663769483566,-19.926042556762695,2.375945806503296
1772593987380667000,4.7176669921875,-0.12689268589019775,-20.01911735534668,0.9876081943511963
1772593987400930000,4.737929931640625,-1.8644845485687256,-19.949087142944336,0.19393034279346466
1772593987421194000,4.758194091796875,-3.0092122554779053,-16.6705265045166,0.23253683745861053
1772593987441458000,4.7784580078125,-3.005321741104126,-13.380595207214355,1.3781623840332031
1772593987461721000,4.79872119140625,-1.9979612827301025,-10.9585599899292,2.4432828426361084
1772593987481985000,4.818985107421875,-1.1088147163391113,-7.53275728225708,2.4974515438079834
1772593987502249000,4.8392490234375,0.03711012750864029,-4.947618007659912,2.5234885215759277
1772593987522512000,4.859511962890625,0.07811082899570465,-4.043208122253418,2.4845829010009766
1772593987542776000,4.879776123046875,-0.7553706169128418,-3.3090860843658447,1.6864157915115356
1772593987563040000,4.9000400390625,-1.4945803880691528,-3.337517261505127,1.7615338563919067
1772593987583304000,4.920303955078125,-0.7134721279144287,-3.288435935974121,1.746869444847107
1772593987603567000,4.940567138671875,-0.6377554535865784,-2.433706045150757,0.2852092683315277
1772593987623831000,4.9608310546875,-0.5683236122131348,-2.3591864109039307,-0.5922656655311584
1772593987644095000,4.981094970703125,0.13377602398395538,-1.5646108388900757,-0.5829881429672241
1772593987664358000,5.00135791015625,0.10624270141124725,-1.512536883354187,0.23373393714427948
1772593987684622000,5.0216220703125,1.0932523012161255,-1.5212159156799316,0.28790274262428284
1772593987704886000,5.041885986328125,1.1103110313415527,-5.770026206970215,4.090792655944824
1772593987725149000,5.06214892578125,-3.3767223358154297,-12.216414451599121,10.089465141296387
1772593987745413000,5.0824130859375,-3.0948050022125244,-14.41608715057373,10.15710163116455
1772593987765677000,5.102677001953125,-1.9931728839874268,-14.39423942565918,6.621164798736572
1772593987785940000,5.12293994140625,-0.9151836037635803,-16.035764694213867,6.3931169509887695
1772593987806204000,5.143203857421875,-0.8188169598579407,-17.208324432373047,6.482600212097168
1772593987826468000,5.163468017578125,0.838569164276123,-17.194557189941406,7.191583156585693
1772593987846731000,5.18373095703125,0.89573073387146,-16.26231575012207,5.6892218589782715
1772593987866995000,5.203994873046875,0.8864531517028809,-15.270517349243164,4.8814778327941895
1772593987887259000,5.2242587890625,0.8484452366828918,-13.447033882141113,4.924872875213623
1772593987907522000,5.24452197265625,-0.44322657585144043,-12.75062084197998,6.3518171310424805
1772593987927786000,5.264785888671875,-0.46477439999580383,-12.76797866821289,6.396409034729004
1772593987948050000,5.2850498046875,-0.39294835925102234,-10.35522174835205,6.384139060974121
1772593987968313000,5.30531298828125,0.2902969419956207,-6.960542678833008,5.430049419403076
1772593987988577000,5.325576904296875,0.27054479718208313,-5.048772811889648,3.6484642028808594
1772593988008841000,5.345841064453125,1.447594165802002,-5.00358247756958,1.8908207416534424
1772593988029104000,5.366104248046875,2.363675594329834,-4.962282180786133,1.799242615699768
1772593988049368000,5.3863681640625,1.271021842956543,-4.962581634521484,1.049558162689209
1772593988069632000,5.406632080078125,-0.8122329115867615,-6.986878871917725,2.154482364654541
1772593988089895000,5.42689501953125,-2.9897594451904297,-9.340977668762207,2.216731548309326
1772593988110159000,5.4471591796875,-3.6750996112823486,-10.136152267456055,2.25473952293396
1772593988130423000,5.467423095703125,-0.8463503122329712,-11.144709587097168,1.393126130104065
1772593988150686000,5.48768603515625,1.613093376159668,-12.185888290405273,0.2687491476535797
1772593988170950000,5.507949951171875,2.4025814533233643,-13.92078685760498,0.17477671802043915
1772593988191214000,5.528214111328125,-0.8197147846221924,-17.266084671020508,1.3239935636520386
1772593988211477000,5.54847705078125,-0.8098387122154236,-18.092683792114258,2.3633763790130615
1772593988231741000,5.568740966796875,2.0260932445526123,-19.056049346923828,2.407968282699585
1772593988252005000,5.589005126953125,0.9663596749305725,-19.88534164428711,2.3104045391082764
1772593988272268000,5.60926806640625,1.038185715675354,-20.74456024169922,2.253542423248291
1772593988292532000,5.629531982421875,2.684199333190918,-20.75593376159668,2.2685060501098633
1772593988312796000,5.6497958984375,4.6630072593688965,-20.6727352142334,2.34841251373291
1772593988333059000,5.67005908203125,6.251859188079834,-18.88815689086914,2.2550387382507324
1772593988353323000,5.690322998046875,6.245275020599365,-17.306486129760742,1.2542624473571777
1772593988373587000,5.7105869140625,2.6991631984710693,-13.874099731445312,0.2849099934101105
1772593988393850000,5.73085009765625,1.2006921768188477,-10.224737167358398,1.602020263671875
1772593988414114000,5.751114013671875,-0.09367313981056213,-7.229591369628906,3.5628714561462402
1772593988434378000,5.7713779296875,-0.9801263213157654,-4.163217544555664,7.226897716522217
1772593988454641000,5.791640869140625,-1.734000563621521,-1.4859014749526978,8.265382766723633
1772593988474905000,5.811905029296875,-1.7959505319595337,-0.6305728554725647,8.229170799255371
1772593988495169000,5.8321689453125,-1.6891093254089355,0.1792658567428589,7.279869556427002
1772593988515432000,5.852431884765625,-0.2965817451477051,0.0975637212395668,5.691616058349609
1772593988535696000,5.87269580078125,1.3649942874908447,-0.8954314589500427,4.121318817138672
1772593988555960000,5.8929599609375,3.423708438873291,-0.9852139949798584,2.781463861465454
1772593988576223000,5.913222900390625,4.699219226837158,-1.0444705486297607,1.4257471561431885
1772593988596487000,5.93348681640625,5.520430564880371,-2.1407155990600586,1.3515268564224243
1772593988616751000,5.953751220703125,5.492897033691406,-2.1664533615112305,0.5428852438926697
1772593988637014000,5.974013916015625,5.4746413230896,-2.156277894973755,-0.23403321206569672
1772593988657278000,5.99427783203125,5.494393825531006,-2.098517894744873,-0.21847090125083923
1772593988677542000,6.0145419921875,6.337451934814453,-1.2042834758758545,-0.15023615956306458
1772593988697805000,6.03480517578125,6.4200520515441895,-0.3292027413845062,0.5823895931243896
1772593988718069000,6.055069091796875,10.111013412475586,-0.2421136498451233,6.183624267578125
1772593988738333000,6.0753330078125,10.15829849243164,0.7646481394767761,7.341220855712891
1772593988758596000,6.09559619140625,10.103530883789062,1.5553332567214966,6.2743048667907715
1772593988778860000,6.115860107421875,10.050559043884277,1.5538369417190552,2.720411777496338
1772593988799124000,6.1361240234375,10.036792755126953,1.501463770866394,1.1130045652389526
1772593988819387000,6.156386962890625,10.016142845153809,1.4622586965560913,1.0205284357070923
1772593988839651000,6.176651123046875,9.982324600219727,1.4616601467132568,0.20949265360832214
1772593988859915000,6.1969150390625,9.94162368774414,1.490989089012146,0.14006079733371735
1772593988880179000,6.217178955078125,9.897929191589355,1.5319898128509521,-0.5455787181854248
1772593988900442000,6.237442138671875,9.837775230407715,1.5616180896759033,-0.5249287486076355
1772593988920706000,6.2577060546875,9.027636528015137,1.580173134803772,-0.5030816197395325
1772593988940970000,6.277969970703125,9.004293441772461,1.5987281799316406,-0.48063600063323975
1772593988961233000,6.29823291015625,8.972270965576172,1.643619418144226,-0.41689038276672363
1772593988981497000,6.3184970703125,8.927978515625,1.713649868965149,0.43035775423049927
1772593989001761000,6.338760986328125,8.89146614074707,2.5381531715393066,0.43335050344467163
1772593989022024000,6.35902392578125,8.933963775634766,2.554912567138672,0.4058171808719635
1772593989042288000,6.3792880859375,9.694721221923828,2.5953147411346436,0.3687070608139038
1772593989062552000,6.399552001953125,9.654019355773926,2.660856008529663,0.32441434264183044
1772593989082815000,6.41981494140625,8.8971529006958,3.512293815612793,0.2684498727321625
1772593989103079000,6.440078857421875,8.902838706970215,3.5488054752349854,-0.5527613162994385
1772593989123343000,6.460343017578125,8.925583839416504,3.5844192504882812,-0.5662286877632141
1772593989143606000,6.48060595703125,8.969876289367676,3.602076530456543,-0.5776011347770691
1772593989163870000,6.500869873046875,8.98932933807373,3.606565475463867,-0.5647323131561279
1772593989184134000,6.5211337890625,9.001001358032227,3.6251206398010254,-0.5539584159851074
1772593989204397000,6.54139697265625,9.059061050415039,3.643376350402832,-0.5587468147277832
1772593989224661000,6.561660888671875,9.123404502868652,3.62302565574646,-0.5608417391777039
1772593989244925000,6.581925048828125,9.1754789352417,3.592798948287964,-0.56233811378479
1772593989265188000,6.60218798828125,9.200617790222168,3.5691561698913574,-0.5761047601699829
1772593989285452000,6.6224521484375,9.215282440185547,3.5341410636901855,-0.5793967843055725
1772593989305716000,6.642716064453125,9.21947193145752,3.4844613075256348,-0.5946598649024963
1772593989325979000,6.662978759765625,9.243413925170898,3.4461541175842285,-0.6063315868377686
1772593989346243000,6.6832431640625,9.2933931350708,3.3994672298431396,-0.6084265112876892
1772593989366507000,6.703507080078125,9.329904556274414,3.3545758724212646,-0.6114192605018616
1772593989386770000,6.72377001953125,9.326313018798828,3.322852611541748,-0.574907660484314
1772593989407034000,6.7440341796875,9.330204010009766,3.2869396209716797,-0.5428852438926697
1772593989427298000,6.764298095703125,9.326911926269531,3.268683910369873,-0.5168482661247253
1772593989447561000,6.78456103515625,9.320028305053711,3.239055633544922,-0.49649757146835327
1772593989467825000,6.804824951171875,9.316736221313477,3.2252888679504395,-0.4719569981098175
1772593989488089000,6.825089111328125,9.31494140625,3.2106244564056396,-0.4273650050163269
1772593989508352000,6.84535205078125,9.30386734008789,3.192967176437378,-0.39205053448677063
1772593989528616000,6.865615966796875,9.30386734008789,3.1821932792663574,-0.36002808809280396
1772593989548880000,6.8858798828125,9.2748384475708,3.1797990798950195,-0.3312976658344269
1772593989569143000,6.90614306640625,9.250896453857422,3.1588499546051025,-0.3283049166202545
1772593989589407000,6.926406982421875,9.257181167602539,3.1343092918395996,-0.32620999217033386
1772593989609671000,6.9466708984375,9.283516883850098,3.1292216777801514,-0.3259107172489166
1772593989629934000,6.96693408203125,9.30805778503418,3.1384992599487305,-0.31364041566848755
1772593989650198000,6.987197998046875,9.296685218811035,3.139396905899048,-0.3031657934188843
1772593989670462000,7.0074619140625,9.299677848815918,3.123535394668579,-0.3043628931045532
1772593989690725000,7.02772509765625,9.295787811279297,3.1097686290740967,-0.2950853705406189
1772593989710989000,7.047989013671875,9.289203643798828,3.1091701984405518,-0.2950853705406189
1772593989731253000,7.0682529296875,9.286211013793945,3.111863613128662,-0.2932897210121155
1772593989751516000,7.088515869140625,9.287108421325684,3.102586030960083,-0.2959831953048706
1772593989771780000,7.108780029296875,9.287407875061035,3.082834005355835,-0.30137014389038086
1772593989792044000,7.1290439453125,9.290999412536621,3.0759506225585938,-0.29239189624786377
1772593989812307000,7.149306884765625,9.289502143859863,3.066373825073242,-0.30555999279022217
1772593989832571000,7.16957080078125,9.292495727539062,3.061884641647339,-0.30526071786880493
1772593989852835000,7.1898349609375,9.305962562561035,3.0597896575927734,-0.3115454912185669
1772593989873098000,7.210097900390625,9.307758331298828,3.0591912269592285,-0.3064578175544739
1772593989893362000,7.23036181640625,9.318831443786621,3.0567970275878906,-0.30555999279022217
1772593989913626000,7.250626220703125,9.341876029968262,3.048417329788208,-0.3166331648826599
1772593989933889000,7.270888916015625,9.367613792419434,3.0517094135284424,-0.30945056676864624
1772593989954153000,7.291153076171875,9.364022254943848,3.0451252460479736,-0.30526071786880493
1772593989974417000,7.3114169921875,9.360430717468262,3.0217819213867188,-0.3031657934188843
1772593989994680000,7.33168017578125,9.36821174621582,2.990058660507202,-0.3031657934188843
1772593990014944000,7.351944091796875,9.36701488494873,2.9631237983703613,-0.30226796865463257
1772593990035208000,7.3722080078125,9.363123893737793,2.934094190597534,-0.29478609561920166
1772593990055471000,7.39247119140625,9.365219116210938,2.913743495941162,-0.29867666959762573
1772593990075735000,7.412735107421875,9.361329078674316,2.892794132232666,-0.29807811975479126
1772593990095999000,7.4329990234375,9.360430717468262,2.8784289360046387,-0.30885201692581177
1772593990116262000,7.453261962890625,9.355342864990234,2.8655600547790527,-0.3025672435760498
1772593990136526000,7.473526123046875,9.3427734375,2.847304344177246,-0.3139396905899048
1772593990156790000,7.4937900390625,9.34846019744873,2.838625431060791,-0.3250128924846649
1772593990177054000,7.514053955078125,9.3735990524292,2.820070266723633,-0.3100491166114807
1772593990197317000,7.534317138671875,9.389460563659668,2.819471836090088,-0.309151291847229
1772593990217581000,7.5545810546875,9.41100788116455,2.817676067352295,-0.30945056676864624
1772593990237845000,7.574844970703125,9.425971984863281,2.804208755493164,-0.3172317147254944
1772593990258108000,7.59510791015625,9.447818756103516,2.7871501445770264,-0.3049614429473877
1772593990278372000,7.6153720703125,9.450812339782715,2.784456491470337,-0.309151291847229
1772593990298636000,7.635635986328125,9.43375301361084,2.779668092727661,-0.3106476664543152
1772593990318899000,7.65589892578125,9.416694641113281,2.769792079925537,-0.31932663917541504
1772593990339163000,7.676162841796875,9.424176216125488,2.765901565551758,-0.3064578175544739
1772593990359427000,7.696427001953125,9.430760383605957,2.7638065814971924,-0.30286651849746704
1772593990379690000,7.71668994140625,9.428964614868164,2.7614123821258545,-0.2998737692832947
1772593990399954000,7.736953857421875,9.40592098236084,2.7560253143310547,-0.30137014389038086
1772593990420218000,7.757218017578125,9.402329444885254,2.7560253143310547,-0.3115454912185669
1772593990440481000,7.77748095703125,9.400533676147461,2.7467479705810547,-0.3133411407470703
1772593990460745000,7.797744873046875,9.399636268615723,2.7560253143310547,-0.28969839215278625
1772593990481009000,7.8180087890625,9.395445823669434,2.7560253143310547,-0.27383682131767273
1772593990501272000,7.83827197265625,9.396044731140137,2.7380688190460205,-0.272938996553421
1772593990521536000,7.858535888671875,9.386467933654785,2.737171173095703,-0.2720411717891693
1772593990541800000,7.878800048828125,9.360430717468262,2.737171173095703,-0.28371289372444153
1772593990562063000,7.89906298828125,9.341876029968262,2.719214677810669,-0.2885012924671173
1772593990582327000,7.9193271484375,9.351752281188965,2.6889877319335938,-0.2932897210121155
1772593990602591000,7.939591064453125,9.370306968688965,2.6563668251037598,-0.3073556423187256
1772593990622854000,7.95985400390625,9.363722801208496,2.6437971591949463,-0.31453824043273926
1772593990643118000,7.9801181640625,9.323619842529297,2.639906644821167,-0.2858078181743622
1772593990663382000,8.000382080078126,9.313145637512207,2.6488850116729736,-0.27982231974601746
