time,seconds_elapsed,z,y,x
1772594309598638000,0.22563818359375,0.058246612548828125,-0.04816293716430664,0.03745412826538086
1772594309618780000,0.24577978515625,0.1383519172668457,-0.11621665954589844,0.09454202651977539
1772594309639074000,0.266073974609375,0.1382136344909668,-0.11576032638549805,0.0944828987121582
1772594309659338000,0.286337890625,0.13070154190063477,-0.10949039459228516,0.0901484489440918
1772594309679602000,0.306601806640625,0.13770341873168945,-0.11507034301757812,0.09525489807128906
1772594309699865000,0.326864990234375,0.13641071319580078,-0.11614418029785156,0.0953831672668457
1772594309720129000,0.34712890625,-0.14202547073364258,0.13862991333007812,-0.11368799209594727
1772594309740393000,0.36739306640625,-0.13091659545898438,0.13028192520141602,-0.10605335235595703
1772594309760671000,0.3876708984375,0.14400768280029297,-0.1622467041015625,0.11673259735107422
1772594309780935000,0.407934814453125,0.11745309829711914,-0.13202714920043945,0.09361457824707031
1772594309801199000,0.42819921875,0.04106473922729492,-0.03879499435424805,0.029954910278320312
1772594309821462000,0.4484619140625,-0.030461788177490234,0.029029369354248047,-0.022184371948242188
1772594309841726000,0.468725830078125,-0.31150388717651367,0.3201441764831543,-0.2450094223022461
1772594309861990000,0.488989990234375,-0.6224594116210938,0.7248029708862305,-0.544736385345459
1772594309882253000,0.509253173828125,-0.8057050704956055,1.1088266372680664,-0.8017945289611816
1772594309902517000,0.52951708984375,-0.8490762710571289,1.4480762481689453,-0.9873561859130859
1772594309922781000,0.549781005859375,-0.7561759948730469,1.6223134994506836,-1.0128262042999268
1772594309943044000,0.570044189453125,-0.5385119915008545,1.5712051391601562,-0.8616442680358887
1772594309963308000,0.59030810546875,-0.31793487071990967,1.2872986793518066,-0.6118433475494385
1772594309983572000,0.610572021484375,-0.14976906776428223,0.8926591873168945,-0.3708620071411133
1772594310003835000,0.6308349609375,-0.04686945676803589,0.5094738006591797,-0.19356679916381836
1772594310024099000,0.65109912109375,-0.00037832558155059814,0.03269195556640625,-0.011357307434082031
1772594310044363000,0.671363037109375,-0.012599989771842957,-0.5703639984130859,0.1810157299041748
1772594310064626000,0.6916259765625,-0.038637399673461914,-1.1271991729736328,0.3388338088989258
1772594310084890000,0.71189013671875,-0.07686758041381836,-1.470911979675293,0.42923665046691895
1772594310105154000,0.732154052734375,-0.1038585901260376,-1.6082954406738281,0.4649524688720703
1772594310125417000,0.7524169921875,-0.15492784976959229,-1.5957708358764648,0.4649491310119629
1772594310145681000,0.772680908203125,-0.20663881301879883,-1.3645429611206055,0.4224739074707031
1772594310165945000,0.792945068359375,-0.17519927024841309,-0.8472881317138672,0.2742438316345215
1772594310186209000,0.813208984375,-0.07272839546203613,-0.3120393753051758,0.09770750999450684
1772594310206472000,0.833471923828125,-0.009658336639404297,-0.04161357879638672,0.011656761169433594
1772594310226736000,0.853736083984375,-0.036231279373168945,-0.15787887573242188,0.04124808311462402
1772594310247000000,0.874,-0.12144064903259277,-0.557805061340332,0.14789962768554688
1772594310267263000,0.894262939453125,-0.2576446533203125,-1.298736572265625,0.3482990264892578
1772594310287527000,0.91452685546875,-0.3952484130859375,-2.3191967010498047,0.5930953025817871
1772594310307791000,0.934791015625,-0.5326919555664062,-3.5479774475097656,0.8312385082244873
1772594310328054000,0.955053955078125,-0.5992704629898071,-4.792209625244141,1.0329039096832275
1772594310348318000,0.97531787109375,-0.5973527431488037,-5.941922187805176,1.121877670288086
1772594310368582000,0.995581787109375,-0.6875382661819458,-7.006313323974609,1.2329459190368652
1772594310388845000,1.015844970703125,-0.9039516448974609,-7.707322120666504,1.400263786315918
1772594310409109000,1.03610888671875,-1.1369364261627197,-7.824094772338867,1.5541881322860718
1772594310429373000,1.056373046875,-1.2248263359069824,-7.254749298095703,1.4816620349884033
1772594310449636000,1.076635986328125,-1.2470290660858154,-6.284006118774414,1.239514708518982
1772594310469900000,1.096900146484375,-1.1475441455841064,-4.941333770751953,0.9283018112182617
1772594310490164000,1.1171640625,-0.8812510967254639,-3.4116554260253906,0.6367216110229492
1772594310510427000,1.137427001953125,-0.5207300186157227,-1.817068099975586,0.37134838104248047
1772594310530691000,1.157691162109375,-0.05620908737182617,-0.17088031768798828,0.03962564468383789
1772594310550955000,1.177955078125,0.5374643802642822,1.427657127380371,-0.386887788772583
1772594310571218000,1.198218017578125,1.220506191253662,2.881105899810791,-0.8897290229797363
1772594310591482000,1.218482177734375,1.9069242477416992,4.131376266479492,-1.3890677690505981
1772594310611746000,1.23874609375,2.410413980484009,5.106380939483643,-1.7574089765548706
1772594310632009000,1.259009033203125,2.435554027557373,5.830021858215332,-2.1719727516174316
1772594310652273000,1.27927294921875,1.8058204650878906,6.50137996673584,-2.770514488220215
1772594310672537000,1.299537109375,0.7568700313568115,6.922335624694824,-3.3542816638946533
1772594310692800000,1.319800048828125,0.1997768133878708,7.037270545959473,-4.003469467163086
1772594310713064000,1.34006396484375,0.43667131662368774,7.225712776184082,-4.437556266784668
1772594310733328000,1.360327880859375,3.720402717590332,6.794447898864746,-3.6656880378723145
1772594310753591000,1.380591064453125,3.9974007606506348,6.233489990234375,-3.098590135574341
1772594310773855000,1.40085498046875,3.073974609375,5.708621978759766,-2.237964630126953
1772594310794119000,1.421118896484375,1.9253120422363281,4.401183128356934,-1.4655306339263916
1772594310814382000,1.441382080078125,0.8968946933746338,2.441303253173828,-0.7255406379699707
1772594310834646000,1.46164599609375,0.037503719329833984,0.11657524108886719,-0.030395984649658203
1772594310854910000,1.481909912109375,-0.6874327659606934,-2.3420419692993164,0.5152990818023682
1772594310875173000,1.502173095703125,-1.3370287418365479,-4.859164237976074,0.9409351348876953
1772594310895437000,1.52243701171875,-1.941211223602295,-7.400399208068848,1.2978252172470093
1772594310915701000,1.542700927734375,-2.435472011566162,-9.629448890686035,1.5875566005706787
1772594310935964000,1.5629638671875,-2.6131017208099365,-11.361652374267578,1.8214731216430664
1772594310956228000,1.58322802734375,-2.74629282951355,-12.237768173217773,1.8296719789505005
1772594310976492000,1.603491943359375,-2.738584280014038,-12.1156644821167,1.7090284824371338
1772594310996755000,1.6237548828125,-2.679901599884033,-11.126309394836426,1.4582140445709229
1772594311017019000,1.644018798828125,-2.408529758453369,-9.445958137512207,1.189967393875122
1772594311037283000,1.664282958984375,-1.9677667617797852,-7.377485275268555,0.9424753189086914
1772594311057546000,1.6845458984375,-1.4429011344909668,-5.154620170593262,0.7293126583099365
1772594311077810000,1.704809814453125,-0.8654334545135498,-2.884552001953125,0.4670346975326538
1772594311098074000,1.72507421875,-0.19828176498413086,-0.5974264144897461,0.11557507514953613
1772594311118337000,1.7453369140625,0.5235755443572998,1.4106688499450684,-0.3182491064071655
1772594311138601000,1.76560107421875,1.299255132675171,3.090874671936035,-0.8316652774810791
1772594311158865000,1.785864990234375,2.010586738586426,4.324848175048828,-1.3857650756835938
1772594311179128000,1.806128173828125,2.5256285667419434,5.164949417114258,-2.1203114986419678
1772594311199392000,1.82639208984375,2.3347110748291016,5.795729160308838,-3.1936452388763428
1772594311219656000,1.846656005859375,1.97646963596344,6.1352009773254395,-4.1457695960998535
1772594311239919000,1.866919189453125,1.8685811758041382,6.0111846923828125,-5.14884090423584
1772594311260183000,1.88718310546875,1.9367237091064453,5.481595516204834,-6.184948444366455
1772594311280447000,1.907447021484375,2.4576613903045654,4.943453788757324,-6.720273494720459
1772594311300710000,1.9277099609375,4.119826316833496,4.8050689697265625,-5.987521648406982
1772594311320974000,1.94797412109375,5.686763286590576,4.578227519989014,-3.6172702312469482
1772594311341238000,1.968238037109375,4.541392803192139,5.177974700927734,-2.0119855403900146
1772594311361501000,1.9885009765625,2.666320562362671,4.882429122924805,-1.284675121307373
1772594311381765000,2.00876513671875,1.2439379692077637,3.2970633506774902,-0.6547832489013672
1772594311402029000,2.029029052734375,0.26796412467956543,0.9298601150512695,-0.17011356353759766
1772594311422292000,2.0492919921875,-0.455031156539917,-1.8154067993164062,0.32907724380493164
1772594311442556000,2.069555908203125,-1.0746867656707764,-4.59543514251709,0.8027839660644531
1772594311462820000,2.089820068359375,-1.6169724464416504,-7.16428279876709,1.237295389175415
1772594311483084000,2.110083984375,-2.0422942638397217,-9.286859512329102,1.5637421607971191
1772594311503347000,2.130346923828125,-2.294161796569824,-10.834721565246582,1.7547208070755005
1772594311523611000,2.15061083984375,-2.2202610969543457,-11.637361526489258,1.7998714447021484
1772594311543875000,2.170875,-2.1380116939544678,-11.547018051147461,1.7342615127563477
1772594311564138000,2.191137939453125,-2.121335983276367,-10.541776657104492,1.55857253074646
1772594311584402000,2.21140185546875,-1.9744768142700195,-8.872596740722656,1.327305793762207
1772594311604666000,2.231666015625,-1.7095847129821777,-6.6985931396484375,1.0116126537322998
1772594311624929000,2.251928955078125,-1.2470686435699463,-4.252106666564941,0.6294608116149902
1772594311645193000,2.27219287109375,-0.6057529449462891,-1.8139066696166992,0.2599456310272217
1772594311665457000,2.292456787109375,0.1703038215637207,0.4452838897705078,-0.05927455425262451
1772594311685720000,2.312719970703125,1.006242036819458,2.339205741882324,-0.3005436658859253
1772594311705984000,2.33298388671875,1.8373336791992188,3.8220319747924805,-0.545749843120575
1772594311726248000,2.353248046875,2.5060575008392334,4.873595237731934,-0.938369631767273
1772594311746511000,2.373510986328125,2.9234471321105957,5.626977920532227,-1.6230485439300537
1772594311766775000,2.393775146484375,2.792107105255127,6.168364524841309,-2.5057902336120605
1772594311787039000,2.4140390625,2.342052936553955,6.4117865562438965,-3.558161973953247
1772594311807302000,2.434302001953125,1.7299399375915527,6.5059990882873535,-4.400662422180176
1772594311827566000,2.454566162109375,0.7051516175270081,6.4207000732421875,-5.191873073577881
1772594311847830000,2.474830078125,0.4367666244506836,6.008157730102539,-5.96311616897583
1772594311868093000,2.495093017578125,3.1698923110961914,5.902132034301758,-5.17057466506958
1772594311888357000,2.515357177734375,4.306585311889648,5.706203460693359,-3.39378023147583
1772594311908621000,2.53562109375,3.212251663208008,5.604093551635742,-2.0570778846740723
1772594311928884000,2.555884033203125,1.958945393562317,4.498283863067627,-1.1975643634796143
1772594311949148000,2.57614794921875,0.8900554180145264,2.4889883995056152,-0.5549800395965576
1772594311969412000,2.596412109375,-0.013545036315917969,-0.04395484924316406,0.009245038032531738
1772594311989675000,2.616675048828125,-0.7948153018951416,-2.766427993774414,0.5593667030334473
1772594312009939000,2.63693896484375,-1.496953010559082,-5.413023948669434,1.0723671913146973
1772594312030203000,2.657202880859375,-2.1159720420837402,-7.696807861328125,1.454219102859497
1772594312050466000,2.677466064453125,-2.6287381649017334,-9.613914489746094,1.718090295791626
1772594312070730000,2.69772998046875,-2.836865186691284,-10.946779251098633,1.9018727540969849
1772594312090994000,2.717993896484375,-2.895186424255371,-11.449050903320312,1.9175456762313843
1772594312111257000,2.738257080078125,-2.850198745727539,-10.967175483703613,1.7974392175674438
1772594312131521000,2.75852099609375,-2.659912109375,-9.718955993652344,1.568505048751831
1772594312151785000,2.778784912109375,-2.260105609893799,-7.85423469543457,1.2351126670837402
1772594312172048000,2.7990478515625,-1.7087135314941406,-5.555192947387695,0.8509194850921631
1772594312192312000,2.81931201171875,-1.036264419555664,-3.1509017944335938,0.4694695472717285
1772594312212576000,2.839575927734375,-0.2721395492553711,-0.7531833648681641,0.10892224311828613
1772594312232839000,2.8598388671875,0.4954097270965576,1.2525382041931152,-0.19343888759613037
1772594312253103000,2.88010302734375,1.2807707786560059,2.9473819732666016,-0.5442260503768921
1772594312273367000,2.900366943359375,1.899549961090088,4.308416843414307,-0.9817969799041748
1772594312293630000,2.9206298828125,2.2093636989593506,5.276312828063965,-1.5694146156311035
1772594312313894000,2.940893798828125,2.169487237930298,5.899680137634277,-2.1791977882385254
1772594312334158000,2.961157958984375,2.0959393978118896,6.22377347946167,-2.781503438949585
1772594312354421000,2.9814208984375,2.132906198501587,6.319465637207031,-3.351094961166382
1772594312374685000,3.001684814453125,2.7571544647216797,6.274666786193848,-3.533874034881592
1772594312394949000,3.02194921875,3.9821650981903076,5.822518348693848,-3.4851233959198
1772594312415212000,3.0422119140625,5.265949726104736,4.966989040374756,-2.239192008972168
1772594312435476000,3.06247607421875,5.046465873718262,4.611373424530029,-1.3620655536651611
1772594312455740000,3.082739990234375,3.7228219509124756,4.501744270324707,-0.8888043165206909
1772594312476003000,3.103003173828125,2.2128472328186035,3.4916281700134277,-0.7469497919082642
1772594312496267000,3.12326708984375,0.8682665824890137,1.7169427871704102,-0.40560269355773926
1772594312516531000,3.143531005859375,-0.21117544174194336,-0.4959754943847656,0.1151580810546875
1772594312536794000,3.163794189453125,-1.039011001586914,-2.8033323287963867,0.6197454929351807
1772594312557058000,3.18405810546875,-1.7297556400299072,-5.178354263305664,1.1057391166687012
1772594312577322000,3.204322021484375,-2.254642963409424,-7.341296195983887,1.5521912574768066
1772594312597585000,3.2245849609375,-2.6106605529785156,-9.203832626342773,1.9239654541015625
1772594312617849000,3.24484912109375,-2.687309741973877,-10.532632827758789,2.286465644836426
1772594312638113000,3.265113037109375,-2.6910133361816406,-11.11811351776123,2.4802656173706055
1772594312658376000,3.2853759765625,-2.6500484943389893,-10.809048652648926,2.46358585357666
1772594312678640000,3.30564013671875,-2.503737688064575,-9.58053970336914,2.1440060138702393
1772594312698904000,3.325904052734375,-2.2475385665893555,-7.764204025268555,1.6675446033477783
1772594312719167000,3.3461669921875,-1.7772712707519531,-5.5892133712768555,1.1950798034667969
1772594312739431000,3.366430908203125,-1.1828584671020508,-3.420503616333008,0.7559795379638672
1772594312759695000,3.386695068359375,-0.4834756851196289,-1.2839164733886719,0.308255672454834
1772594312779959000,3.406958984375,0.26545119285583496,0.6383457183837891,-0.16901421546936035
1772594312800222000,3.427221923828125,1.0144915580749512,2.2067670822143555,-0.6704423427581787
1772594312840750000,3.46775,2.42801833152771,4.515993595123291,-1.5981963872909546
1772594312861013000,3.488012939453125,2.7275407314300537,5.368374824523926,-2.0727698802948
1772594312881277000,3.50827685546875,2.3839104175567627,6.084288597106934,-2.592495918273926
1772594312901541000,3.528541015625,1.6012964248657227,6.6819610595703125,-3.0695786476135254
1772594312921804000,3.548803955078125,1.024767279624939,7.029489994049072,-3.3495166301727295
1772594312942068000,3.56906787109375,0.8701140880584717,7.271291732788086,-3.5786960124969482
1772594312962332000,3.589331787109375,1.8770036697387695,7.539130210876465,-3.096972703933716
1772594312982595000,3.609594970703125,4.719748497009277,6.394209861755371,-1.5780208110809326
1772594313002859000,3.62985888671875,4.55344295501709,5.680877685546875,-0.6303325891494751
1772594313023123000,3.650123046875,3.2282724380493164,5.125650405883789,-0.34716030955314636
1772594313043386000,3.67038623046875,1.8195972442626953,3.774691581726074,-0.34058019518852234
1772594313063650000,3.690650146484375,0.6623690128326416,1.6608119010925293,-0.23583543300628662
1772594313083914000,3.7109140625,-0.28391408920288086,-0.8211441040039062,0.13446295261383057
1772594313104177000,3.731177001953125,-1.0311791896820068,-3.3363237380981445,0.5681251287460327
1772594313124441000,3.751441162109375,-1.6465327739715576,-5.709952354431152,0.9744155406951904
1772594313144705000,3.771705078125,-2.168471574783325,-7.788360595703125,1.3191978931427002
1772594313185232000,3.81223193359375,-2.5823404788970947,-10.694881439208984,1.839402675628662
1772594313205496000,3.83249609375,-2.5528035163879395,-11.055980682373047,1.9463021755218506
1772594313225759000,3.852759033203125,-2.4249727725982666,-10.432719230651855,1.9676494598388672
1772594313246023000,3.87302294921875,-2.2038185596466064,-8.99187183380127,1.8181757926940918
1772594313266287000,3.893287109375,-1.870628833770752,-6.951852798461914,1.3817486763000488
1772594313286550000,3.913550048828125,-1.3516652584075928,-4.568658828735352,0.910167932510376
1772594313306814000,3.93381396484375,-0.7140474319458008,-2.204965591430664,0.4550328254699707
1772594313327078000,3.954077880859375,-0.01926708221435547,-0.05358695983886719,0.011997222900390625
1772594313347341000,3.974341064453125,0.6979978084564209,1.7408490180969238,-0.4430810213088989
1772594313367605000,3.99460498046875,1.47739839553833,3.238844871520996,-0.9647388458251953
1772594313387869000,4.014868896484375,2.250324010848999,4.306765079498291,-1.6360656023025513
1772594313408132000,4.035132080078125,2.89752459526062,4.976593017578125,-2.43050217628479
1772594313428396000,4.05539599609375,3.1574854850769043,5.465654373168945,-2.9686224460601807
1772594313448660000,4.075659912109375,2.936002254486084,6.024402141571045,-3.3263659477233887
1772594313468923000,4.0959228515625,2.135375738143921,6.506043910980225,-3.7747316360473633
1772594313489187000,4.11618701171875,1.5053201913833618,6.784513473510742,-3.970000982284546
1772594313509451000,4.136450927734375,2.568991184234619,6.615397930145264,-3.6812613010406494
1772594313529714000,4.1567138671875,3.4173460006713867,6.115839004516602,-3.0739259719848633
1772594313549978000,4.17697802734375,3.218318223953247,5.739335060119629,-2.152365207672119
1772594313570242000,4.197241943359375,2.2872676849365234,4.96500825881958,-1.2406401634216309
1772594313590505000,4.2175048828125,1.3045415878295898,3.3504018783569336,-0.7294337749481201
1772594313610769000,4.237768798828125,0.4179198741912842,1.231801986694336,-0.2708040475845337
1772594313631033000,4.258033203125,-0.3418314456939697,-1.0773515701293945,0.24372482299804688
1772594313651296000,4.2782958984375,-1.013951063156128,-3.3262014389038086,0.7382497787475586
1772594313671560000,4.298559814453125,-1.586707592010498,-5.440153121948242,1.135987401008606
1772594313691824000,4.31882421875,-2.0719332695007324,-7.425745010375977,1.431185007095337
1772594313712087000,4.339087158203125,-2.332385540008545,-9.134492874145508,1.6660763025283813
1772594313732351000,4.35935107421875,-2.483253002166748,-10.403966903686523,1.8008179664611816
1772594313752615000,4.379614990234375,-2.5498647689819336,-10.991523742675781,1.8740918636322021
1772594313772878000,4.399878173828125,-2.5237553119659424,-10.744123458862305,1.8803809881210327
1772594313793142000,4.42014208984375,-2.294628858566284,-9.594184875488281,1.676140308380127
1772594313813406000,4.440406005859375,-2.019998788833618,-7.854658126831055,1.3231784105300903
1772594313833669000,4.460669189453125,-1.6717345714569092,-5.901482582092285,0.9613964557647705
1772594313853933000,4.48093310546875,-1.1252987384796143,-3.6620378494262695,0.6145036220550537
1772594313874197000,4.501197021484375,-0.5227639675140381,-1.5272102355957031,0.28954195976257324
1772594313894460000,4.5214599609375,0.16118121147155762,0.4131031036376953,-0.0932542085647583
1772594313914724000,4.54172412109375,0.9485361576080322,2.0787229537963867,-0.5781838893890381
1772594313934988000,4.561988037109375,1.829845666885376,3.413806915283203,-1.2220057249069214
1772594313955251000,4.5822509765625,2.7600221633911133,4.257517337799072,-2.0590555667877197
1772594313975515000,4.602514892578125,3.6579482555389404,4.501424312591553,-3.1333065032958984
1772594314016042000,4.6430419921875,4.313075065612793,3.837245225906372,-5.3526458740234375
1772594314036306000,4.663305908203125,3.6251564025878906,3.255293846130371,-6.7450056076049805
1772594314056570000,4.683570068359375,3.9719314575195312,3.505998134613037,-6.499879837036133
1772594314076834000,4.703833984375,4.842050552368164,4.0265350341796875,-5.327027320861816
1772594314097097000,4.724096923828125,4.8558149337768555,4.531962871551514,-3.7780961990356445
1772594314117361000,4.74436083984375,3.528777599334717,5.171335220336914,-2.9250316619873047
1772594314137625000,4.764625,2.042473793029785,4.72391939163208,-1.9858111143112183
1772594314157888000,4.784887939453125,0.9647802114486694,3.021514892578125,-1.171727180480957
1772594314178152000,4.80515185546875,0.2337501049041748,0.9040403366088867,-0.3272228240966797
1772594314198416000,4.825415771484375,-0.2894480228424072,-1.2779531478881836,0.46009206771850586
1772594314218679000,4.845678955078125,-0.7246685028076172,-3.4991416931152344,1.2838382720947266
1772594314238943000,4.86594287109375,-1.1055164337158203,-5.660844802856445,2.1156394481658936
1772594314259207000,4.88620703125,-1.343076467514038,-7.594032287597656,2.8740177154541016
1772594314279470000,4.906469970703125,-1.4442505836486816,-9.067612648010254,3.5111708641052246
1772594314299734000,4.926734130859375,-1.3989264965057373,-9.836153984069824,3.929677724838257
1772594314319998000,4.946998046875,-1.4338746070861816,-9.962540626525879,4.14211368560791
1772594314340261000,4.96726123046875,-1.4648706912994385,-9.22325611114502,4.022737503051758
1772594314360525000,4.987525146484375,-1.390120029449463,-7.725852966308594,3.498079776763916
1772594314380789000,5.0077890625,-1.2055270671844482,-5.910615921020508,2.8639416694641113
1772594314401052000,5.028052001953125,-0.8840277194976807,-3.9983749389648438,2.058790683746338
1772594314421316000,5.048316162109375,-0.4562718868255615,-1.9414691925048828,1.060133457183838
1772594314441580000,5.068580078125,0.020762205123901367,0.08089733123779297,-0.04821634292602539
1772594314461843000,5.088843017578125,0.520017147064209,1.8274669647216797,-1.2097206115722656
1772594314482107000,5.10910693359375,1.023031234741211,3.103806495666504,-2.305814266204834
1772594314502371000,5.12937109375,1.4992635250091553,3.943908929824829,-3.3358771800994873
1772594314542898000,5.16989794921875,2.5260841846466064,4.369266033172607,-5.033525466918945
1772594314563162000,5.190162109375,2.5245375633239746,4.382572174072266,-5.725794792175293
1772594314583425000,5.210425048828125,2.6296932697296143,4.400318145751953,-6.189578056335449
1772594314603689000,5.23068896484375,3.9512906074523926,3.9170844554901123,-5.9975666999816895
1772594314623953000,5.250952880859375,4.727660655975342,3.902897357940674,-5.005148887634277
1772594314644216000,5.271216064453125,4.500229835510254,4.545426368713379,-3.679818630218506
1772594314664480000,5.29147998046875,3.4894895553588867,4.476829528808594,-2.5745034217834473
1772594314684744000,5.311743896484375,2.2770936489105225,3.3448486328125,-1.7153778076171875
1772594314705007000,5.332007080078125,1.0765862464904785,1.7234649658203125,-0.7931387424468994
1772594314725271000,5.35227099609375,-0.08235502243041992,-0.14445734024047852,0.06072521209716797
1772594314745535000,5.372534912109375,-1.0951910018920898,-2.1234302520751953,0.8193943500518799
1772594314765798000,5.3927978515625,-1.8946123123168945,-4.015799522399902,1.4740114212036133
1772594314786062000,5.41306201171875,-2.5764918327331543,-5.7979021072387695,2.073460817337036
1772594314806326000,5.433325927734375,-3.110924482345581,-7.381217956542969,2.62136173248291
1772594314826589000,5.4535888671875,-3.577481269836426,-8.591367721557617,3.069545030593872
1772594314846853000,5.47385302734375,-3.8530123233795166,-9.309032440185547,3.390739917755127
1772594314867117000,5.494116943359375,-3.810197591781616,-9.285446166992188,3.4506587982177734
1772594314887380000,5.5143798828125,-3.4253127574920654,-8.53559398651123,3.1338889598846436
1772594314907644000,5.534643798828125,-3.062692642211914,-7.292738914489746,2.727139472961426
1772594314927908000,5.554908203125,-2.6471757888793945,-5.795125961303711,2.2379300594329834
1772594314948171000,5.5751708984375,-2.039353847503662,-4.134625434875488,1.7119159698486328
1772594314968435000,5.59543505859375,-1.328383445739746,-2.4682817459106445,1.1212177276611328
1772594314988699000,5.615698974609375,-0.5182895660400391,-0.8779597282409668,0.43942928314208984
1772594315008962000,5.635962158203125,0.363436222076416,0.5510706901550293,-0.30391573905944824
1772594315029226000,5.65622607421875,1.297245979309082,1.713210105895996,-1.058243989944458
1772594315049490000,5.676489990234375,2.280620574951172,2.4614572525024414,-1.7179522514343262
1772594315069753000,5.696753173828125,3.2811737060546875,2.8210198879241943,-2.3002893924713135
1772594315090017000,5.71701708984375,4.227302074432373,2.908867120742798,-2.721327304840088
1772594315110281000,5.737281005859375,4.885760307312012,3.228567361831665,-3.461090564727783
1772594315130544000,5.757544189453125,5.13496732711792,3.43328857421875,-4.567039966583252
1772594315150808000,5.77780810546875,5.765235424041748,2.885237693786621,-5.033726692199707
1772594315171072000,5.798072021484375,5.919836044311523,2.9918360710144043,-5.08190393447876
1772594315191335000,5.8183349609375,5.066885471343994,4.41146993637085,-4.39980411529541
1772594315211599000,5.83859912109375,3.237689256668091,5.409024715423584,-3.3706955909729004
1772594315231863000,5.858863037109375,1.482727289199829,4.9226813316345215,-2.236821174621582
1772594315252126000,5.8791259765625,0.6054589748382568,3.048236846923828,-1.3217699527740479
1772594315272390000,5.899389892578125,0.1435410976409912,0.7649202346801758,-0.32469844818115234
1772594315292654000,5.919654052734375,-0.2835958003997803,-1.551072120666504,0.6608448028564453
1772594315312917000,5.9399169921875,-0.6840476989746094,-3.8182125091552734,1.5748379230499268
1772594315333181000,5.960180908203125,-1.0230135917663574,-5.986667633056641,2.392542839050293
1772594315353445000,5.980445068359375,-1.2557804584503174,-8.065760612487793,3.1590805053710938
1772594315373709000,6.000708984375,-1.4520659446716309,-9.801018714904785,3.7383573055267334
1772594315393972000,6.020971923828125,-1.538712978363037,-10.8887357711792,4.124480247497559
1772594315414236000,6.04123583984375,-1.57851243019104,-11.205373764038086,4.322455406188965
1772594315434500000,6.0615,-1.608548641204834,-10.66427230834961,4.188259601593018
1772594315454763000,6.081762939453125,-1.5075855255126953,-9.320524215698242,3.6424005031585693
1772594315475027000,6.10202685546875,-1.3546547889709473,-7.486967086791992,2.87593936920166
1772594315495291000,6.122290771484375,-1.139554738998413,-5.498169898986816,2.0569167137145996
1772594315515554000,6.142553955078125,-0.8184475898742676,-3.453035354614258,1.2860796451568604
1772594315535818000,6.16281787109375,-0.4103240966796875,-1.4755020141601562,0.5563347339630127
1772594315556082000,6.18308203125,0.1333625316619873,0.396392822265625,-0.1468188762664795
1772594315576345000,6.203344970703125,0.8906047344207764,2.137028694152832,-0.7496721744537354
1772594315596609000,6.223609130859375,1.8222577571868896,3.574709892272949,-1.058335304260254
1772594315616873000,6.243873046875,2.8694186210632324,4.571889400482178,-0.9363775253295898
1772594315637136000,6.264135986328125,3.907503604888916,5.059596538543701,-0.7109060287475586
1772594315657400000,6.284400146484375,4.7287750244140625,5.240128517150879,-0.44266998767852783
1772594315677664000,6.3046640625,5.063477039337158,5.69276237487793,-0.8294984102249146
1772594315697927000,6.324927001953125,5.1700639724731445,5.984867572784424,-1.857107162475586
1772594315718191000,6.345191162109375,5.613620758056641,5.345788955688477,-2.9086666107177734
1772594315738455000,6.365455078125,5.171482086181641,5.002865791320801,-3.782339572906494
1772594315758718000,6.385718017578125,4.238942623138428,4.972286224365234,-4.044576644897461
1772594315778982000,6.40598193359375,2.831549644470215,4.703428268432617,-3.5897536277770996
1772594315799246000,6.42624609375,1.5257716178894043,3.591127872467041,-2.632124185562134
1772594315819509000,6.446509033203125,0.6856354475021362,2.0347023010253906,-1.295670986175537
1772594315839773000,6.46677294921875,0.08274555206298828,0.2979593276977539,-0.1604156494140625
1772594315860037000,6.487037109375,-0.4027409553527832,-1.6715917587280273,0.7803597450256348
1772594315880300000,6.507300048828125,-0.8169348239898682,-3.7922592163085938,1.56278395652771
1772594315900564000,6.52756396484375,-1.143153190612793,-5.892902374267578,2.222442150115967
1772594315920828000,6.547827880859375,-1.3275456428527832,-8.008794784545898,2.8173015117645264
1772594315941091000,6.568091064453125,-1.4593732357025146,-9.841556549072266,3.3209311962127686
1772594315961355000,6.58835498046875,-1.5110352039337158,-11.307563781738281,3.749237060546875
1772594315981619000,6.608618896484375,-1.5536904335021973,-12.017660140991211,3.804239273071289
1772594316001882000,6.628882080078125,-1.5842738151550293,-11.805445671081543,3.452004909515381
1772594316022146000,6.64914599609375,-1.5097131729125977,-10.66185188293457,3.0132548809051514
1772594316042410000,6.669409912109375,-1.4372107982635498,-9.002107620239258,2.547717571258545
1772594316062673000,6.6896728515625,-1.3276522159576416,-6.9136199951171875,1.9474635124206543
1772594316082937000,6.70993701171875,-1.104835033416748,-4.626445770263672,1.31691312789917
1772594316103201000,6.730200927734375,-0.735213041305542,-2.415224075317383,0.6974673271179199
1772594316123464000,6.7504638671875,-0.13013529777526855,-0.3302955627441406,0.10214972496032715
1772594316143728000,6.77072802734375,0.7290005683898926,1.4314937591552734,-0.4781382083892822
1772594316163992000,6.790991943359375,1.8789522647857666,2.8133115768432617,-1.0269452333450317
1772594316184255000,6.8112548828125,3.206695795059204,3.674135684967041,-1.5824809074401855
1772594316204519000,6.831518798828125,4.560711860656738,3.847590923309326,-2.073221206665039
1772594316224783000,6.851783203125,5.429163455963135,3.821160078048706,-2.36836838722229
1772594316245046000,6.8720458984375,5.444302082061768,4.071399688720703,-2.7532291412353516
1772594316265310000,6.89231005859375,4.111670017242432,4.726304531097412,-3.4117727279663086
1772594316285574000,6.912573974609375,2.292891025543213,4.991209030151367,-3.173529863357544
1772594316305837000,6.932837158203125,1.01853609085083,4.328560829162598,-2.4028658866882324
1772594316326101000,6.95310107421875,0.4774421453475952,3.0904550552368164,-1.490297794342041
1772594316346365000,6.973364990234375,0.26651298999786377,1.5941047668457031,-0.6569192409515381
1772594316366628000,6.993628173828125,-0.020151734352111816,-0.1412515640258789,0.04881596565246582
1772594316386892000,7.01389208984375,-0.24522030353546143,-1.9710636138916016,0.6178584098815918
1772594316407156000,7.034156005859375,-0.3755866289138794,-3.6653480529785156,1.1262192726135254
1772594316427419000,7.0544189453125,-0.44859862327575684,-5.19959831237793,1.596362590789795
1772594316447683000,7.07468310546875,-0.5500974655151367,-6.552544593811035,2.0018482208251953
1772594316467947000,7.094947021484375,-0.6250982284545898,-7.470876693725586,2.294449806213379
1772594316488210000,7.1152099609375,-0.6791187524795532,-7.978212356567383,2.535339832305908
1772594316508474000,7.13547412109375,-0.7590945959091187,-7.904447555541992,2.7297565937042236
1772594316528738000,7.155738037109375,-0.8170335292816162,-7.389212608337402,2.874239444732666
1772594316549001000,7.1760009765625,-0.7816382646560669,-6.6311140060424805,3.043710231781006
1772594316569265000,7.196264892578125,-0.9274232387542725,-5.551788330078125,3.1519622802734375
1772594316589529000,7.216529052734375,-0.9689188003540039,-4.361617088317871,3.131600856781006
1772594316609792000,7.2367919921875,-0.9054977893829346,-3.249417781829834,2.879939079284668
1772594316630056000,7.257055908203125,-0.7332007884979248,-2.266207695007324,2.455531120300293
1772594316650320000,7.27731982421875,-0.46111345291137695,-1.4149665832519531,1.883254051208496
1772594316670584000,7.297583984375,-0.22152972221374512,-0.7810497283935547,1.2531118392944336
1772594316690847000,7.317846923828125,-0.052102744579315186,-0.2480320930480957,0.4762277603149414
1772594316711111000,7.33811083984375,0.00996541976928711,0.1787867546081543,-0.3880147933959961
1772594316731375000,7.358375,-0.12931746244430542,0.5662627220153809,-1.2944660186767578
1772594316751638000,7.378637939453125,-0.5789567232131958,0.8893983364105225,-2.0490121841430664
1772594316771902000,7.39890185546875,-1.280883550643921,1.050973653793335,-2.282501697540283
1772594316792166000,7.419165771484375,-1.9405345916748047,1.1723809242248535,-2.12705135345459
1772594316812429000,7.439428955078125,-2.357574462890625,1.2197871208190918,-1.7825493812561035
1772594316832693000,7.45969287109375,-2.6492996215820312,1.2209274768829346,-1.4690704345703125
1772594316852957000,7.47995703125,-2.712430953979492,1.1320149898529053,-1.2007243633270264
1772594316873220000,7.50022021484375,-2.639773368835449,1.0138943195343018,-1.0590035915374756
1772594316893484000,7.520484130859375,-2.4136838912963867,0.812746524810791,-0.9590559005737305
1772594316913748000,7.540748046875,-1.957486629486084,0.5620957612991333,-0.8145978450775146
1772594316934011000,7.561010986328125,-1.4511499404907227,0.33767521381378174,-0.6475882530212402
1772594316954275000,7.581275146484375,-0.9701042175292969,0.16835618019104004,-0.44997382164001465
1772594316974539000,7.6015390625,-0.5813522338867188,0.0708242654800415,-0.27225732803344727
1772594316994802000,7.621802001953125,-0.2770118713378906,0.021023035049438477,-0.131256103515625
1772594317015066000,7.642066162109375,0.033354759216308594,-0.0011227130889892578,0.01598072052001953
1772594317035330000,7.662330078125,0.2785167694091797,0.0016644559800624847,0.1359724998474121
1772594317055593000,7.682593017578125,0.4117574691772461,0.021959692239761353,0.1998305320739746
1772594317075857000,7.70285693359375,0.47202587127685547,0.047003209590911865,0.21669864654541016
1772594317096121000,7.72312109375,0.42379283905029297,0.05858922004699707,0.18009638786315918
1772594317116384000,7.743384033203125,0.22317028045654297,0.04231381416320801,0.08582305908203125
1772594317136648000,7.76364794921875,-0.05768775939941406,-0.013612031936645508,-0.019455671310424805
1772594317156912000,7.783912109375,-0.30570125579833984,-0.08413004875183105,-0.0904536247253418
1772594317177175000,7.804175048828125,-0.49257946014404297,-0.15590143203735352,-0.13175487518310547
1772594317197439000,7.82443896484375,-0.5190219879150391,-0.18959474563598633,-0.12842535972595215
1772594317217703000,7.844702880859375,-0.5210533142089844,-0.21639156341552734,-0.11815738677978516
1772594317237966000,7.864966064453125,-0.4678153991699219,-0.2122364044189453,-0.0951772928237915
1772594317258230000,7.88522998046875,-0.4487648010253906,-0.21651625633239746,-0.07632291316986084
1772594317278494000,7.905493896484375,-0.4433927536010742,-0.23258113861083984,-0.06529176235198975
1772594317298757000,7.925757080078125,-0.42415714263916016,-0.24051952362060547,-0.048630595207214355
1772594317319021000,7.94602099609375,-0.35398387908935547,-0.20930910110473633,-0.028607606887817383
1772594317339285000,7.966284912109375,-0.21776580810546875,-0.13269329071044922,-0.011992990970611572
1772594317359548000,7.9865478515625,-0.08539676666259766,-0.053487300872802734,-0.0017346441745758057
1772594317379812000,8.00681201171875,0.047267913818359375,0.030329227447509766,-0.0006257891654968262
1772594317400076000,8.027075927734375,0.1439647674560547,0.09303760528564453,-0.006545364856719971
1772594317420339000,8.0473388671875,0.24078845977783203,0.15661191940307617,-0.01831519603729248
1772594317440603000,8.067602783203125,0.33364391326904297,0.2181544303894043,-0.032289981842041016
1772594317460867000,8.0878671875,0.4179534912109375,0.2741537094116211,-0.04446297883987427
1772594317481130000,8.1081298828125,0.5265102386474609,0.33869314193725586,-0.05970722436904907
1772594317501394000,8.128393798828125,0.6191692352294922,0.3904399871826172,-0.06884777545928955
1772594317521658000,8.148658203125,0.6327533721923828,0.39538049697875977,-0.06949520111083984
1772594317541921000,8.168921142578125,0.5877618789672852,0.36655092239379883,-0.06375163793563843
1772594317562185000,8.18918505859375,0.5389547348022461,0.3348851203918457,-0.0525287389755249
1772594317582449000,8.209448974609375,0.4962453842163086,0.30678796768188477,-0.04266589879989624
1772594317602712000,8.229712158203125,0.46108436584472656,0.2829742431640625,-0.034529268741607666
1772594317622976000,8.24997607421875,0.4288597106933594,0.2608199119567871,-0.02762019634246826
1772594317643240000,8.270239990234375,0.39974308013916016,0.2407388687133789,-0.025002896785736084
1772594317663503000,8.290503173828125,0.37195777893066406,0.22194576263427734,-0.022670745849609375
1772594317683767000,8.31076708984375,0.34583473205566406,0.20453643798828125,-0.02055835723876953
1772594317704031000,8.331031005859375,0.3212318420410156,0.1882915496826172,-0.018496155738830566
1772594317724294000,8.3512939453125,0.3004331588745117,0.17459964752197266,-0.016682863235473633
1772594317744558000,8.37155810546875,0.27881431579589844,0.16085577011108398,-0.014935135841369629
1772594317764822000,8.391822021484375,0.25406551361083984,0.14581584930419922,-0.013257414102554321
1772594317785085000,8.4120849609375,0.22642040252685547,0.12949085235595703,-0.011598467826843262
1772594317805349000,8.43234912109375,0.1987628936767578,0.11349725723266602,-0.010017573833465576
1772594317825613000,8.452613037109375,0.17484188079833984,0.0998530387878418,-0.008655637502670288
1772594317845876000,8.4728759765625,0.15544986724853516,0.08893537521362305,-0.007552593946456909
1772594317866140000,8.493139892578125,0.06813621520996094,0.03952217102050781,-0.0033256113529205322
1772594317886404000,8.513404052734375,-0.0163116455078125,-0.009609222412109375,0.0008145570755004883
1772594317906667000,8.5336669921875,-0.09274482727050781,-0.0555877685546875,0.004842221736907959
1772594317926931000,8.553930908203125,-0.16032981872558594,-0.09790802001953125,0.008921921253204346
1772594317947195000,8.57419482421875,-0.21815967559814453,-0.13584280014038086,0.013075828552246094
1772594317967459000,8.594458984375,-0.2658863067626953,-0.16883563995361328,0.017278611660003662
1772594317987722000,8.614721923828125,-0.3058738708496094,-0.19822120666503906,0.02163916826248169
1772594318007986000,8.63498583984375,-0.34339046478271484,-0.22731447219848633,0.026376664638519287
1772594318028250000,8.65525,-0.37760257720947266,-0.255338191986084,0.03128284215927124
1772594318048513000,8.675512939453125,-0.4073200225830078,-0.28115177154541016,0.03620123863220215
1772594318068777000,8.69577685546875,-0.3712582588195801,-0.2578573226928711,0.034653425216674805
1772594318089041000,8.716041015625,-0.33145904541015625,-0.2311248779296875,0.03200936317443848
1772594318109304000,8.736303955078125,-0.2906951904296875,-0.20309162139892578,0.028792381286621094
1772594318129568000,8.756568115234375,-0.25391435623168945,-0.17746448516845703,0.025485873222351074
1772594318149832000,8.77683203125,-0.22072696685791016,-0.1540846824645996,0.022175192832946777
1772594318170095000,8.79709521484375,-0.19208431243896484,-0.13379383087158203,0.019090592861175537
1772594318190359000,8.817359130859375,-0.16693544387817383,-0.11584234237670898,0.01621878147125244
1772594318210623000,8.837623046875,-0.14235448837280273,-0.09825897216796875,0.013382494449615479
1772594318230886000,8.857885986328125,-0.11814212799072266,-0.08101654052734375,0.010681390762329102
1772594318251150000,8.878150146484375,-0.0958094596862793,-0.06519699096679688,0.008287489414215088
1772594318271414000,8.8984140625,-0.07425689697265625,-0.05013751983642578,0.006122589111328125
1772594318291677000,8.918677001953125,-0.055794715881347656,-0.03737783432006836,0.00438767671585083
1772594318311941000,8.938941162109375,-0.041237831115722656,-0.02742290496826172,0.0030855536460876465
1772594318332205000,8.959205078125,-0.029619216918945312,-0.01954936981201172,0.002112746238708496
1772594318352468000,8.979468017578125,-0.021268844604492188,-0.013934135437011719,0.0014508366584777832
1772594318372732000,8.99973193359375,-0.015039443969726562,-0.009781360626220703,0.000984787940979004
1772594318392996000,9.01999609375,-0.011896133422851562,-0.007685184478759766,0.0007480978965759277
1772594318413259000,9.040259033203125,-0.012330055236816406,-0.007909297943115234,0.0007468163967132568
1772594318433523000,9.06052294921875,-0.016101837158203125,-0.010251045227050781,0.0009406805038452148
1772594318453787000,9.080786865234375,-0.0198516845703125,-0.012542724609375,0.0011201202869415283
1772594318474050000,9.101050048828125,-0.023649215698242188,-0.014821052551269531,0.0012905001640319824
1772594318494314000,9.12131396484375,-0.026979446411132812,-0.016757965087890625,0.001421421766281128
