time,seconds_elapsed,z,y,x
1772594309598638000,0.22563818359375,0.0005321126081980765,-0.0009311970788985491,0.0022614786867052317
1772594309618780000,0.24577978515625,-0.0023945067077875137,0.0019954221788793802,0.00026605630409903824
1772594309639074000,0.266073974609375,0.0015963378828018904,-0.003059647511690855,0.004256900865584612
1772594309659338000,0.286337890625,0.0011972533538937569,0.004922041669487953,0.0003990844707004726
1772594309679602000,0.306601806640625,0.0026605629827827215,-0.0039908443577587605,-0.0029266192577779293
1772594309699865000,0.326864990234375,-0.0014633096288889647,-0.004655985161662102,-0.0003990844707004726
1772594309720129000,0.34712890625,-0.0013302814913913608,0.0006651407456956804,0.0022614786867052317
1772594309740393000,0.36739306640625,0.001064225216396153,0.0005321126081980765,0.004123872611671686
1772594309760671000,0.3876708984375,-0.10442709922790527,-0.42728641629219055,-0.6755169630050659
1772594309780935000,0.407934814453125,0.08088111877441406,-0.36183658242225647,-0.9315961599349976
1772594309801199000,0.42819921875,0.3051665723323822,-0.23732222616672516,-0.9883991479873657
1772594309821462000,0.4484619140625,0.6237689852714539,0.007582604885101318,-0.6607508063316345
1772594309841726000,0.468725830078125,0.7115675806999207,-0.01888999715447426,0.10243167728185654
1772594309861990000,0.488989990234375,0.6195120811462402,-1.2729463577270508,0.08314259350299835
1772594309882253000,0.509253173828125,0.7033198475837708,-3.9708902835845947,-2.0403857231140137
1772594309902517000,0.52951708984375,1.8477610349655151,-5.433402061462402,-3.821765661239624
1772594309922781000,0.549781005859375,2.4152591228485107,-5.280153274536133,-4.085826873779297
1772594309943044000,0.570044189453125,2.8543851375579834,-4.25330924987793,-3.1274919509887695
1772594309963308000,0.59030810546875,3.49691104888916,-3.1354734897613525,-2.1240603923797607
1772594309983572000,0.610572021484375,3.747668981552124,-2.3395659923553467,-1.2341021299362183
1772594310003835000,0.6308349609375,3.051532745361328,-1.4742180109024048,-0.2954555153846741
1772594310024099000,0.65109912109375,1.9496605396270752,-0.9512842893600464,-0.1251794844865799
1772594310044363000,0.671363037109375,0.9285364747047424,-0.6824344396591187,-0.7458888292312622
1772594310064626000,0.6916259765625,0.3639650344848633,-0.24304243922233582,-1.7369486093521118
1772594310084890000,0.71189013671875,0.12345012277364731,-0.20220279693603516,-2.4020893573760986
1772594310105154000,0.732154052734375,-0.10828491300344467,-0.27417102456092834,-2.530062437057495
1772594310125417000,0.7524169921875,-0.3803274929523468,-0.10229864716529846,-2.191239833831787
1772594310145681000,0.772680908203125,-0.6329479217529297,0.06678013503551483,-2.0011425018310547
1772594310165945000,0.792945068359375,-1.0767298936843872,-0.14446857571601868,-2.975839853286743
1772594310186209000,0.813208984375,-1.0051606893539429,-0.13409237563610077,-3.4157638549804688
1772594310206472000,0.833471923828125,0.636406660079956,0.5209382176399231,-1.1802257299423218
1772594310226736000,0.853736083984375,3.3100063800811768,1.3552907705307007,1.4653050899505615
1772594310247000000,0.874,3.843848466873169,1.7917561531066895,2.86808705329895
1772594310267263000,0.894262939453125,1.1188998222351074,1.306868553161621,1.3465110063552856
1772594310287527000,0.91452685546875,-1.007688283920288,0.6917464137077332,0.4018780589103699
1772594310307791000,0.934791015625,-0.681370198726654,0.8871647715568542,0.2995794117450714
1772594310328054000,0.955053955078125,0.20260187983512878,0.6771132946014404,0.31195101141929626
1772594310348318000,0.97531787109375,0.7327190637588501,0.2772306799888611,0.3074280619621277
1772594310368582000,0.995581787109375,0.9394447803497314,-0.29279497265815735,0.12251892685890198
1772594310388845000,1.015844970703125,0.8090772032737732,-0.8962106704711914,-0.42622220516204834
1772594310409109000,1.03610888671875,0.38950642943382263,-0.9861376881599426,-1.0265783071517944
1772594310429373000,1.056373046875,-0.06225717440247536,-0.5543283224105835,-1.4313828945159912
1772594310449636000,1.076635986328125,-0.39256608486175537,-0.14619794487953186,-1.957775354385376
1772594310469900000,1.096900146484375,-0.43167635798454285,-0.10362893342971802,-2.766453504562378
1772594310490164000,1.1171640625,-0.2782948911190033,-0.02327992580831051,-3.08119797706604
1772594310510427000,1.137427001953125,-0.4391259253025055,0.4417864978313446,-1.9842479228973389
1772594310530691000,1.157691162109375,-0.8105405569076538,1.0067570209503174,-0.45641958713531494
1772594310550955000,1.177955078125,-1.7211182117462158,0.8947473764419556,0.14034469425678253
1772594310571218000,1.198218017578125,-1.6765538454055786,1.3425201177597046,0.48927754163742065
1772594310591482000,1.218482177734375,-0.3940293788909912,0.8334213495254517,0.19448715448379517
1772594310611746000,1.23874609375,1.5245026350021362,0.4254240393638611,0.6313515901565552
1772594310632009000,1.259009033203125,2.859307050704956,0.4258231222629547,1.475947380065918
1772594310652273000,1.27927294921875,1.8542793989181519,0.8255727291107178,2.148404598236084
1772594310672537000,1.299537109375,-1.858802318572998,0.9593990445137024,1.9646928310394287
1772594310692800000,1.319800048828125,-4.9731245040893555,0.6497095227241516,1.195923089981079
1772594310713064000,1.34006396484375,-5.829958915710449,1.0466655492782593,1.738677978515625
1772594310733328000,1.360327880859375,-4.997335433959961,-0.9542109370231628,-3.0938358306884766
1772594310753591000,1.380591064453125,-0.8029579520225525,-7.431351661682129,-13.041415214538574
1772594310773855000,1.40085498046875,1.951522946357727,-6.734416961669922,-6.465567111968994
1772594310794119000,1.421118896484375,3.3340845108032227,-2.1652991771698,3.002312421798706
1772594310814382000,1.441382080078125,3.5063560009002686,-0.400281697511673,5.261529445648193
1772594310834646000,1.46164599609375,2.605090379714966,0.5220024585723877,4.401901721954346
1772594310854910000,1.481909912109375,0.6433241367340088,0.9498209953308105,2.995927095413208
1772594310875173000,1.502173095703125,1.1894047260284424,0.9437016844749451,1.8481601476669312
1772594310895437000,1.52243701171875,1.3771073818206787,0.7865954637527466,1.1093217134475708
1772594310915701000,1.542700927734375,0.9846743941307068,0.3671576976776123,0.6892188787460327
1772594310935964000,1.5629638671875,0.47504353523254395,-0.043766263872385025,0.2918637692928314
1772594310956228000,1.58322802734375,0.1415419578552246,-0.3571805953979492,-0.06717921793460846
1772594310976492000,1.603491943359375,-0.11826203018426895,-0.4934014081954956,-0.5051078796386719
1772594310996755000,1.6237548828125,0.07728935778141022,-0.5391631126403809,-1.0272433757781982
1772594311017019000,1.644018798828125,0.3896394670009613,-0.6531682014465332,-1.7208521366119385
1772594311037283000,1.664282958984375,0.2602030634880066,-0.3316391706466675,-2.1702213287353516
1772594311057546000,1.6845458984375,-0.3354969918727875,0.3571805953979492,-1.360212802886963
1772594311077810000,1.704809814453125,-0.5909110307693481,1.2589784860610962,-0.1861063838005066
1772594311098074000,1.72507421875,-1.4288554191589355,1.617356300354004,0.4725160002708435
1772594311118337000,1.7453369140625,-2.0052664279937744,1.515190601348877,0.5205391645431519
1772594311138601000,1.76560107421875,-2.1958956718444824,1.2529921531677246,0.19528532028198242
1772594311158865000,1.785864990234375,-1.804526925086975,0.778214693069458,-0.33935481309890747
1772594311179128000,1.806128173828125,-1.1661248207092285,0.17932194471359253,-0.9845413565635681
1772594311199392000,1.82639208984375,-0.7766183614730835,-0.30317115783691406,-1.7558386325836182
1772594311219656000,1.846656005859375,-1.1079914569854736,-0.17639532685279846,-1.8770272731781006
1772594311239919000,1.866919189453125,-1.5371402502059937,0.7051822543144226,0.032458867877721786
1772594311260183000,1.88718310546875,-3.655613660812378,2.047037124633789,1.6825400590896606
1772594311280447000,1.907447021484375,-8.232447624206543,4.023170471191406,2.2707905769348145
1772594311300710000,1.9277099609375,-7.29340124130249,2.7770957946777344,0.5744155645370483
1772594311320974000,1.94797412109375,0.566433846950531,-4.000821590423584,-4.855527400970459
1772594311341238000,1.968238037109375,6.6500773429870605,-11.685591697692871,-8.083854675292969
1772594311361501000,1.9885009765625,2.2407262325286865,-8.529765129089355,-1.3655339479446411
1772594311381765000,2.00876513671875,4.666228294372559,-1.121427297592163,7.135497093200684
1772594311402029000,2.029029052734375,3.7730774879455566,2.006596565246582,8.74234390258789
1772594311422292000,2.0492919921875,2.1122210025787354,2.3180155754089355,6.341452121734619
1772594311442556000,2.069555908203125,0.5524659156799316,1.9062933921813965,3.682884454727173
1772594311462820000,2.089820068359375,-0.22095976769924164,1.1194318532943726,1.531420111656189
1772594311483084000,2.110083984375,-0.41025882959365845,0.4356671869754791,0.40201106667518616
1772594311503347000,2.130346923828125,-0.4149148166179657,-0.1229180097579956,-0.06278929114341736
1772594311523611000,2.15061083984375,-0.16016589105129242,-0.5287868976593018,-0.35531818866729736
1772594311543875000,2.170875,0.24078094959259033,-0.6590214371681213,-0.7031868100166321
1772594311564138000,2.191137939453125,0.6010211706161499,-0.7965725660324097,-1.1234227418899536
1772594311584402000,2.21140185546875,0.6877555251121521,-0.9752293825149536,-1.6885263919830322
1772594311604666000,2.231666015625,0.5144198536872864,-0.5226675868034363,-2.15598726272583
1772594311624929000,2.251928955078125,0.05281217768788338,-0.2365240603685379,-1.9430091381072998
1772594311645193000,2.27219287109375,-0.5094978213310242,0.06358745694160461,-1.7064851522445679
1772594311665457000,2.292456787109375,-0.7586595416069031,0.3337676227092743,-1.287845492362976
1772594311685720000,2.312719970703125,-0.9580687284469604,0.6366727352142334,-0.3974881172180176
1772594311705984000,2.33298388671875,-1.1556155681610107,0.2737719416618347,0.845526933670044
1772594311726248000,2.353248046875,-1.4970988035202026,0.9172291159629822,1.7305632829666138
1772594311746511000,2.373510986328125,-2.0336012840270996,1.1040006875991821,2.037459135055542
1772594311766775000,2.393775146484375,-2.6300995349884033,1.1038676500320435,2.079097032546997
1772594311787039000,2.4140390625,-3.6630632877349854,1.1444412469863892,1.7630220651626587
1772594311807302000,2.434302001953125,-4.386204242706299,1.2269186973571777,1.6063148975372314
1772594311827566000,2.454566162109375,-4.516172885894775,1.1864781379699707,1.5916818380355835
1772594311847830000,2.474830078125,-4.132519721984863,0.8857014179229736,1.0912299156188965
1772594311868093000,2.495093017578125,-2.654709815979004,-1.6282645463943481,-3.885486364364624
1772594311888357000,2.515357177734375,3.565819501876831,-10.200200080871582,-12.441191673278809
1772594311908621000,2.53562109375,6.932229995727539,-11.043730735778809,-5.689481258392334
1772594311928884000,2.555884033203125,5.713958263397217,-2.8167381286621094,4.589471340179443
1772594311949148000,2.57614794921875,3.4306631088256836,1.840976595878601,7.838817119598389
1772594311969412000,2.596412109375,1.3367998600006104,2.7281413078308105,5.890087604522705
1772594311989675000,2.616675048828125,0.16867969930171967,2.167161703109741,3.3406028747558594
1772594312009939000,2.63693896484375,-0.18850089609622955,1.2157442569732666,1.5798423290252686
1772594312030203000,2.657202880859375,-0.1920926570892334,0.3199326992034912,0.6410626769065857
1772594312050466000,2.677466064453125,0.056403934955596924,-0.39003854990005493,0.18184947967529297
1772594312070730000,2.69772998046875,0.363166868686676,-0.8447287678718567,-0.22601483762264252
1772594312090994000,2.717993896484375,0.5879844427108765,-0.9868028163909912,-0.6552966833114624
1772594312111257000,2.738257080078125,0.7280630469322205,-0.8912886381149292,-1.0933583974838257
1772594312131521000,2.75852099609375,0.6543654799461365,-0.6678013205528259,-1.3454467058181763
1772594312151785000,2.778784912109375,0.4291488230228424,-0.4331396520137787,-1.3660660982131958
1772594312172048000,2.7990478515625,0.25102412700653076,-0.205794557929039,-1.102271318435669
1772594312192312000,2.81931201171875,-0.09072519838809967,0.18557427823543549,-0.4951307773590088
1772594312212576000,2.839575927734375,-0.8853023648262024,0.5615118145942688,0.1636246293783188
1772594312232839000,2.8598388671875,-1.5194475650787354,0.5906450152397156,0.3369603157043457
1772594312253103000,2.88010302734375,-2.0337343215942383,0.4884793758392334,0.010110139846801758
1772594312273367000,2.900366943359375,-2.290611743927002,0.4589471220970154,-0.3413502275943756
1772594312293630000,2.9206298828125,-1.703824520111084,0.4215662181377411,-0.30383628606796265
1772594312313894000,2.940893798828125,-0.7151593565940857,0.8150634765625,0.9173621535301208
1772594312334158000,2.961157958984375,-0.4368644654750824,0.6644756197929382,1.7481229305267334
1772594312354421000,2.9814208984375,-0.5583191514015198,0.7099712491035461,1.107858419418335
1772594312374685000,3.001684814453125,-0.793246865272522,-0.17413385212421417,-1.3117905855178833
1772594312394949000,3.02194921875,-0.9329264163970947,-1.2597765922546387,-3.751260757446289
1772594312415212000,3.0422119140625,-0.9632568359375,-3.474163293838501,-7.652444362640381
1772594312435476000,3.06247607421875,-0.29838213324546814,-6.7562336921691895,-10.319791793823242
1772594312455740000,3.082739990234375,1.2813271284103394,-6.1009368896484375,-5.0488176345825195
1772594312476003000,3.103003173828125,2.8519904613494873,-0.3122170865535736,4.904481887817383
1772594312496267000,3.12326708984375,1.938752293586731,3.5960171222686768,9.357732772827148
1772594312516531000,3.143531005859375,-0.21377624571323395,4.289093494415283,7.805825710296631
1772594312536794000,3.163794189453125,-0.381391704082489,2.2880842685699463,4.966207027435303
1772594312557058000,3.18405810546875,0.32418960332870483,1.3340063095092773,2.8526556491851807
1772594312577322000,3.204322021484375,0.12850520014762878,0.6542324423789978,1.5995304584503174
1772594312597585000,3.2245849609375,0.3420153856277466,0.5676311254501343,0.8354167938232422
1772594312617849000,3.24484912109375,0.15165209770202637,0.29492342472076416,0.2958545982837677
1772594312638113000,3.265113037109375,0.042169924825429916,0.12052350491285324,-0.24796447157859802
1772594312658376000,3.2853759765625,-0.07662421464920044,-0.14845941960811615,-0.688686728477478
1772594312678640000,3.30564013671875,-0.07861963659524918,-0.5106950998306274,-1.1574779748916626
1772594312698904000,3.325904052734375,-0.06691315770149231,-0.5672320127487183,-1.7853708267211914
1772594312719167000,3.3461669921875,-0.20073948800563812,-1.1940606832504272,-2.4793787002563477
1772594312739431000,3.366430908203125,-0.29505643248558044,-0.8112056851387024,-2.3941075801849365
1772594312759695000,3.386695068359375,-0.2486296147108078,0.2623315155506134,-1.0237846374511719
1772594312779959000,3.406958984375,-0.749081552028656,1.2619050741195679,0.6717921495437622
1772594312800222000,3.427221923828125,-1.5715945959091187,1.7207190990447998,1.5694661140441895
1772594312820486000,3.44748583984375,-2.0669913291931152,1.5761175155639648,1.4845942258834839
1772594312850881000,3.477881103515625,-1.123289704322815,0.725934624671936,0.8388755321502686
1772594312881277000,3.50827685546875,0.40480467677116394,-0.008779858238995075,0.9112428426742554
1772594312901541000,3.528541015625,0.8847702145576477,0.25980398058891296,2.1530606746673584
1772594312921804000,3.548803955078125,1.0154038667678833,-0.12823913991451263,1.312322735786438
1772594312942068000,3.56906787109375,1.087239146232605,-0.9048575162887573,-0.681902289390564
1772594312962332000,3.589331787109375,1.2717491388320923,-1.5016217231750488,-1.8384491205215454
1772594312982595000,3.609594970703125,1.663383960723877,-3.7627012729644775,-5.781270503997803
1772594313002859000,3.62985888671875,0.5173465013504028,-6.902963638305664,-11.265089988708496
1772594313023123000,3.650123046875,0.5454154014587402,-3.561429738998413,-4.003083229064941
1772594313043386000,3.67038623046875,1.5612183809280396,1.0547802448272705,4.867898941040039
1772594313063650000,3.690650146484375,0.826370894908905,2.870082378387451,7.103570461273193
1772594313083914000,3.7109140625,-0.745489776134491,2.945110321044922,5.5951642990112305
1772594313104177000,3.731177001953125,-1.1416475772857666,2.3929104804992676,3.5813839435577393
1772594313124441000,3.751441162109375,-0.48595184087753296,1.5467183589935303,2.0661933422088623
1772594313144705000,3.771705078125,0.039110276848077774,0.8150634765625,1.0602344274520874
1772594313164968000,3.791968017578125,0.1283721625804901,0.2907995283603668,0.40813037753105164
1772594313195364000,3.822364013671875,0.1630925089120865,-0.2921298146247864,-0.21470743417739868
1772594313215627000,3.842626953125,0.16069801151752472,-0.4351350963115692,-0.5768100619316101
1772594313235891000,3.862890869140625,-0.0477571077644825,-0.3623686730861664,-0.9926560521125793
1772594313256155000,3.88315478515625,-0.488878458738327,-0.2844142019748688,-1.2787996530532837
1772594313276418000,3.90341796875,-0.9442338347434998,-0.2792260944843292,-1.6272003650665283
1772594313296682000,3.923681884765625,-0.9310640096664429,-0.3171391189098358,-2.1084961891174316
1772594313316946000,3.94394580078125,-0.7392374277114868,-0.08447287976741791,-1.8882015943527222
1772594313337209000,3.964208984375,-0.703718900680542,0.551401674747467,-0.7697008848190308
1772594313357473000,3.98447314453125,-0.7985680103302002,1.0017019510269165,0.1422071009874344
1772594313377737000,4.004737060546875,-1.0471975803375244,1.1239548921585083,0.35305672883987427
1772594313398000000,4.025000244140625,-1.5207778215408325,1.1106520891189575,-0.04935344308614731
1772594313418264000,4.04526416015625,-1.9322339296340942,1.0450692176818848,-0.5521998405456543
1772594313438528000,4.065528076171875,-1.491511583328247,0.8404718637466431,-0.5044427514076233
1772594313458792000,4.0857919921875,-0.12211984395980835,0.8982060551643372,0.926008939743042
1772594313479055000,4.10605517578125,0.4940665662288666,1.2761390209197998,2.6672143936157227
1772594313499319000,4.126319091796875,0.36183658242225647,1.1691844463348389,3.364414930343628
1772594313519583000,4.1465830078125,0.16229434311389923,0.4769059121608734,2.4128646850585938
1772594313539846000,4.166845947265625,0.8646829724311829,-4.010000705718994,-7.194428443908691
1772594313560110000,4.187110107421875,1.0969501733779907,-5.586251258850098,-8.728642463684082
1772594313580374000,4.2073740234375,2.5819435119628906,-1.6757556200027466,-1.2017762660980225
1772594313600637000,4.227636962890625,3.072817325592041,0.5568558573722839,4.122143268585205
1772594313620901000,4.247901123046875,1.2206662893295288,1.4595848321914673,4.2497172355651855
1772594313641165000,4.2681650390625,-0.2772306799888611,1.5056126117706299,2.89695405960083
1772594313661428000,4.288427978515625,-0.47610774636268616,1.056376576423645,1.7610266208648682
1772594313681692000,4.30869189453125,-0.11666569113731384,0.2876068651676178,1.156945824623108
1772594313701956000,4.3289560546875,0.4137175381183624,-0.45641958713531494,1.0910968780517578
1772594313722219000,4.349218994140625,0.7998982667922974,-1.025114893913269,1.0573077201843262
1772594313742483000,4.36948291015625,0.7389714121818542,-1.4396306276321411,0.6913473010063171
1772594313762747000,4.389746826171875,0.4258231222629547,-1.4115617275238037,0.05400943011045456
1772594313783010000,4.410010009765625,0.1525832861661911,-0.900068461894989,-0.4949977397918701
1772594313803274000,4.43027392578125,-0.08593618869781494,-0.2794921398162842,-0.8713343739509583
1772594313823538000,4.450537841796875,-0.4275524914264679,-0.03046344593167305,-1.1298080682754517
1772594313843801000,4.470801025390625,-0.30609777569770813,0.1223858967423439,-1.9072246551513672
1772594313864065000,4.49106494140625,-0.7022556066513062,0.46839213371276855,-2.6761274337768555
1772594313884329000,4.511328857421875,-1.5707963705062866,0.8952794671058655,-2.605090379714966
1772594313904592000,4.531591796875,-2.213721513748169,1.2625701427459717,-2.0973217487335205
1772594313924856000,4.55185595703125,-2.226492166519165,1.422869086265564,-1.395598292350769
1772594313945120000,4.5721201171875,-2.43281888961792,1.10426664352417,-0.8364810347557068
1772594313965383000,4.5923828125,-2.8201968669891357,1.3022125959396362,-0.956871509552002
1772594313985647000,4.612647216796875,-3.0999550819396973,1.7333568334579468,-1.355955958366394
1772594314005911000,4.6329111328125,-2.71071457862854,1.8411096334457397,-1.0336287021636963
1772594314026174000,4.653174072265625,-1.2704188823699951,1.5279613733291626,0.5400943160057068
1772594314046438000,4.67343798828125,-0.4389928877353668,1.1131795644760132,1.657397747039795
1772594314066702000,4.6937021484375,-0.13928046822547913,-0.4429837465286255,1.3970617055892944
1772594314086965000,4.713965087890625,0.5938376784324646,-4.978578567504883,-3.9341745376586914
1772594314107229000,4.73422900390625,1.769673466682434,-7.047299385070801,-4.808169364929199
1772594314127493000,4.7544931640625,3.1278908252716064,-2.991537094116211,1.5939433574676514
1772594314147756000,4.774756103515625,3.641113519668579,1.9915645122528076,8.330223083496094
1772594314168020000,4.79502001953125,2.381070852279663,3.168996572494507,8.484003067016602
1772594314188284000,4.815283935546875,0.7667742967605591,2.4713969230651855,4.826793670654297
1772594314208547000,4.835547119140625,0.3019739091396332,2.067124366760254,2.25895094871521
1772594314228811000,4.85581103515625,-0.16109709441661835,1.5121309757232666,1.04560124874115
1772594314249075000,4.876074951171875,-0.5645714998245239,0.8379443287849426,0.5492732524871826
1772594314269338000,4.896338134765625,-0.6725903153419495,0.34055206179618835,0.2902674376964569
1772594314289602000,4.91660205078125,-0.6066083908081055,0.05148189514875412,0.05720210447907448
1772594314319998000,4.946998046875,-0.6583563089370728,-0.05440851300954819,-0.3573136031627655
1772594314340261000,4.96726123046875,-0.8022927641868591,0.029399221763014793,-0.37434121966362
1772594314360525000,4.987525146484375,-0.8257057666778564,-0.16428977251052856,-0.46506643295288086
1772594314380789000,5.0077890625,-0.8497838377952576,-0.6481131315231323,-1.2516618967056274
1772594314401052000,5.028052001953125,-1.0977482795715332,-0.7751550674438477,-2.077101469039917
1772594314421316000,5.048316162109375,-1.3526302576065063,-0.21723496913909912,-1.843770146369934
1772594314441580000,5.068580078125,-1.2907721996307373,0.5467457175254822,-0.4803646504878998
1772594314461843000,5.088843017578125,-1.5511082410812378,0.8467242121696472,0.9198896884918213
1772594314482107000,5.10910693359375,-1.9568440914154053,0.6171175837516785,1.50454843044281
1772594314502371000,5.12937109375,-2.123528480529785,-0.4101257920265198,1.1069272756576538
1772594314522634000,5.149634033203125,-2.504122018814087,-1.4952363967895508,0.34440988302230835
1772594314553030000,5.18002978515625,-2.9452433586120605,-2.1913726329803467,-0.2031339854001999
1772594314573293000,5.20029296875,-2.3717589378356934,-3.862206220626831,-1.6619206666946411
1772594314593557000,5.220556884765625,-0.9571375250816345,-5.223350524902344,-2.0768353939056396
1772594314613821000,5.240821044921875,-0.5776082277297974,-4.9902849197387695,-1.5061447620391846
1772594314634084000,5.261083984375,-0.5601815581321716,-5.560177803039551,-2.1915056705474854
1772594314654348000,5.28134814453125,0.7260676622390747,-4.25330924987793,-0.008114716969430447
1772594314674612000,5.301612060546875,3.463254928588867,-1.8439031839370728,4.734870910644531
1772594314694875000,5.321875,3.9353718757629395,0.05693604797124863,6.101202964782715
1772594314715139000,5.34213916015625,1.5205117464065552,0.5929064750671387,3.067229986190796
1772594314735403000,5.362403076171875,0.8419351577758789,0.5430209040641785,0.9031281471252441
1772594314755667000,5.3826669921875,1.411428689956665,1.1151750087738037,0.7605219483375549
1772594314775930000,5.40293017578125,1.4680986404418945,0.5459475517272949,0.7943111062049866
1772594314796194000,5.423194091796875,0.4874151349067688,1.5930120944976807,0.8819766640663147
1772594314816458000,5.4434580078125,0.00026605630409903824,1.2543224096298218,0.8392745852470398
1772594314836721000,5.463720947265625,-0.14340434968471527,0.6848289370536804,0.2853453755378723
1772594314856985000,5.483985107421875,-0.27856093645095825,0.6213744878768921,-0.4963280260562897
1772594314877249000,5.5042490234375,-0.2475653886795044,0.822380006313324,-0.7015904784202576
1772594314897512000,5.524511962890625,-0.14526674151420593,1.0074222087860107,-0.4248919188976288
1772594314917776000,5.54477587890625,-0.13701899349689484,0.6827004551887512,-0.8805133104324341
1772594314938040000,5.5650400390625,-0.1892990618944168,0.31860241293907166,-2.935399293899536
1772594314958303000,5.585302978515625,0.24517089128494263,0.8320910930633545,-4.193845748901367
1772594314978567000,5.60556689453125,0.28241875767707825,1.7385449409484863,-3.461791515350342
1772594314998831000,5.6258310546875,-0.24570299685001373,2.277042865753174,-2.127652168273926
1772594315019094000,5.646093994140625,-1.2114874124526978,1.8759629726409912,-1.2507306337356567
1772594315039358000,5.66635791015625,-2.051959276199341,1.1703816652297974,-1.2581802606582642
1772594315059622000,5.686621826171875,-2.496539354324341,0.252088338136673,-2.7393157482147217
1772594315079885000,5.706885009765625,-2.222900390625,-0.4550893008708954,-4.011996269226074
1772594315100149000,5.72714892578125,-1.1322026252746582,-0.07915174961090088,-2.7745680809020996
1772594315120413000,5.747412841796875,0.9639219641685486,-0.42715340852737427,-0.5217363834381104
1772594315150808000,5.77780810546875,1.3854881525039673,0.2558131217956543,0.7420310378074646
1772594315171072000,5.798072021484375,0.5428878664970398,-1.3197722434997559,-1.4284563064575195
1772594315191335000,5.8183349609375,0.885967493057251,0.2036661058664322,0.47397929430007935
1772594315211599000,5.83859912109375,2.8193986415863037,3.9174129962921143,5.9584641456604
1772594315231863000,5.858863037109375,4.269671440124512,4.365983963012695,7.8404130935668945
1772594315252126000,5.8791259765625,2.0071287155151367,2.588993787765503,6.639169216156006
1772594315272390000,5.899389892578125,1.3274879455566406,1.741471529006958,3.8959953784942627
1772594315292654000,5.919654052734375,0.4935344457626343,0.6334800720214844,1.37697434425354
1772594315312917000,5.9399169921875,0.20060645043849945,0.08207836747169495,0.25647827982902527
1772594315333181000,5.960180908203125,0.512291431427002,-0.13076667487621307,0.05720210447907448
1772594315353445000,5.980445068359375,0.6913473010063171,-0.2524874210357666,0.30170783400535583
1772594315373709000,6.000708984375,0.4505663514137268,-0.28507933020591736,0.3841853141784668
1772594315393972000,6.020971923828125,0.2586067318916321,-0.4356671869754791,0.5721541047096252
1772594315414236000,6.04123583984375,-0.05613787844777107,-0.5444841980934143,0.5254611968994141
1772594315434500000,6.0615,-0.5452824234962463,-0.6751178503036499,0.32458868622779846
1772594315454763000,6.081762939453125,-0.7873936295509338,-0.8076139092445374,0.08939491957426071
1772594315475027000,6.10202685546875,-0.5975624322891235,-0.8906234502792358,-0.22415243089199066
1772594315495291000,6.122290771484375,-0.3980202376842499,-0.7514760494232178,-1.1706477403640747
1772594315515554000,6.142553955078125,0.024078095331788063,-1.834192156791687,-2.5647828578948975
1772594315535818000,6.16281787109375,0.43832775950431824,-2.3817360401153564,-3.312401056289673
1772594315556082000,6.18308203125,0.5533971190452576,-2.043046474456787,-3.1768453121185303
1772594315576345000,6.203344970703125,0.8754582405090332,-1.485525369644165,-2.786008596420288
1772594315596609000,6.223609130859375,2.119537591934204,-1.6148287057876587,-2.394240617752075
1772594315616873000,6.243873046875,4.062014579772949,-1.6902556419372559,-1.23184072971344
1772594315637136000,6.264135986328125,5.030858516693115,-0.8133341073989868,0.5995578765869141
1772594315657400000,6.284400146484375,2.2526986598968506,0.8503159284591675,1.7646183967590332
1772594315677664000,6.3046640625,-2.99991774559021,2.455167531967163,2.083487033843994
1772594315697927000,6.324927001953125,-8.64057731628418,3.5848426818847656,1.1634641885757446
1772594315718191000,6.345191162109375,-12.05181884765625,3.826953887939453,-1.6846685409545898
1772594315738455000,6.365455078125,-9.829716682434082,1.0224543809890747,-5.538361072540283
1772594315758718000,6.385718017578125,-4.135712146759033,-2.777228832244873,-5.415176868438721
1772594315778982000,6.40598193359375,1.7072832584381104,-1.9528533220291138,0.33722636103630066
1772594315799246000,6.42624609375,5.961523532867432,-0.14433553814888,5.135818004608154
1772594315819509000,6.446509033203125,5.328974723815918,2.540571689605713,6.980386257171631
1772594315839773000,6.46677294921875,3.419621706008911,2.5619890689849854,5.264589309692383
1772594315860037000,6.487037109375,3.197331666946411,1.5662734508514404,3.2577264308929443
1772594315880300000,6.507300048828125,2.9906058311462402,0.9852064847946167,1.9873075485229492
1772594315900564000,6.52756396484375,2.399162769317627,0.707709789276123,1.1231566667556763
1772594315920828000,6.547827880859375,1.6220122575759888,0.5789385437965393,0.6205763220787048
1772594315941091000,6.568091064453125,0.9539448618888855,0.4222313463687897,0.3497309982776642
1772594315961355000,6.58835498046875,0.3876440227031708,0.2563452422618866,0.1657530814409256
1772594315981619000,6.608618896484375,-0.008380773477256298,0.21430835127830505,0.07117006182670593
1772594316001882000,6.628882080078125,0.02381203882396221,-0.061991117894649506,-0.14034469425678253
1772594316022146000,6.64914599609375,0.37633663415908813,-0.5833284258842468,-0.4472406506538391
1772594316042410000,6.669409912109375,0.019289081916213036,-1.232771873474121,-0.6857601404190063
1772594316062673000,6.6896728515625,-0.40267622470855713,-1.5673376321792603,-1.152289867401123
1772594316082937000,6.70993701171875,-0.20991842448711395,-2.1124870777130127,-2.1927030086517334
1772594316103201000,6.730200927734375,-0.03990844637155533,-2.9725141525268555,-3.8453118801116943
1772594316123464000,6.7504638671875,-0.7256685495376587,-3.755783796310425,-5.803885459899902
1772594316143728000,6.77072802734375,-2.488025426864624,-3.6622650623321533,-7.045436859130859
1772594316163992000,6.790991943359375,-3.8489034175872803,-1.5425944328308105,-6.364199638366699
1772594316184255000,6.8112548828125,-3.2525382041931152,1.7942837476730347,-2.9731791019439697
1772594316204519000,6.831518798828125,-0.5734843611717224,3.8348026275634766,1.9317017793655396
1772594316224783000,6.851783203125,2.4917502403259277,4.40363073348999,6.431245803833008
1772594316245046000,6.8720458984375,2.042647361755371,2.904669761657715,7.956413745880127
1772594316265310000,6.89231005859375,0.8299626111984253,2.0901384353637695,5.5830583572387695
1772594316285574000,6.912573974609375,-0.4044055938720703,0.34826770424842834,2.268928050994873
1772594316305837000,6.932837158203125,-0.29106560349464417,-0.3288455903530121,1.2040377855300903
1772594316326101000,6.95310107421875,0.6103331446647644,-0.4710526764392853,1.4321811199188232
1772594316346365000,6.973364990234375,0.7670403122901917,-0.8420681953430176,1.156280755996704
1772594316366628000,6.993628173828125,1.0952208042144775,-1.6185535192489624,-0.08766555041074753
1772594316386892000,7.01389208984375,2.145611047744751,-1.2044368982315063,0.30383628606796265
1772594316407156000,7.034156005859375,2.363112211227417,0.17413385212421417,1.6672418117523193
1772594316427419000,7.0544189453125,1.2708179950714111,0.7867285013198853,2.2239646911621094
1772594316447683000,7.07468310546875,-0.017958801239728928,0.15923470258712769,2.0990512371063232
1772594316467947000,7.094947021484375,-0.640929639339447,-1.1421797275543213,1.230643391609192
1772594316488210000,7.1152099609375,-0.9876009821891785,-2.1774048805236816,0.18730363249778748
1772594316508474000,7.13547412109375,-1.7059530019760132,-2.6152005195617676,-0.18570730090141296
1772594316528738000,7.155738037109375,-2.9193027019500732,-2.8199307918548584,-0.3792632520198822
1772594316549001000,7.1760009765625,-4.382612705230713,-2.8820548057556152,-0.878251850605011
1772594316569265000,7.196264892578125,-5.535168170928955,-1.7349531650543213,-0.9044584035873413
1772594316589529000,7.216529052734375,-5.831288814544678,-2.01298189163208,-2.104771375656128
1772594316609792000,7.2367919921875,-5.411851406097412,-0.8553709983825684,-2.530860662460327
1772594316630056000,7.257055908203125,-4.621397972106934,1.2974236011505127,-2.0257527828216553
1772594316650320000,7.27731982421875,-3.578324317932129,3.4818787574768066,-1.1439090967178345
1772594316670584000,7.297583984375,-2.4361445903778076,5.16920804977417,-0.4835573434829712
1772594316690847000,7.317846923828125,-1.3865524530410767,6.419406414031982,-0.211381733417511
1772594316711111000,7.33811083984375,-0.5975624322891235,7.425897598266602,-0.4220983386039734
1772594316731375000,7.358375,-0.1975468099117279,7.962133884429932,-0.9407750964164734
1772594316751638000,7.378637939453125,-0.2421112358570099,8.70948600769043,-1.651544451713562
1772594316771902000,7.39890185546875,-0.8582976460456848,9.798720359802246,-2.2444510459899902
1772594316792166000,7.419165771484375,-1.8920594453811646,9.893702507019043,-2.3432908058166504
1772594316812429000,7.439428955078125,-2.7121779918670654,9.526145935058594,-1.956578016281128
1772594316832693000,7.45969287109375,-3.146914005279541,8.350176811218262,-1.3810982704162598
1772594316852957000,7.47995703125,-3.1242992877960205,6.452264308929443,-0.211381733417511
1772594316873220000,7.50022021484375,-2.6869025230407715,3.678361415863037,0.05520668253302574
1772594316893484000,7.520484130859375,-2.2504372596740723,1.121028184890747,0.6039478182792664
1772594316913748000,7.540748046875,-1.4321811199188232,-0.9370502829551697,1.4219379425048828
1772594316934011000,7.561010986328125,-1.2229278087615967,-2.0015416145324707,2.323469638824463
1772594316954275000,7.581275146484375,-1.2266526222229004,-1.9007062911987305,2.3660387992858887
1772594316974539000,7.6015390625,-1.3689926862716675,-1.00955069065094,2.321474313735962
1772594316994802000,7.621802001953125,-1.3958643674850464,0.13129878044128418,2.1778039932250977
1772594317015066000,7.642066162109375,-1.2954281568527222,1.1463035345077515,1.680012583732605
1772594317035330000,7.662330078125,-0.9994404911994934,1.5300898551940918,0.867742657661438
1772594317055593000,7.682593017578125,-0.39602482318878174,0.822380006313324,1.286515235900879
1772594317075857000,7.70285693359375,0.22894145548343658,0.837811291217804,2.0921337604522705
1772594317096121000,7.72312109375,0.6353424787521362,1.02910578250885,2.75394868850708
1772594317116384000,7.743384033203125,0.6249662637710571,1.4590528011322021,2.623448133468628
1772594317136648000,7.76364794921875,0.7957744002342224,1.0233855247497559,2.5258054733276367
1772594317156912000,7.783912109375,0.7756871581077576,1.759297251701355,2.6705400943756104
1772594317177175000,7.804175048828125,0.5519338250160217,1.9496605396270752,2.3528690338134766
1772594317197439000,7.82443896484375,0.4194377660751343,1.6965080499649048,1.9334311485290527
1772594317217703000,7.844702880859375,0.39043763279914856,1.4445526599884033,1.9767982959747314
1772594317237966000,7.864966064453125,0.3659604489803314,1.222395658493042,1.9738717079162598
1772594317258230000,7.88522998046875,0.3638319969177246,1.09601891040802,1.655535340309143
1772594317278494000,7.905493896484375,0.11001428216695786,1.3242952823638916,1.3679285049438477
1772594317298757000,7.925757080078125,0.007715632673352957,1.5672047138214111,1.5493788719177246
1772594317319021000,7.94602099609375,0.09538118541240692,1.7052879333496094,1.7953479290008545
1772594317339285000,7.966284912109375,-0.15843652188777924,1.8603986501693726,1.2827904224395752
1772594317359548000,7.9865478515625,-0.35052919387817383,1.5944753885269165,0.5561907291412354
1772594317379812000,8.00681201171875,-0.6438562273979187,1.268290400505066,0.041903868317604065
1772594317400076000,8.027075927734375,-1.11969792842865,1.0913629531860352,-0.11812900006771088
1772594317420339000,8.0473388671875,-1.2460746765136719,0.7654439806938171,-0.09804175049066544
1772594317440603000,8.067602783203125,-1.1525559425354004,0.4166441857814789,-0.03179372847080231
1772594317460867000,8.0878671875,-0.7313888072967529,0.11866111308336258,0.008912886492908001
1772594317481130000,8.1081298828125,-0.4187726080417633,-0.3972220718860626,0.034986402839422226
1772594317501394000,8.128393798828125,-0.052546121180057526,-0.433671772480011,0.010775280185043812
1772594317521658000,8.148658203125,0.11320696026086807,-0.3272492587566376,-0.01822485774755478
1772594317541921000,8.168921142578125,0.13036759197711945,-0.18756969273090363,-0.032192811369895935
1772594317562185000,8.18918505859375,0.18025314807891846,-0.16229434311389923,-0.07010583579540253
1772594317582449000,8.209448974609375,0.28241875767707825,-0.13475751876831055,-0.16974392533302307
1772594317602712000,8.229712158203125,0.2716434895992279,-0.07981689274311066,-0.2168358862400055
1772594317622976000,8.24997607421875,0.21417532861232758,-0.06292231380939484,-0.2596709430217743
1772594317643240000,8.270239990234375,0.07542695850133896,-0.0883306935429573,-0.2766985595226288
1772594317663503000,8.290503173828125,-0.05879844352602959,-0.11081244796514511,-0.2575424909591675
1772594317683767000,8.31076708984375,-0.07649118453264236,-0.08314259350299835,-0.16548702120780945
1772594317704031000,8.331031005859375,-0.06159203499555588,-0.07941780984401703,-0.1404777318239212
1772594317724294000,8.3512939453125,-0.0065183793194592,-0.06824344396591187,-0.10549132525920868
1772594317744558000,8.37155810546875,0.09325273334980011,-0.04922041669487953,-0.09804175049066544
1772594317764822000,8.391822021484375,0.23572587966918945,0.004655985161662102,-0.09524815529584885
1772594317785085000,8.4120849609375,0.49872255325317383,0.13635385036468506,-0.0971105545759201
1772594317805349000,8.43234912109375,0.3933642506599426,0.13874836266040802,-0.057601191103458405
1772594317825613000,8.452613037109375,0.3402860164642334,0.14393645524978638,-0.045362599194049835
1772594317845876000,8.4728759765625,0.15670716762542725,0.07103703171014786,-0.020885419100522995
1772594317866140000,8.493139892578125,0.04070661589503288,0.01849091239273548,-0.005454154219478369
1772594317886404000,8.513404052734375,0.2619324326515198,0.23240017890930176,0.21989554166793823
1772594317906667000,8.5336669921875,0.24517089128494263,0.2705792486667633,0.5476769208908081
1772594317926931000,8.553930908203125,0.20925328135490417,0.30556565523147583,0.6548975706100464
1772594317947195000,8.57419482421875,0.1575053334236145,0.30968955159187317,0.6047459840774536
1772594317967459000,8.594458984375,0.07436273992061615,0.2826848328113556,0.5140208005905151
1772594317987722000,8.614721923828125,-0.04150478169322014,0.22854237258434296,0.418639600276947
1772594318007986000,8.63498583984375,-0.18903300166130066,0.15165209770202637,0.33988693356513977
1772594318028250000,8.65525,-0.31913453340530396,0.07383062690496445,0.29638671875
1772594318048513000,8.675512939453125,-0.36024022102355957,0.016096405684947968,0.2677856683731079
1772594318068777000,8.69577685546875,-0.2611342668533325,-0.012637674808502197,0.1849091351032257
1772594318089041000,8.716041015625,-0.28946927189826965,-0.04137175530195236,0.19581744074821472
1772594318109304000,8.736303955078125,-0.26911595463752747,-0.07343153655529022,0.15178512036800385
1772594318129568000,8.756568115234375,-0.24384060502052307,-0.11573449522256851,0.08872977644205093
1772594318149832000,8.77683203125,-0.21098265051841736,-0.14619794487953186,0.02168358862400055
1772594318170095000,8.79709521484375,-0.1877027153968811,-0.18238160014152527,-0.028468023985624313
1772594318190359000,8.817359130859375,-0.0663810446858406,-0.1492575854063034,-0.08194534480571747
1772594318210623000,8.837623046875,0.018756968900561333,-0.12478040903806686,-0.12198681384325027
1772594318230886000,8.857885986328125,0.0031926757656037807,-0.1783907562494278,-0.16335856914520264
1772594318251150000,8.878150146484375,-0.04908738657832146,-0.21311110258102417,-0.15511082112789154
1772594318271414000,8.8984140625,-0.07383062690496445,-0.23240017890930176,-0.15391357243061066
1772594318291677000,8.918677001953125,-0.05427548661828041,-0.17040906846523285,-0.11533540487289429
1772594318311941000,8.938941162109375,-0.013701899908483028,-0.15883561968803406,-0.13701899349689484
1772594318332205000,8.959205078125,0.038445137441158295,-0.1141381561756134,-0.13901442289352417
1772594318352468000,8.979468017578125,-0.03485337644815445,-0.14939060807228088,-0.12797307968139648
1772594318372732000,8.99973193359375,-0.016894575208425522,-0.12464737892150879,-0.13528962433338165
1772594318392996000,9.01999609375,0.09511512517929077,-0.04177083820104599,-0.15351448953151703
1772594318413259000,9.040259033203125,0.11932624876499176,-0.02327992580831051,-0.16256040334701538
1772594318433523000,9.06052294921875,0.07715632766485214,-0.046958938241004944,-0.16216132044792175
1772594318453787000,9.080786865234375,0.11320696026086807,-0.02075239084661007,-0.17094117403030396
1772594318474050000,9.101050048828125,0.12198681384325027,-0.018357884138822556,-0.18544124066829681
1772594318494314000,9.12131396484375,0.1636246293783188,-0.010642251931130886,-0.2447717934846878
1772594318514578000,9.141577880859375,0.06811041384935379,-0.04749105125665665,-0.21776708960533142
