time,seconds_elapsed,z,y,x
1772384353410274300,0.2432744140625,9.838050842285156,0.29295000433921814,0.39195001125335693
1772384353430331400,0.263331298828125,9.844950675964355,0.29295000433921814,0.37995001673698425
1772384353450388700,0.283388671875,9.850050926208496,0.31905001401901245,0.3730500042438507
1772384353470445800,0.30344580078125,9.86205005645752,0.32100000977516174,0.3679500222206116
1772384353490503200,0.323503173828125,9.86205005645752,0.3139500021934509,0.361050009727478
1772384353510560300,0.343560302734375,9.859950065612793,0.31200000643730164,0.3820500075817108
1772384353530617900,0.363617919921875,9.867000579833984,0.30000001192092896,0.3730500042438507
1772384353550675200,0.38367529296875,9.855000495910645,0.3139500021934509,0.3769500255584717
1772384353570732300,0.403732177734375,9.867000579833984,0.32895001769065857,0.3769500255584717
1772384353590789600,0.42378955078125,9.867000579833984,0.30705001950263977,0.37005001306533813
1772384353610846700,0.4438466796875,9.86400032043457,0.3049500286579132,0.3769500255584717
1772384353630904000,0.463904052734375,9.86400032043457,0.30900001525878906,0.3769500255584717
1772384353650961200,0.483961181640625,9.850050926208496,0.30705001950263977,0.3769500255584717
1772384353671018500,0.5040185546875,9.84795093536377,0.3049500286579132,0.3679500222206116
1772384353691075800,0.524075927734375,9.868950843811035,0.30000001192092896,0.3750000298023224
1772384353711133000,0.5441328125,9.879000663757324,0.3139500021934509,0.3750000298023224
1772384353731190300,0.564190185546875,9.850050926208496,0.31200000643730164,0.37995001673698425
1772384353751247400,0.584247314453125,9.859950065612793,0.30705001950263977,0.37005001306533813
1772384353771304700,0.6043046875,9.87405014038086,0.31200000643730164,0.3820500075817108
1772384353791361800,0.62436181640625,9.871050834655762,0.3169500231742859,0.37995001673698425
1772384353811419100,0.644419189453125,9.871050834655762,0.30705001950263977,0.37995001673698425
1772384353831476200,0.664476318359375,9.86400032043457,0.3049500286579132,0.38895002007484436
1772384353851533600,0.684533447265625,9.86205005645752,0.31200000643730164,0.38700002431869507
1772384353871590700,0.704590576171875,9.868950843811035,0.30000001192092896,0.364950031042099
1772384353891648000,0.72464794921875,9.86205005645752,0.30705001950263977,0.3730500042438507
1772384353911705300,0.744705322265625,9.87600040435791,0.3139500021934509,0.3750000298023224
1772384353931762700,0.7647626953125,9.871050834655762,0.32100000977516174,0.37995001673698425
1772384353951819800,0.78481982421875,9.87405014038086,0.31200000643730164,0.3679500222206116
1772384353971877000,0.804877197265625,9.871050834655762,0.32100000977516174,0.3750000298023224
1772384353991934200,0.824934326171875,9.871050834655762,0.31200000643730164,0.37005001306533813
1772384354011991600,0.844991455078125,9.86205005645752,0.32100000977516174,0.38895002007484436
1772384354032048600,0.865048583984375,9.86205005645752,0.31200000643730164,0.38700002431869507
1772384354052106000,0.88510595703125,9.87405014038086,0.31905001401901245,0.3850500285625458
1772384354072163300,0.905163330078125,9.87405014038086,0.3139500021934509,0.3850500285625458
1772384354092220400,0.925220458984375,9.856950759887695,0.3139500021934509,0.3750000298023224
1772384354112277800,0.94527783203125,9.867000579833984,0.30705001950263977,0.361050009727478
1772384354132334800,0.9653349609375,9.871050834655762,0.30900001525878906,0.3730500042438507
1772384354152392200,0.98539208984375,9.868950843811035,0.30705001950263977,0.3769500255584717
1772384354172449500,1.005449462890625,9.871050834655762,0.30195000767707825,0.3820500075817108
1772384354192506600,1.025506591796875,9.87600040435791,0.30900001525878906,0.37995001673698425
1772384354212564000,1.04556396484375,9.87600040435791,0.3139500021934509,0.3730500042438507
1772384354232621300,1.065621337890625,9.86400032043457,0.31200000643730164,0.3769500255584717
1772384354252678400,1.085678466796875,9.868950843811035,0.30705001950263977,0.37995001673698425
1772384354272735500,1.105735595703125,9.867000579833984,0.30900001525878906,0.3750000298023224
1772384354292792800,1.125792724609375,9.868950843811035,0.31200000643730164,0.37005001306533813
1772384354312850200,1.14585009765625,9.867000579833984,0.30900001525878906,0.3850500285625458
1772384354332907500,1.165907470703125,9.871050834655762,0.30705001950263977,0.3820500075817108
1772384354352964900,1.18596484375,9.867000579833984,0.31200000643730164,0.3750000298023224
1772384354373022200,1.206022216796875,9.86400032043457,0.30000001192092896,0.37005001306533813
1772384354393079300,1.226079345703125,9.86400032043457,0.30705001950263977,0.3750000298023224
1772384354413136600,1.24613671875,9.867000579833984,0.31200000643730164,0.3730500042438507
1772384354433193700,1.26619384765625,9.871050834655762,0.31200000643730164,0.3850500285625458
1772384354453251000,1.2862509765625,9.868950843811035,0.30900001525878906,0.37995001673698425
1772384354473308200,1.30630810546875,9.87405014038086,0.31905001401901245,0.3730500042438507
1772384354493365500,1.326365478515625,9.859950065612793,0.30900001525878906,0.37995001673698425
1772384354513422800,1.3464228515625,9.86400032043457,0.30900001525878906,0.37995001673698425
1772384354533480000,1.36647998046875,9.868950843811035,0.30195000767707825,0.3730500042438507
1772384354553537300,1.386537353515625,9.8860502243042,0.30705001950263977,0.3769500255584717
1772384354573594600,1.4065947265625,9.87405014038086,0.31200000643730164,0.3730500042438507
1772384354593651700,1.426651611328125,9.86400032043457,0.30000001192092896,0.37995001673698425
1772384354613709000,1.446708984375,9.871050834655762,0.3139500021934509,0.3820500075817108
1772384354633766100,1.46676611328125,9.86205005645752,0.31200000643730164,0.3820500075817108
1772384354653823500,1.486823486328125,9.8860502243042,0.30705001950263977,0.37995001673698425
1772384354673880600,1.506880615234375,9.871050834655762,0.31200000643730164,0.3750000298023224
1772384354693938200,1.526938232421875,9.871050834655762,0.3139500021934509,0.3769500255584717
1772384354713995000,1.5469951171875,9.87405014038086,0.3169500231742859,0.38700002431869507
1772384354734052600,1.567052490234375,9.868950843811035,0.3139500021934509,0.3750000298023224
1772384354754109700,1.587109619140625,9.871050834655762,0.3169500231742859,0.3750000298023224
1772384354774166800,1.607166748046875,9.883050918579102,0.30195000767707825,0.3730500042438507
1772384354794224000,1.62722412109375,9.871050834655762,0.30195000767707825,0.3850500285625458
1772384354814281500,1.647281494140625,9.868950843811035,0.30195000767707825,0.37995001673698425
1772384354834338600,1.667338623046875,9.868950843811035,0.31200000643730164,0.3769500255584717
1772384354854396000,1.68739599609375,9.87600040435791,0.3139500021934509,0.3769500255584717
1772384354874453000,1.707452880859375,9.879000663757324,0.3139500021934509,0.3769500255584717
1772384354894510300,1.72751025390625,9.871050834655762,0.30195000767707825,0.37995001673698425
1772384354914567700,1.747567626953125,9.859950065612793,0.30900001525878906,0.3679500222206116
1772384354934624800,1.767624755859375,9.87600040435791,0.31200000643730164,0.3850500285625458
1772384354954682000,1.78768212890625,9.883050918579102,0.3139500021934509,0.38700002431869507
1772384354974739200,1.8077392578125,9.883050918579102,0.30900001525878906,0.3820500075817108
1772384354994796500,1.827796630859375,9.868950843811035,0.31905001401901245,0.37995001673698425
1772384355014854000,1.84785400390625,9.86205005645752,0.30900001525878906,0.37995001673698425
1772384355034911000,1.867910888671875,9.868950843811035,0.3139500021934509,0.3820500075817108
1772384355054968300,1.88796826171875,9.87405014038086,0.31200000643730164,0.3750000298023224
1772384355075025400,1.908025390625,9.87405014038086,0.32100000977516174,0.37995001673698425
1772384355095082800,1.928082763671875,9.871050834655762,0.32100000977516174,0.37005001306533813
1772384355115139800,1.948139892578125,9.86205005645752,0.3139500021934509,0.3850500285625458
1772384355135197200,1.968197265625,9.879000663757324,0.3049500286579132,0.37995001673698425
1772384355155254300,1.988254150390625,9.86400032043457,0.31200000643730164,0.3820500075817108
1772384355175312000,2.008311767578125,9.871050834655762,0.3139500021934509,0.3750000298023224
1772384355195369000,2.028368896484375,9.87405014038086,0.3139500021934509,0.3679500222206116
1772384355215426300,2.04842626953125,9.880950927734375,0.3139500021934509,0.3769500255584717
1772384355235483400,2.0684833984375,9.868950843811035,0.3169500231742859,0.38700002431869507
1772384355255540700,2.088540771484375,9.867000579833984,0.31200000643730164,0.37005001306533813
1772384355275597800,2.108597900390625,9.871050834655762,0.3139500021934509,0.3820500075817108
1772384355295655200,2.1286552734375,9.871050834655762,0.31200000643730164,0.3850500285625458
1772384355315712300,2.148712158203125,9.86400032043457,0.30705001950263977,0.37995001673698425
1772384355335769600,2.16876953125,9.868950843811035,0.30195000767707825,0.3769500255584717
1772384355355827000,2.188826904296875,9.87405014038086,0.31200000643730164,0.3750000298023224
1772384355375884000,2.208884033203125,9.87600040435791,0.31905001401901245,0.38895002007484436
1772384355395941400,2.22894140625,9.867000579833984,0.3139500021934509,0.37005001306533813
1772384355415998700,2.248998779296875,9.87405014038086,0.30705001950263977,0.3730500042438507
1772384355436055800,2.269055908203125,9.86400032043457,0.30705001950263977,0.3769500255584717
1772384355456113200,2.289113037109375,9.868950843811035,0.31200000643730164,0.37995001673698425
1772384355476170200,2.309170166015625,9.880950927734375,0.3169500231742859,0.3769500255584717
1772384355496227600,2.3292275390625,9.87600040435791,0.31200000643730164,0.37995001673698425
1772384355516285000,2.349284912109375,9.86400032043457,0.30000001192092896,0.3940500319004059
1772384355536342300,2.36934228515625,9.867000579833984,0.3139500021934509,0.3769500255584717
1772384355556399400,2.3893994140625,9.87600040435791,0.30900001525878906,0.37995001673698425
1772384355576456700,2.409456787109375,9.868950843811035,0.3169500231742859,0.3750000298023224
1772384355596514000,2.42951416015625,9.867000579833984,0.3169500231742859,0.38700002431869507
1772384355616571400,2.4495712890625,9.867000579833984,0.31200000643730164,0.3769500255584717
1772384355636628500,2.46962841796875,9.87600040435791,0.3169500231742859,0.3769500255584717
1772384355656685600,2.489685546875,9.871050834655762,0.30900001525878906,0.3750000298023224
1772384355676743000,2.509742919921875,9.87600040435791,0.31200000643730164,0.38895002007484436
1772384355696800300,2.52980029296875,9.87600040435791,0.31200000643730164,0.3850500285625458
1772384355716857300,2.549857421875,9.867000579833984,0.30900001525878906,0.3820500075817108
1772384355736914700,2.569914794921875,9.86400032043457,0.31905001401901245,0.3750000298023224
1772384355756971800,2.5899716796875,9.87405014038086,0.30900001525878906,0.3820500075817108
1772384355777029000,2.610029052734375,9.87405014038086,0.31200000643730164,0.3730500042438507
1772384355797086200,2.630086181640625,9.871050834655762,0.30900001525878906,0.3820500075817108
1772384355817143600,2.6501435546875,9.868950843811035,0.30705001950263977,0.3750000298023224
1772384355837200600,2.67020068359375,9.86400032043457,0.32100000977516174,0.3820500075817108
1772384355857258200,2.69025830078125,9.87600040435791,0.30705001950263977,0.37995001673698425
1772384355877315600,2.710315673828125,9.867000579833984,0.31200000643730164,0.3820500075817108
1772384355897372700,2.73037255859375,9.868950843811035,0.3139500021934509,0.3769500255584717
1772384355917430000,2.750429931640625,9.87405014038086,0.325950026512146,0.37995001673698425
1772384355937487000,2.770487060546875,9.87600040435791,0.3169500231742859,0.3769500255584717
1772384355957544400,2.79054443359375,9.868950843811035,0.30900001525878906,0.37995001673698425
1772384355977601500,2.8106015625,9.86400032043457,0.31200000643730164,0.3730500042438507
1772384355997659000,2.830658935546875,9.871050834655762,0.3169500231742859,0.3769500255584717
1772384356017716200,2.85071630859375,9.86400032043457,0.30705001950263977,0.3750000298023224
1772384356037773300,2.870773193359375,9.867000579833984,0.3049500286579132,0.3850500285625458
1772384356057830700,2.89083056640625,9.856950759887695,0.30705001950263977,0.3850500285625458
1772384356077887700,2.9108876953125,9.867000579833984,0.3139500021934509,0.3750000298023224
1772384356097945000,2.930945068359375,9.87405014038086,0.31905001401901245,0.3769500255584717
1772384356118002200,2.951002197265625,9.855000495910645,0.30195000767707825,0.3850500285625458
1772384356138059500,2.9710595703125,9.86205005645752,0.31200000643730164,0.3850500285625458
1772384356158116900,2.991116943359375,9.856950759887695,0.30705001950263977,0.38700002431869507
1772384356178174000,3.011174072265625,9.868950843811035,0.31200000643730164,0.3820500075817108
1772384356198231300,3.031231201171875,9.867000579833984,0.3240000009536743,0.37005001306533813
1772384356218288400,3.051288330078125,9.855000495910645,0.30900001525878906,0.3769500255584717
1772384356238345700,3.071345703125,9.856950759887695,0.30900001525878906,0.3750000298023224
1772384356258403000,3.091403076171875,9.883050918579102,0.31200000643730164,0.37995001673698425
1772384356278460400,3.11146044921875,9.86205005645752,0.3139500021934509,0.3769500255584717
1772384356298517500,3.131517578125,9.855000495910645,0.3169500231742859,0.3850500285625458
1772384356318574800,3.151574951171875,9.859950065612793,0.30195000767707825,0.3820500075817108
1772384356338632200,3.171632080078125,9.86400032043457,0.30900001525878906,0.37995001673698425
1772384356358689300,3.191689208984375,9.856950759887695,0.30900001525878906,0.3730500042438507
1772384356378746600,3.21174658203125,9.859950065612793,0.3049500286579132,0.3769500255584717
1772384356398803700,3.2318037109375,9.868950843811035,0.31200000643730164,0.37995001673698425
1772384356418861000,3.251861083984375,9.867000579833984,0.3169500231742859,0.3820500075817108
1772384356438918100,3.271918212890625,9.868950843811035,0.31200000643730164,0.37005001306533813
1772384356458975500,3.2919755859375,9.859950065612793,0.31200000643730164,0.38895002007484436
1772384356479032800,3.31203271484375,9.86400032043457,0.30705001950263977,0.3850500285625458
1772384356499090000,3.33208984375,9.856950759887695,0.31200000643730164,0.38700002431869507
1772384356519147300,3.352147216796875,9.86205005645752,0.3169500231742859,0.37995001673698425
1772384356539204600,3.37220458984375,9.855000495910645,0.32100000977516174,0.3750000298023224
1772384356559261700,3.39226171875,9.859950065612793,0.3240000009536743,0.3730500042438507
1772384356579319000,3.412319091796875,9.86400032043457,0.3139500021934509,0.3820500075817108
1772384356599376400,3.43237646484375,9.867000579833984,0.2970000207424164,0.38700002431869507
1772384356619433500,3.45243359375,9.859950065612793,0.30195000767707825,0.3820500075817108
1772384356639490800,3.47249072265625,9.868950843811035,0.31200000643730164,0.3750000298023224
1772384356659548000,3.4925478515625,9.86205005645752,0.30900001525878906,0.3769500255584717
1772384356679605200,3.512605224609375,9.850050926208496,0.30705001950263977,0.37995001673698425
1772384356699662300,3.532662353515625,9.850050926208496,0.3049500286579132,0.3730500042438507
1772384356719719700,3.5527197265625,9.859950065612793,0.3169500231742859,0.3630000054836273
1772384356739777000,3.572777099609375,9.86205005645752,0.30900001525878906,0.3850500285625458
1772384356759834000,3.592834228515625,9.86205005645752,0.31200000643730164,0.3850500285625458
1772384356779891500,3.612891357421875,9.86205005645752,0.31905001401901245,0.3820500075817108
1772384356799948500,3.632948486328125,9.86205005645752,0.3169500231742859,0.3820500075817108
1772384356820006000,3.653005859375,9.856950759887695,0.30705001950263977,0.3820500075817108
1772384356840063000,3.67306298828125,9.86400032043457,0.3169500231742859,0.3850500285625458
1772384356860120300,3.693120361328125,9.867000579833984,0.3169500231742859,0.3769500255584717
1772384356880177400,3.713177490234375,9.86205005645752,0.30195000767707825,0.37005001306533813
1772384356900234800,3.73323486328125,9.855000495910645,0.30900001525878906,0.37005001306533813
1772384356920291800,3.753291748046875,9.855000495910645,0.3139500021934509,0.37995001673698425
1772384356940349200,3.77334912109375,9.844950675964355,0.3139500021934509,0.37995001673698425
1772384356960406300,3.79340625,9.859950065612793,0.30900001525878906,0.38895002007484436
1772384356980463600,3.813463623046875,9.86400032043457,0.3169500231742859,0.38700002431869507
1772384357000520700,3.833520751953125,9.856950759887695,0.30705001950263977,0.3769500255584717
1772384357020578000,3.853578125,9.84795093536377,0.3049500286579132,0.3679500222206116
1772384357040635400,3.873635498046875,9.859950065612793,0.3139500021934509,0.37005001306533813
1772384357060692500,3.8936923828125,9.86400032043457,0.30705001950263977,0.3750000298023224
1772384357080749800,3.913749755859375,9.856950759887695,0.31200000643730164,0.3820500075817108
1772384357100807000,3.933806884765625,9.86400032043457,0.3139500021934509,0.40095001459121704
1772384357120864300,3.9538642578125,9.868950843811035,0.32895001769065857,0.39195001125335693
1772384357140921300,3.97392138671875,9.86400032043457,0.32895001769065857,0.3820500075817108
1772384357160978700,3.993978759765625,9.856950759887695,0.3139500021934509,0.3750000298023224
1772384357181035800,4.014035888671875,9.85200023651123,0.30195000767707825,0.3769500255584717
1772384357201093000,4.034093017578125,9.84795093536377,0.30000001192092896,0.3730500042438507
1772384357221150200,4.054150146484375,9.85200023651123,0.30900001525878906,0.3769500255584717
1772384357241207600,4.07420751953125,9.86205005645752,0.3169500231742859,0.3769500255584717
1772384357261264600,4.0942646484375,9.867000579833984,0.31200000643730164,0.3730500042438507
1772384357281322000,4.114322021484375,9.86205005645752,0.30900001525878906,0.37995001673698425
1772384357301379000,4.134379150390625,9.856950759887695,0.30195000767707825,0.39195001125335693
1772384357321436400,4.1544365234375,9.850050926208496,0.31200000643730164,0.38895002007484436
1772384357341493500,4.174493408203125,9.84795093536377,0.3139500021934509,0.3730500042438507
1772384357361550800,4.19455078125,9.85200023651123,0.32100000977516174,0.364950031042099
1772384357381608200,4.214608154296875,9.850050926208496,0.3169500231742859,0.3769500255584717
1772384357401665300,4.234665283203125,9.86400032043457,0.3139500021934509,0.3730500042438507
1772384357421722600,4.25472265625,9.867000579833984,0.32100000977516174,0.3820500075817108
1772384357441779700,4.27477978515625,9.86205005645752,0.3169500231742859,0.37995001673698425
1772384357461837000,4.294837158203125,9.86400032043457,0.30900001525878906,0.3820500075817108
1772384357481894100,4.31489404296875,9.859950065612793,0.30900001525878906,0.3850500285625458
1772384357501951200,4.334951171875,9.86400032043457,0.30705001950263977,0.3850500285625458
1772384357522008600,4.355008544921875,9.85200023651123,0.31200000643730164,0.3769500255584717
1772384357542066000,4.37506591796875,9.84795093536377,0.3049500286579132,0.3850500285625458
1772384357562123000,4.395123046875,9.85200023651123,0.31200000643730164,0.3820500075817108
1772384357582180000,4.41518017578125,9.850050926208496,0.30900001525878906,0.37995001673698425
1772384357602237400,4.435237548828125,9.850050926208496,0.30195000767707825,0.3730500042438507
1772384357622294500,4.45529443359375,9.850050926208496,0.30195000767707825,0.3769500255584717
1772384357642351900,4.475351806640625,9.850050926208496,0.3139500021934509,0.3850500285625458
1772384357662409000,4.495408935546875,9.86205005645752,0.3169500231742859,0.3769500255584717
1772384357682466300,4.51546630859375,9.856950759887695,0.31200000643730164,0.3850500285625458
1772384357702523600,4.535523681640625,9.856950759887695,0.3049500286579132,0.3850500285625458
1772384357722580700,4.555580810546875,9.856950759887695,0.3169500231742859,0.3850500285625458
1772384357742637800,4.575637939453125,9.867000579833984,0.3169500231742859,0.38700002431869507
1772384357762695200,4.595695068359375,9.856950759887695,0.31905001401901245,0.3820500075817108
1772384357782752500,4.61575244140625,9.859950065612793,0.30900001525878906,0.3850500285625458
1772384357802809600,4.6358095703125,9.859950065612793,0.31200000643730164,0.37995001673698425
1772384357822867000,4.655866943359375,9.855000495910645,0.3139500021934509,0.3730500042438507
1772384357842924000,4.675924072265625,9.855000495910645,0.30195000767707825,0.37995001673698425
1772384357862981400,4.6959814453125,9.856950759887695,0.30195000767707825,0.3940500319004059
1772384357883038500,4.71603857421875,9.859950065612793,0.30705001950263977,0.38700002431869507
1772384357903095600,4.736095458984375,9.855000495910645,0.2970000207424164,0.3750000298023224
1772384357923153000,4.75615283203125,9.85200023651123,0.3169500231742859,0.37995001673698425
1772384357943210000,4.7762099609375,9.856950759887695,0.3139500021934509,0.3820500075817108
1772384357963267300,4.796267333984375,9.868950843811035,0.31200000643730164,0.37005001306533813
1772384357983324700,4.81632470703125,9.85200023651123,0.3169500231742859,0.37995001673698425
1772384358003381800,4.8363818359375,9.868950843811035,0.30705001950263977,0.3769500255584717
1772384358023438800,4.85643896484375,9.850050926208496,0.30195000767707825,0.37995001673698425
1772384358043496000,4.876495849609375,9.843000411987305,0.30000001192092896,0.3820500075817108
1772384358063553500,4.896553466796875,9.84795093536377,0.30705001950263977,0.3850500285625458
1772384358083610400,4.9166103515625,9.86205005645752,0.31905001401901245,0.39195001125335693
1772384358103667700,4.936667724609375,9.86400032043457,0.32100000977516174,0.37995001673698425
1772384358123724800,4.956724853515625,9.867000579833984,0.3139500021934509,0.3850500285625458
1772384358143782000,4.976781982421875,9.85200023651123,0.30705001950263977,0.38895002007484436
1772384358163839200,4.996839111328125,9.85200023651123,0.30195000767707825,0.3820500075817108
1772384358183896300,5.016896240234375,9.84795093536377,0.30195000767707825,0.3850500285625458
1772384358203953700,5.03695361328125,9.867000579833984,0.31905001401901245,0.37995001673698425
1772384358224010800,5.0570107421875,9.856950759887695,0.31905001401901245,0.3769500255584717
1772384358244068000,5.077068115234375,9.850050926208496,0.3049500286579132,0.3750000298023224
1772384358264125200,5.097125244140625,9.855000495910645,0.31200000643730164,0.3850500285625458
1772384358284182300,5.117182373046875,9.856950759887695,0.30900001525878906,0.3820500075817108
1772384358304239600,5.137239501953125,9.868950843811035,0.3139500021934509,0.38700002431869507
1772384358324296700,5.157296630859375,9.86205005645752,0.32100000977516174,0.3769500255584717
1772384358344354000,5.17735400390625,9.859950065612793,0.3169500231742859,0.3730500042438507
1772384358364411100,5.1974111328125,9.844950675964355,0.31200000643730164,0.3750000298023224
1772384358384468200,5.21746826171875,9.855000495910645,0.3049500286579132,0.3750000298023224
1772384358404525300,5.237525390625,9.856950759887695,0.30000001192092896,0.38700002431869507
1772384358424582700,5.257582763671875,9.855000495910645,0.30900001525878906,0.38700002431869507
1772384358444639700,5.2776396484375,9.855000495910645,0.3169500231742859,0.38700002431869507
1772384358464697000,5.297697021484375,9.868950843811035,0.3139500021934509,0.3850500285625458
1772384358484754200,5.317754150390625,9.86205005645752,0.31200000643730164,0.37995001673698425
1772384358504811500,5.3378115234375,9.859950065612793,0.30705001950263977,0.38700002431869507
1772384358524868900,5.357868896484375,9.844950675964355,0.30195000767707825,0.3750000298023224
1772384358544925700,5.37792578125,9.855000495910645,0.30900001525878906,0.3820500075817108
1772384358564983000,5.397983154296875,9.86400032043457,0.31200000643730164,0.3850500285625458
1772384358585040100,5.4180400390625,9.859950065612793,0.30900001525878906,0.3769500255584717
1772384358605097500,5.438097412109375,9.86205005645752,0.3139500021934509,0.37995001673698425
1772384358625154600,5.458154541015625,9.868950843811035,0.31200000643730164,0.39705002307891846
1772384358645212000,5.4782119140625,9.86205005645752,0.3139500021934509,0.4039500057697296
1772384358665268700,5.498268798828125,9.85200023651123,0.30705001950263977,0.38700002431869507
1772384358685326000,5.518326171875,9.867000579833984,0.30705001950263977,0.3769500255584717
1772384358705383200,5.538383056640625,9.859950065612793,0.3139500021934509,0.37995001673698425
1772384358725440500,5.5584404296875,9.856950759887695,0.30900001525878906,0.3769500255584717
1772384358745497600,5.57849755859375,9.843000411987305,0.30195000767707825,0.3769500255584717
1772384358765554700,5.5985546875,9.85200023651123,0.31200000643730164,0.37995001673698425
1772384358785611800,5.61861181640625,9.859950065612793,0.30705001950263977,0.3750000298023224
1772384358805669000,5.638669189453125,9.856950759887695,0.3049500286579132,0.38700002431869507
1772384358825726200,5.658726318359375,9.859950065612793,0.3049500286579132,0.39900001883506775
1772384358845783300,5.678783203125,9.86205005645752,0.325950026512146,0.38700002431869507
1772384358865840600,5.698840576171875,9.859950065612793,0.3139500021934509,0.37995001673698425
1772384358885898000,5.71889794921875,9.868950843811035,0.3240000009536743,0.3850500285625458
1772384358905954800,5.738954833984375,9.867000579833984,0.31905001401901245,0.39195001125335693
1772384358926012200,5.75901220703125,9.85200023651123,0.30195000767707825,0.3820500075817108
1772384358946069200,5.7790693359375,9.855000495910645,0.30000001192092896,0.3820500075817108
1772384358966126300,5.799126220703125,9.856950759887695,0.31200000643730164,0.3820500075817108
1772384358986183700,5.81918359375,9.86400032043457,0.32100000977516174,0.3850500285625458
1772384359006240800,5.83924072265625,9.859950065612793,0.3139500021934509,0.38700002431869507
1772384359026297900,5.8592978515625,9.859950065612793,0.30900001525878906,0.3820500075817108
1772384359046355200,5.879355224609375,9.86205005645752,0.30900001525878906,0.38895002007484436
1772384359066412300,5.899412353515625,9.856950759887695,0.30195000767707825,0.3850500285625458
1772384359086469400,5.919469482421875,9.856950759887695,0.3139500021934509,0.3820500075817108
1772384359106526500,5.9395263671875,9.859950065612793,0.30900001525878906,0.3820500075817108
1772384359126583800,5.959583740234375,9.868950843811035,0.3049500286579132,0.3730500042438507
1772384359146641000,5.979640869140625,9.85200023651123,0.30000001192092896,0.3820500075817108
1772384359166698200,5.9996982421875,9.844950675964355,0.3139500021934509,0.3850500285625458
1772384359186755300,6.01975537109375,9.856950759887695,0.3139500021934509,0.37995001673698425
1772384359206812400,6.0398125,9.868950843811035,0.32100000977516174,0.38895002007484436
1772384359226869800,6.059869873046875,9.88800048828125,0.3379500210285187,0.3940500319004059
1772384359246926800,6.0799267578125,9.850050926208496,0.32100000977516174,0.39900001883506775
1772384359266984200,6.099984130859375,9.844950675964355,0.2880000174045563,0.37005001306533813
1772384359287041000,6.120041015625,9.856950759887695,0.2850000262260437,0.3769500255584717
1772384359307098400,6.140098388671875,9.86400032043457,0.30705001950263977,0.3820500075817108
1772384359327155500,6.160155517578125,9.855000495910645,0.28995001316070557,0.3730500042438507
1772384359347212800,6.180212890625,9.86400032043457,0.2950500249862671,0.39195001125335693
1772384359367269600,6.20026953125,9.855000495910645,0.30705001950263977,0.38700002431869507
1772384359387327000,6.220326904296875,9.83595085144043,0.31905001401901245,0.38700002431869507
1772384359407384000,6.240384033203125,9.838050842285156,0.3049500286579132,0.3730500042438507
1772384359427441400,6.26044140625,9.868950843811035,0.31905001401901245,0.3850500285625458
1772384359447498200,6.280498291015625,9.87405014038086,0.3430500030517578,0.39705002307891846
1772384359467555600,6.3005556640625,9.87405014038086,0.33105000853538513,0.37995001673698425
1772384359487612700,6.32061279296875,9.87600040435791,0.3330000042915344,0.39195001125335693
1772384359507670000,6.340669921875,9.871050834655762,0.325950026512146,0.3820500075817108
1772384359527726800,6.360726806640625,9.84795093536377,0.2970000207424164,0.3750000298023224
1772384359547784200,6.3807841796875,9.831000328063965,0.28095000982284546,0.37995001673698425
1772384359567841300,6.40084130859375,9.838050842285156,0.2950500249862671,0.37995001673698425
1772384359587898400,6.4208984375,9.859950065612793,0.3139500021934509,0.3630000054836273
1772384359607955500,6.44095556640625,9.85200023651123,0.31905001401901245,0.3730500042438507
1772384359628012800,6.4610126953125,9.85200023651123,0.3049500286579132,0.3820500075817108
1772384359648070000,6.48106982421875,9.855000495910645,0.3139500021934509,0.39705002307891846
1772384359668127000,6.501126953125,9.859950065612793,0.31200000643730164,0.39900001883506775
1772384359688184000,6.52118408203125,9.856950759887695,0.3240000009536743,0.3820500075817108
1772384359708241400,6.541241455078125,9.856950759887695,0.3169500231742859,0.39900001883506775
1772384359728298500,6.561298583984375,9.86205005645752,0.3169500231742859,0.39705002307891846
1772384359748355600,6.58135546875,9.868950843811035,0.30705001950263977,0.38895002007484436
1772384359768412700,6.60141259765625,9.868950843811035,0.32100000977516174,0.39195001125335693
1772384359788470000,6.621469970703125,9.856950759887695,0.31905001401901245,0.39705002307891846
1772384359808527000,6.641527099609375,9.855000495910645,0.30900001525878906,0.3820500075817108
1772384359828584200,6.661584228515625,9.855000495910645,0.30900001525878906,0.3769500255584717
1772384359848641300,6.681641357421875,9.856950759887695,0.31200000643730164,0.3769500255584717
1772384359868698600,6.70169873046875,9.850050926208496,0.30900001525878906,0.3850500285625458
1772384359888756000,6.721755859375,9.855000495910645,0.30705001950263977,0.3769500255584717
1772384359908812800,6.741812744140625,9.856950759887695,0.31200000643730164,0.37995001673698425
1772384359928870000,6.761869873046875,9.859950065612793,0.30705001950263977,0.38895002007484436
1772384359948927200,6.78192724609375,9.843000411987305,0.30900001525878906,0.38700002431869507
1772384359968984300,6.801984375,9.84795093536377,0.31200000643730164,0.3820500075817108
1772384359989041400,6.82204150390625,9.859950065612793,0.3139500021934509,0.3769500255584717
1772384360009098500,6.842098388671875,9.867000579833984,0.3240000009536743,0.37995001673698425
1772384360029155600,6.862155517578125,9.856950759887695,0.3139500021934509,0.3850500285625458
1772384360049213000,6.882212890625,9.85200023651123,0.30705001950263977,0.3750000298023224
1772384360069270000,6.90227001953125,9.859950065612793,0.3049500286579132,0.38895002007484436
1772384360089327000,6.9223271484375,9.867000579833984,0.3139500021934509,0.38700002431869507
1772384360109384200,6.94238427734375,9.859950065612793,0.31200000643730164,0.3850500285625458
1772384360129441300,6.962441162109375,9.86400032043457,0.30900001525878906,0.39195001125335693
1772384360149498600,6.98249853515625,9.859950065612793,0.3139500021934509,0.39195001125335693
1772384360169555500,7.002555419921875,9.855000495910645,0.30900001525878906,0.3820500075817108
1772384360189612500,7.022612548828125,9.844950675964355,0.3049500286579132,0.3730500042438507
1772384360209670000,7.042669921875,9.850050926208496,0.30900001525878906,0.3850500285625458
1772384360229727000,7.06272705078125,9.856950759887695,0.31200000643730164,0.38700002431869507
1772384360249784000,7.0827841796875,9.855000495910645,0.31200000643730164,0.3769500255584717
1772384360269841200,7.102841064453125,9.859950065612793,0.3139500021934509,0.3820500075817108
1772384360289898200,7.122898193359375,9.85200023651123,0.30705001950263977,0.3820500075817108
1772384360309955300,7.142955322265625,9.855000495910645,0.31200000643730164,0.38895002007484436
1772384360330012700,7.1630126953125,9.850050926208496,0.30705001950263977,0.38895002007484436
1772384360350069500,7.183069580078125,9.86205005645752,0.30000001192092896,0.39195001125335693
1772384360370126800,7.203126953125,9.86205005645752,0.30900001525878906,0.3850500285625458
1772384360390184000,7.223183837890625,9.856950759887695,0.3139500021934509,0.3820500075817108
1772384360410241000,7.243240966796875,9.855000495910645,0.3049500286579132,0.38700002431869507
1772384360430298400,7.26329833984375,9.850050926208496,0.3169500231742859,0.3850500285625458
1772384360450355500,7.28335546875,9.856950759887695,0.32100000977516174,0.38700002431869507
1772384360470412500,7.30341259765625,9.86400032043457,0.31200000643730164,0.38895002007484436
1772384360490469600,7.3234697265625,9.867000579833984,0.31905001401901245,0.38700002431869507
1772384360510526700,7.343526611328125,9.86205005645752,0.31200000643730164,0.3820500075817108
1772384360530583800,7.363583740234375,9.856950759887695,0.30195000767707825,0.38700002431869507
1772384360550641200,7.38364111328125,9.856950759887695,0.2950500249862671,0.38700002431869507
1772384360570698200,7.4036982421875,9.84795093536377,0.30900001525878906,0.3820500075817108
1772384360590755300,7.42375537109375,9.855000495910645,0.3169500231742859,0.38895002007484436
1772384360610812400,7.4438125,9.86400032043457,0.3169500231742859,0.3850500285625458
1772384360630869500,7.463869384765625,9.855000495910645,0.31200000643730164,0.38700002431869507
1772384360650926600,7.483926513671875,9.855000495910645,0.31200000643730164,0.38700002431869507
1772384360670984000,7.50398388671875,9.859950065612793,0.3139500021934509,0.38895002007484436
1772384360691041000,7.524041015625,9.86205005645752,0.30900001525878906,0.39195001125335693
1772384360711098000,7.54409814453125,9.856950759887695,0.31200000643730164,0.3820500075817108
1772384360731155200,7.5641552734375,9.859950065612793,0.30900001525878906,0.39195001125335693
1772384360751212300,7.58421240234375,9.85200023651123,0.31200000643730164,0.3820500075817108
1772384360771269400,7.604269287109375,9.86205005645752,0.31905001401901245,0.39195001125335693
1772384360791326700,7.62432666015625,9.85200023651123,0.31200000643730164,0.38700002431869507
1772384360811383600,7.644383544921875,9.850050926208496,0.3049500286579132,0.38895002007484436
1772384360831441000,7.66444091796875,9.850050926208496,0.3139500021934509,0.3820500075817108
1772384360851497700,7.684497802734375,9.856950759887695,0.31200000643730164,0.38700002431869507
1772384360871555000,7.70455517578125,9.855000495910645,0.30900001525878906,0.38700002431869507
1772384360891612200,7.724612060546875,9.84795093536377,0.3049500286579132,0.37995001673698425
1772384360911669200,7.744669189453125,9.855000495910645,0.31200000643730164,0.39195001125335693
1772384360931726300,7.764726318359375,9.856950759887695,0.30195000767707825,0.39195001125335693
1772384360951783700,7.78478369140625,9.855000495910645,0.3139500021934509,0.38895002007484436
1772384360971840500,7.804840576171875,9.859950065612793,0.3240000009536743,0.39900001883506775
1772384360991897600,7.824897705078125,9.850050926208496,0.3169500231742859,0.3850500285625458
1772384361011954700,7.84495458984375,9.85200023651123,0.30705001950263977,0.3820500075817108
1772384361032011800,7.86501171875,9.859950065612793,0.3169500231742859,0.38700002431869507
1772384361052069000,7.885069091796875,9.86400032043457,0.3240000009536743,0.3850500285625458
1772384361072126000,7.9051259765625,9.859950065612793,0.3049500286579132,0.37995001673698425
1772384361092183300,7.925183349609375,9.855000495910645,0.30195000767707825,0.39195001125335693
1772384361112240400,7.945240478515625,9.86205005645752,0.30195000767707825,0.38895002007484436
1772384361132297500,7.96529736328125,9.855000495910645,0.30705001950263977,0.38700002431869507
1772384361152354600,7.9853544921875,9.859950065612793,0.3169500231742859,0.3820500075817108
1772384361172411600,8.00541162109375,9.85200023651123,0.32100000977516174,0.3850500285625458
1772384361192468700,8.02546875,9.856950759887695,0.31200000643730164,0.38895002007484436
1772384361212525600,8.045525634765625,9.838050842285156,0.30705001950263977,0.3820500075817108
1772384361232583000,8.0655830078125,9.86205005645752,0.3139500021934509,0.3850500285625458
1772384361252640000,8.085639892578126,9.87405014038086,0.31905001401901245,0.39195001125335693
1772384361272697000,8.105697021484374,9.86205005645752,0.3139500021934509,0.39195001125335693
1772384361292754200,8.125754150390625,9.855000495910645,0.30195000767707825,0.39900001883506775
1772384361312811300,8.145811279296876,9.850050926208496,0.31200000643730164,0.38895002007484436
1772384361332868400,8.165868408203124,9.85200023651123,0.30900001525878906,0.3820500075817108
1772384361352925700,8.18592578125,9.856950759887695,0.30705001950263977,0.3850500285625458
1772384361372982500,8.205982421875,9.868950843811035,0.31200000643730164,0.3940500319004059
1772384361393039600,8.22603955078125,9.844950675964355,0.30705001950263977,0.3850500285625458
1772384361413097000,8.246096923828125,9.850050926208496,0.30900001525878906,0.38700002431869507
1772384361433154000,8.266154052734375,9.850050926208496,0.3049500286579132,0.38700002431869507
1772384361453211100,8.286211181640626,9.859950065612793,0.3169500231742859,0.3820500075817108
1772384361473268200,8.306268310546875,9.855000495910645,0.30195000767707825,0.3820500075817108
1772384361493325300,8.3263251953125,9.855000495910645,0.3139500021934509,0.38895002007484436
1772384361513382400,8.34638232421875,9.859950065612793,0.3049500286579132,0.38895002007484436
1772384361533439500,8.366439453125,9.86205005645752,0.30900001525878906,0.3850500285625458
1772384361553496600,8.38649658203125,9.859950065612793,0.30000001192092896,0.38895002007484436
1772384361573553700,8.4065537109375,9.855000495910645,0.30195000767707825,0.3850500285625458
1772384361593610800,8.42661083984375,9.84795093536377,0.30705001950263977,0.38895002007484436
1772384361613667800,8.446667724609375,9.86400032043457,0.31905001401901245,0.38700002431869507
1772384361633725200,8.46672509765625,9.86400032043457,0.31200000643730164,0.3850500285625458
1772384361653782000,8.486781982421874,9.86400032043457,0.30195000767707825,0.3940500319004059
1772384361673839400,8.50683935546875,9.859950065612793,0.31200000643730164,0.38895002007484436
1772384361693896400,8.526896484375,9.850050926208496,0.31200000643730164,0.37995001673698425
1772384361713953500,8.54695361328125,9.859950065612793,0.31200000643730164,0.3850500285625458
1772384361734010600,8.5670107421875,9.856950759887695,0.30000001192092896,0.3940500319004059
1772384361754067700,8.587067626953125,9.86205005645752,0.3139500021934509,0.39195001125335693
1772384361774124800,8.607124755859376,9.86400032043457,0.3139500021934509,0.39195001125335693
1772384361794182000,8.627181884765625,9.859950065612793,0.30900001525878906,0.38700002431869507
1772384361814239000,8.647239013671875,9.856950759887695,0.30705001950263977,0.3940500319004059
1772384361834296000,8.667296142578126,9.855000495910645,0.30900001525878906,0.38700002431869507
1772384361854353200,8.687353271484374,9.85200023651123,0.3049500286579132,0.38700002431869507
1772384361874410000,8.707409912109375,9.850050926208496,0.31200000643730164,0.38700002431869507
1772384361894467300,8.72746728515625,9.855000495910645,0.3169500231742859,0.39195001125335693
1772384361914524200,8.747524169921874,9.856950759887695,0.30900001525878906,0.3820500075817108
1772384361934581200,8.767581298828125,9.844950675964355,0.2970000207424164,0.38700002431869507
1772384361954638600,8.787638671875,9.850050926208496,0.2970000207424164,0.3850500285625458
1772384361974695400,8.8076953125,9.856950759887695,0.3169500231742859,0.38895002007484436
1772384361994752800,8.827752685546875,9.855000495910645,0.31905001401901245,0.38700002431869507
1772384362014809600,8.8478095703125,9.84795093536377,0.30705001950263977,0.3940500319004059
1772384362034867000,8.867866943359376,9.850050926208496,0.32100000977516174,0.3940500319004059
1772384362054923800,8.887923828125,9.850050926208496,0.3139500021934509,0.3820500075817108
1772384362074981000,8.907981201171875,9.850050926208496,0.3049500286579132,0.39195001125335693
1772384362095038000,8.928037841796876,9.84795093536377,0.31200000643730164,0.38895002007484436
1772384362115095300,8.94809521484375,9.855000495910645,0.3139500021934509,0.3850500285625458
1772384362135152000,8.968152099609375,9.85200023651123,0.30000001192092896,0.3850500285625458
1772384362155209200,8.988209228515625,9.850050926208496,0.30900001525878906,0.3850500285625458
1772384362175266300,9.008266357421874,9.856950759887695,0.3139500021934509,0.3820500075817108
1772384362195323400,9.028323486328125,9.85200023651123,0.31905001401901245,0.38700002431869507
1772384362215380500,9.04838037109375,9.85200023651123,0.3169500231742859,0.37995001673698425
1772384362235437600,9.0684375,9.850050926208496,0.2970000207424164,0.3940500319004059
1772384362255494700,9.08849462890625,9.856950759887695,0.30900001525878906,0.38700002431869507
1772384362275551700,9.1085517578125,9.859950065612793,0.3169500231742859,0.38700002431869507
1772384362295608800,9.12860888671875,9.859950065612793,0.31905001401901245,0.39195001125335693
1772384362315666000,9.148666015625,9.855000495910645,0.2970000207424164,0.37995001673698425
1772384362335723000,9.168722900390625,9.843000411987305,0.3139500021934509,0.3820500075817108
1772384362355780000,9.188780029296876,9.844950675964355,0.3139500021934509,0.39195001125335693
1772384362375837200,9.208837158203124,9.844950675964355,0.3139500021934509,0.37995001673698425
1772384362395894300,9.228894287109375,9.85200023651123,0.30900001525878906,0.38700002431869507
1772384362415951000,9.248951171875,9.850050926208496,0.3049500286579132,0.38700002431869507
1772384362436008400,9.269008544921874,9.84795093536377,0.30900001525878906,0.38700002431869507
1772384362456065300,9.289065185546875,9.86205005645752,0.3240000009536743,0.39705002307891846
1772384362476122400,9.309122314453125,9.868950843811035,0.31905001401901245,0.39195001125335693
1772384362496179500,9.329179443359376,9.855000495910645,0.31200000643730164,0.3850500285625458
1772384362516236500,9.349236572265625,9.84795093536377,0.3049500286579132,0.3769500255584717
1772384362536293600,9.369293701171875,9.843000411987305,0.3049500286579132,0.3769500255584717
1772384362556350700,9.389350830078126,9.855000495910645,0.3169500231742859,0.37995001673698425
1772384362576407800,9.40940771484375,9.844950675964355,0.30705001950263977,0.39705002307891846
1772384362596465000,9.42946484375,9.84795093536377,0.30705001950263977,0.38700002431869507
1772384362616522000,9.44952197265625,9.843000411987305,0.3139500021934509,0.38700002431869507
1772384362636578800,9.469578857421874,9.856950759887695,0.3169500231742859,0.3850500285625458
1772384362656636200,9.48963623046875,9.85200023651123,0.3139500021934509,0.3940500319004059
1772384362676693000,9.50969287109375,9.856950759887695,0.3049500286579132,0.4039500057697296
1772384362696750300,9.529750244140626,9.855000495910645,0.3049500286579132,0.39195001125335693
1772384362716807200,9.54980712890625,9.850050926208496,0.30705001950263977,0.37995001673698425
1772384362736864500,9.569864501953125,9.84795093536377,0.31200000643730164,0.39195001125335693
1772384362756921300,9.58992138671875,9.844950675964355,0.3049500286579132,0.38700002431869507
1772384362776978700,9.609978759765625,9.850050926208496,0.3169500231742859,0.3850500285625458
1772384362797035500,9.630035400390625,9.85200023651123,0.30705001950263977,0.39195001125335693
1772384362817092600,9.650092529296876,9.844950675964355,0.30705001950263977,0.39195001125335693
1772384362837149700,9.670149658203124,9.838050842285156,0.3049500286579132,0.3820500075817108
1772384362857206800,9.690206787109375,9.84795093536377,0.3169500231742859,0.39195001125335693
1772384362877264000,9.710263916015625,9.867000579833984,0.30900001525878906,0.39195001125335693
1772384362897321000,9.730321044921874,9.855000495910645,0.2569500207901001,0.4729500114917755
1772384362917378000,9.7503779296875,9.658050537109375,0.37605002522468567,0.29805001616477966
1772384362937435000,9.770434814453125,10.07295036315918,0.3570000231266022,0.3340500295162201
1772384362957492200,9.7904921875,9.83595085144043,0.30900001525878906,0.3559500277042389
