time,seconds_elapsed,z,y,x
1772384353370159600,0.20315966796875,-0.07000599801540375,0.06993799656629562,-0.03440399840474129
1772384353390217000,0.223217041015625,0.041593998670578,0.12314999848604202,-0.04912300035357475
1772384353410274300,0.2432744140625,-0.018724000081419945,0.06251999735832214,-0.02169799990952015
1772384353430331400,0.263331298828125,-0.009379000402987003,0.050016000866889954,-0.026959000155329704
1772384353450388700,0.283388671875,-0.003502999898046255,0.060812998563051224,-0.027166999876499176
1772384353470445800,0.30344580078125,0.006796000059694052,0.05025000125169754,-0.02573299966752529
1772384353490503200,0.323503173828125,0.005437000188976526,0.03460000082850456,-0.026187000796198845
1772384353510560300,0.343560302734375,0.0027489999774843454,0.026079999282956123,-0.004149000160396099
1772384353530617900,0.363617919921875,0.007799000013619661,0.011264000087976456,-0.010518999770283699
1772384353550675200,0.38367529296875,-0.0033599999733269215,0.020210999995470047,-0.00521499989554286
1772384353570732300,0.403732177734375,0.006910999771207571,0.028169000521302223,-0.004172000102698803
1772384353590789600,0.42378955078125,0.005528999958187342,0.004935000091791153,-0.008937999606132507
1772384353610846700,0.4438466796875,0.0020230000372976065,0.0023479999508708715,-0.001550000044517219
1772384353630904000,0.463904052734375,0.0016189999878406525,0.005078000016510487,-0.0012400000123307109
1772384353650961200,0.483961181640625,-0.009903999976813793,0.002461999887600541,-0.0009919999865815043
1772384353671018500,0.5040185546875,-0.009523999877274036,0.0003699999942909926,-0.007992999628186226
1772384353691075800,0.524075927734375,0.009181000292301178,-0.003703000023961067,-0.0007949999999254942
1772384353711133000,0.5441328125,0.015344000421464443,0.008236999623477459,-0.0006360000115819275
1772384353731190300,0.564190185546875,-0.010923000052571297,0.004989000037312508,0.0034910000395029783
1772384353751247400,0.584247314453125,-0.0007389999809674919,-0.000007999999979801942,-0.005206999834626913
1772384353771304700,0.6043046875,0.010607999749481678,0.003992999903857708,0.0054339999333024025
1772384353791361800,0.62436181640625,0.006087000016123056,0.007193999830633402,0.0027469999622553587
1772384353811419100,0.644419189453125,0.004869000054895878,-0.0022440000902861357,0.002196999965235591
1772384353831476200,0.664476318359375,-0.0017040000529959798,-0.0033950000070035458,0.008957999758422375
1772384353851533600,0.684533447265625,-0.002962999977171421,0.0028830000665038824,0.005566000007092953
1772384353871590700,0.704590576171875,0.0032289999071508646,-0.0072929998859763145,-0.013145999982953072
1772384353891648000,0.72464794921875,-0.0030159999150782824,-0.00023400000645779073,-0.004116999916732311
1772384353911705300,0.744705322265625,0.008786999620497227,0.005412000231444836,-0.0016929999692365527
1772384353931762700,0.7647626953125,0.003029000014066696,0.009929000400006771,0.002644000109285116
1772384353951819800,0.78481982421875,0.00482300017029047,0.0007430000114254653,-0.00748400017619133
1772384353971877000,0.804877197265625,0.0014590000500902534,0.007794999983161688,-0.0003870000073220581
1772384353991934200,0.824934326171875,0.001167000038549304,-0.0009629999985918403,-0.004308999981731176
1772384354011991600,0.844991455078125,-0.006264999974519014,0.006428000051528215,0.011752000078558922
1772384354032048600,0.865048583984375,-0.0050119999796152115,-0.002056000055745244,0.007801000028848648
1772384354052106000,0.88510595703125,0.005588999949395657,0.00395399983972311,0.004641000181436539
1772384354072163300,0.905163330078125,0.00447099981829524,-0.0008360000210814178,0.003713000100106001
1772384354092220400,0.925220458984375,-0.010022000409662724,-0.0006689999718219042,-0.005028999876230955
1772384354112277800,0.94527783203125,-0.000018000000636675395,-0.006134999915957451,-0.015223000198602676
1772384354132334800,0.9653349609375,0.003186000045388937,-0.0033080000430345535,-0.002578000072389841
1772384354152392200,0.98539208984375,0.0009480000007897615,-0.004246000200510025,0.0011360000353306532
1772384354172449500,1.005449462890625,0.0023590000346302986,-0.007397000212222338,0.004908999893814325
1772384354192506600,1.025506591796875,0.005886999890208244,-0.0003169999981764704,0.0023270000237971544
1772384354212564000,1.04556396484375,0.00471000000834465,0.003745000110939145,-0.003737000050023198
1772384354232621300,1.065621337890625,-0.005830999929457903,0.0013960000360384583,0.00020900000527035445
1772384354252678400,1.085678466796875,-0.0006649999995715916,-0.002882000058889389,0.002566999988630414
1772384354272735500,1.105735595703125,-0.0021329999435693026,-0.0007060000207275152,-0.0019450000254437327
1772384354292792800,1.125792724609375,-0.0001049999991664663,0.0018350000027567148,-0.005555999930948019
1772384354312850200,1.14585009765625,-0.0016850000247359276,-0.0009309999877586961,0.007553999777883291
1772384354332907500,1.165907470703125,0.0018520000157877803,-0.0023449999280273914,0.0036430000327527523
1772384354352964900,1.18596484375,-0.0017180000431835651,0.0021230001002550125,-0.002684999955818057
1772384354373022200,1.206022216796875,-0.003774000098928809,-0.00790099985897541,-0.006147999782115221
1772384354393079300,1.226079345703125,-0.0030189999379217625,-0.0007200000109151006,-0.0009180000051856041
1772384354413136600,1.24613671875,-0.000015999999959603883,0.0034229999873787165,-0.002334000077098608
1772384354433193700,1.26619384765625,0.0031870000530034304,0.0027379998937249184,0.0077320002019405365
1772384354453251000,1.2862509765625,0.0009490000084042549,-0.00020900000527035445,0.002185000106692314
1772384354473308200,1.30630810546875,0.004757999908179045,0.007832000032067299,-0.0038509999867528677
1772384354493365500,1.326365478515625,-0.007391999941319227,-0.0017330000409856439,0.002518000081181526
1772384354513422800,1.3464228515625,-0.002713999943807721,-0.001386999967508018,0.0020149999763816595
1772384354533480000,1.36647998046875,0.0018289999570697546,-0.0067090000957250595,-0.003986999858170748
1772384354553537300,1.386537353515625,0.015061999671161175,-0.0013670000480487943,0.000009000000318337698
1772384354573594600,1.4065947265625,0.002449000021442771,0.002905000001192093,-0.003192000091075897
1772384354593651700,1.426651611328125,-0.006039000116288662,-0.007275000214576721,0.00304599991068244
1772384354613709000,1.446708984375,0.0007680000271648169,0.005379000212997198,0.004035999998450279
1772384354633766100,1.46676611328125,-0.006585000082850456,0.0027030000928789377,0.0032289999071508646
1772384354653823500,1.486823486328125,0.013930999673902988,-0.0018360000103712082,0.0009830000344663858
1772384354673880600,1.506880615234375,-0.0008539999835193157,0.002529999939724803,-0.0032130000181496143
1772384354693938200,1.526938232421875,-0.0006830000202171504,0.0036239998880773783,-0.0009699999936856329
1772384354713995000,1.5469951171875,0.0018520000157877803,0.005299000069499016,0.007222999818623066
1772384354734052600,1.567052490234375,-0.002517000073567033,0.0018390000332146883,-0.0038209999911487103
1772384354754109700,1.587109619140625,-0.0004130000015720725,0.0038709999062120914,-0.0030559999868273735
1772384354774166800,1.607166748046875,0.009267999790608883,-0.00890200026333332,-0.004044999834150076
1772384354794224000,1.62722412109375,-0.0021840000990778208,-0.007122000213712454,0.00636299978941679
1772384354814281500,1.647281494140625,-0.0033470001071691513,-0.005696999840438366,0.0010900000343099236
1772384354834338600,1.667338623046875,-0.00267699989490211,0.0034409998916089535,-0.0015269999857991934
1772384354854396000,1.68739599609375,0.0034580000210553408,0.004352999851107597,-0.0012209999840706587
1772384354874453000,1.707452880859375,0.005166000220924616,0.003481999970972538,-0.0009769999887794256
1772384354894510300,1.72751025390625,-0.002266000024974346,-0.006812999956309795,0.001617999980226159
1772384354914567700,1.747567626953125,-0.010614000260829926,0.00014800000644754618,-0.008305000141263008
1772384354934624800,1.767624755859375,0.004308000206947327,0.0025190000887960196,0.006955000106245279
1772384354954682000,1.78768212890625,0.009046000428497791,0.0036150000523775816,0.007164000067859888
1772384354974739200,1.8077392578125,0.007236999925225973,-0.0011070000473409891,0.0017310000257566571
1772384354994796500,1.827796630859375,-0.005410000216215849,0.00711299991235137,-0.00021399999968707561
1772384355014854000,1.84785400390625,-0.009926999919116497,-0.002308000111952424,-0.00017100000695791095
1772384355034911000,1.867910888671875,-0.0023419999051839113,0.0021520000882446766,0.0014619999565184116
1772384355054968300,1.88796826171875,0.0021250001154839993,0.00012199999764561653,-0.004428999964147806
1772384355075025400,1.908025390625,0.0017000000225380063,0.007296999916434288,0.0004560000088531524
1772384355095082800,1.928082763671875,-0.0010389999952167273,0.00583800021559,-0.0076350001618266106
1772384355115139800,1.948139892578125,-0.008031000383198261,-0.0009289999725297093,0.005890999920666218
1772384355135197200,1.968197265625,0.007172999903559685,-0.007942999713122845,0.0007130000158213079
1772384355155254300,1.988254150390625,-0.006260000169277191,-0.0007539999787695706,0.0021699999924749136
1772384355175312000,2.008311767578125,0.0005910000181756914,0.0009960000170394778,-0.003863000078126788
1772384355195369000,2.028368896484375,0.0028719999827444553,0.0007960000075399876,-0.0086899995803833
1772384355215426300,2.04842626953125,0.007898000068962574,0.0006370000191964209,0.0002469999890308827
1772384355235483400,2.0684833984375,-0.003280000062659383,0.0029100000392645597,0.008197000250220299
1772384355255540700,2.088540771484375,-0.004224000032991171,-0.0016710000345483422,-0.0070409998297691345
1772384355275597800,2.108597900390625,-0.00017899999511428177,0.00026199998683296144,0.003965999931097031
1772384355295655200,2.1286552734375,-0.0001429999974789098,-0.0013899999903514981,0.005572999827563763
1772384355315712300,2.148712158203125,-0.005714000202715397,-0.005111999809741974,0.0004579999949783087
1772384355335769600,2.16876953125,-0.0005709999823011458,-0.00808900035917759,-0.00203300011344254
1772384355355827000,2.188826904296875,0.0035409999545663595,0.0015279999934136868,-0.0032259998843073845
1772384355375884000,2.208884033203125,0.004433999769389629,0.006821999792009592,0.008617999963462353
1772384355395941400,2.22894140625,-0.0036520001012831926,0.00145800004247576,-0.008303999900817871
1772384355415998700,2.248998779296875,0.00267699989490211,-0.00443299999460578,-0.004242999944835901
1772384355436055800,2.269055908203125,-0.0058570001274347305,-0.0035459999926388264,-0.00019500000053085387
1772384355456113200,2.289113037109375,-0.0006849999772384763,0.0011620000004768372,0.0022430000826716423
1772384355476170200,2.309170166015625,0.009050000458955765,0.0049299998208880424,-0.0006040000007487833
1772384355496227600,2.3292275390625,0.0032399999909102917,-0.00005500000042957254,0.0019160000374540687
1772384355516285000,2.349284912109375,-0.007007000036537647,-0.009643999859690666,0.012732000090181828
1772384355536342300,2.36934228515625,-0.0032059999648481607,0.0034839999862015247,-0.0034129999112337828
1772384355556399400,2.3893994140625,0.0046350001357495785,-0.0012120000319555402,-0.00033000000985339284
1772384355576456700,2.409456787109375,-0.0018909999635070562,0.005429000128060579,-0.004263999871909618
1772384355596514000,2.42951416015625,-0.0031129999551922083,0.004342999774962664,0.006188000086694956
1772384355616571400,2.4495712890625,-0.0024900001008063555,-0.0005239999736659229,-0.00304899993352592
1772384355636628500,2.46962841796875,0.00520800007507205,0.0035800000187009573,-0.0024389999452978373
1772384355656685600,2.489685546875,0.00016500000492669642,-0.0035349999088793993,-0.0035510000307112932
1772384355676743000,2.509742919921875,0.004133000038564205,-0.00042799999937415123,0.008357999846339226
1772384355696800300,2.52980029296875,0.003306000027805567,-0.0003420000139158219,0.0034860000014305115
1772384355716857300,2.549857421875,-0.004554999992251396,-0.0026740001048892736,0.00038899999344721437
1772384355736914700,2.569914794921875,-0.006043999921530485,0.005859999917447567,-0.005288000218570232
1772384355756971800,2.5899716796875,0.0031640001107007265,-0.0033110000658780336,0.0013689999468624592
1772384355777029000,2.610029052734375,0.0025309999473392963,-0.00024900000425986946,-0.0061039999127388
1772384355797086200,2.630086181640625,-0.00037399999564513564,-0.002598999999463558,0.0023159999400377274
1772384355817143600,2.6501435546875,-0.0018990000244230032,-0.00367900007404387,-0.003745999885722995
1772384355837200600,2.67020068359375,-0.005518999882042408,0.00825599953532219,0.0026020000223070383
1772384355857258200,2.69025830078125,0.005183999892324209,-0.004594000056385994,0.00048099999548867345
1772384355877315600,2.710315673828125,-0.0030529999639838934,0.0003239999932702631,0.001984999980777502
1772384355897372700,2.73037255859375,-0.0008420000085607171,0.001858999952673912,-0.0024109999649226665
1772384355917430000,2.750429931640625,0.003324999939650297,0.011087000370025635,0.00046999999904073775
1772384355937487000,2.770487060546875,0.004261000081896782,0.0016690000193193555,-0.0020230000372976065
1772384355957544400,2.79054443359375,-0.0021909999195486307,-0.005063999909907579,0.0007810000097379088
1772384355977601500,2.8106015625,-0.005752999801188707,-0.0016509999986737967,-0.004974000155925751
1772384355997659000,2.830658935546875,0.0009970000246539712,0.002678999910131097,-0.0007789999945089221
1772384356017716200,2.85071630859375,-0.004801000002771616,-0.0058559998869895935,-0.002222999930381775
1772384356037773300,2.870773193359375,-0.0014410000294446945,-0.006285000126808882,0.006219999864697456
1772384356057830700,2.89083056640625,-0.009153000079095364,-0.0034280000254511833,0.0049760001711547375
1772384356077887700,2.9108876953125,0.0006769999745301902,0.0028570001013576984,-0.004017999861389399
1772384356097945000,2.930945068359375,0.006140999961644411,0.006285000126808882,-0.0016139999497681856
1772384356118002200,2.951002197265625,-0.01028599962592125,-0.008570999838411808,0.005107999779284
1772384356138059500,2.9710595703125,-0.0026279999874532223,0.0011419999646022916,0.00408599991351366
1772384356158116900,2.991116943359375,-0.006101999897509813,-0.0030849999748170376,0.004869000054895878
1772384356178174000,3.011174072265625,0.00471699982881546,0.0015310000162571669,-0.00010399999882793054
1772384356198231300,3.031231201171875,0.0021730000153183937,0.010824999772012234,-0.009682999923825264
1772384356218288400,3.051288330078125,-0.007860999554395676,-0.0033390000462532043,-0.0021460000425577164
1772384356238345700,3.071345703125,-0.004687999840825796,-0.0026710000820457935,-0.003317000111564994
1772384356258403000,3.091403076171875,0.017048999667167664,0.00026199998683296144,0.001344999996945262
1772384356278460400,3.11146044921875,-0.003160000080242753,0.0018100000452250242,-0.0013229999458417296
1772384356298517500,3.131517578125,-0.00812899973243475,0.0038479999639093876,0.00534099992364645
1772384356318574800,3.151574951171875,-0.0025029999669641256,-0.008921000175178051,0.0018729999428614974
1772384356338632200,3.171632080078125,0.0011970000341534615,-0.0015369999455288053,-0.00010099999781232327
1772384356358689300,3.191689208984375,-0.004641000181436539,-0.0012290000449866056,-0.005681000184267759
1772384356378746600,3.21174658203125,-0.0013139999937266111,-0.004182999953627586,-0.0013439999893307686
1772384356398803700,3.2318037109375,0.006149000022560358,0.002251999918371439,0.0013229999458417296
1772384356418861000,3.251861083984375,0.0033179998863488436,0.005801999941468239,0.002658999990671873
1772384356438918100,3.271918212890625,0.004255000036209822,0.0006409999914467335,-0.0074720000848174095
1772384356458975500,3.2919755859375,-0.0037960000336170197,0.0005130000063218176,0.009220999665558338
1772384356479032800,3.31203271484375,0.0001630000042496249,-0.0035890000872313976,0.004176999907940626
1772384356499090000,3.33208984375,-0.005468999966979027,0.0011279999744147062,0.004941999912261963
1772384356519147300,3.352147216796875,-0.000375000003259629,0.004902000073343515,-0.0016459999606013298
1772384356539204600,3.37220458984375,-0.0059009999968111515,0.007122000213712454,-0.0053170002065598965
1772384356559261700,3.39226171875,-0.0007200000109151006,0.008097000420093536,-0.005853000096976757
1772384356579319000,3.412319091796875,0.0026229999493807554,-0.001521000056527555,0.002517000073567033
1772384356599376400,3.43237646484375,0.004497999791055918,-0.01481700036674738,0.006012999918311834
1772384356619433500,3.45243359375,-0.0020000000949949026,-0.007853000424802303,0.0008099999977275729
1772384356639490800,3.47249072265625,0.00559900002554059,0.0017160000279545784,-0.004951000213623047
1772384356659548000,3.4925478515625,-0.0011190000222995877,-0.0010260000126436353,-0.002360000042244792
1772384356679605200,3.512605224609375,-0.010495999827980995,-0.0024210000410676003,0.0005109999910928309
1772384356699662300,3.532662353515625,-0.008396999910473824,-0.0035359999164938927,-0.0051910001784563065
1772384356719719700,3.5527197265625,0.0012809999752789736,0.006769999861717224,-0.012152000330388546
1772384356739777000,3.572777099609375,0.0026259999722242355,-0.0009830000344663858,0.00787699967622757
1772384356759834000,3.592834228515625,0.002099999925121665,0.0016129999421536922,0.006302000023424625
1772384356779891500,3.612891357421875,0.0016799999866634607,0.006889999844133854,0.002641000086441636
1772384356799948500,3.632948486328125,0.0013439999893307686,0.003911999985575676,0.002113000024110079
1772384356820006000,3.653005859375,-0.00292299990542233,-0.0048699998296797276,0.0016899999463930726
1772384356840063000,3.67306298828125,0.0032599999103695154,0.004102999810129404,0.003751999931409955
1772384356860120300,3.693120361328125,0.005007000174373388,0.003283000085502863,-0.0033970000222325325
1772384356880177400,3.713177490234375,0.000006000000212225132,-0.009372999891638756,-0.008317999541759491
1772384356900234800,3.73323486328125,-0.005594999995082617,-0.0018980000168085098,-0.006653999909758568
1772384356920291800,3.753291748046875,-0.004476000089198351,0.0024800000246614218,0.0026759998872876167
1772384356940349200,3.77334912109375,-0.011579999700188637,0.0019839999731630087,0.002139999996870756
1772384356960406300,3.79340625,0.002735000103712082,-0.00241199997253716,0.008911999873816967
1772384356980463600,3.813463623046875,0.005388000048696995,0.004470000043511391,0.005530000198632479
1772384357000520700,3.833520751953125,-0.0012890000361949205,-0.004422999918460846,-0.0035749999806284904
1772384357020578000,3.853578125,-0.008232000283896923,-0.005138999782502651,-0.010060000233352184
1772384357040635400,3.873635498046875,0.0030139998998492956,0.0030879999976605177,-0.006448000203818083
1772384357060692500,3.8936923828125,0.0056119998916983604,-0.003128000069409609,-0.0011579999700188637
1772384357080749800,3.913749755859375,-0.0011099999537691474,0.0014959999825805426,0.0046720001846551895
1772384357100807000,3.933806884765625,0.004712000023573637,0.0027970001101493835,0.01893799938261509
1772384357120864300,3.9538642578125,0.00776899978518486,0.014236999675631523,0.00795000046491623
1772384357140921300,3.97392138671875,0.0022150001022964716,0.011389999650418758,-0.001639000023715198
1772384357160978700,3.993978759765625,-0.003828000044450164,-0.002887000096961856,-0.006910999771207571
1772384357181035800,4.014035888671875,-0.007062000222504139,-0.011909999884665012,-0.00392899988219142
1772384357201093000,4.034093017578125,-0.008851000107824802,-0.011127999983727932,-0.00634300010278821
1772384357221150200,4.054150146484375,-0.0038799999747425318,-0.001702000037766993,-0.0018739999504759908
1772384357241207600,4.07420751953125,0.004896000027656555,0.005036999937146902,-0.0014990000054240227
1772384357261264600,4.0942646484375,0.007915999740362167,0.000029999999242136255,-0.004399000201374292
1772384357281322000,4.114322021484375,0.0023330000694841146,-0.002374999923631549,0.0020800000056624413
1772384357301379000,4.134379150390625,-0.0021329999435693026,-0.007499999832361937,0.011264000087976456
1772384357321436400,4.1544365234375,-0.007306999992579222,0.0019990000873804092,0.0066109998151659966
1772384357341493500,4.174493408203125,-0.007445999886840582,0.003198999911546707,-0.00750999990850687
1772384357361550800,4.19455078125,-0.002756000030785799,0.008159000426530838,-0.0124080004170537
1772384357381608200,4.214608154296875,-0.00380500010214746,0.003326999954879284,-0.00032699998700991273
1772384357401665300,4.234665283203125,0.008155000396072865,0.00026199998683296144,-0.003461000043898821
1772384357421722600,4.25472265625,0.008923999965190887,0.005809000227600336,0.004430000204592943
1772384357441779700,4.27477978515625,0.0031399999279528856,0.001446999958716333,0.0019440000178292394
1772384357461837000,4.294837158203125,0.004112000111490488,-0.005241000093519688,0.003155000042170286
1772384357481894100,4.31489404296875,0.00008900000102585182,-0.00419300002977252,0.004923999775201082
1772384357501951200,4.334951171875,0.003272000001743436,-0.004954000003635883,0.003938999958336353
1772384357522008600,4.355008544921875,-0.006982000079005957,0.00003600000127335079,-0.0032480000518262386
1772384357542066000,4.37506591796875,-0.008786999620497227,-0.005570999812334776,0.0038010000716894865
1772384357562123000,4.395123046875,-0.003829000052064657,0.001142999972216785,0.0006409999914467335
1772384357582180000,4.41518017578125,-0.0046629998832941055,-0.0014850000152364373,-0.0010870000114664435
1772384357602237400,4.435237548828125,-0.0037299999967217445,-0.006787999998778105,-0.0064690001308918
1772384357622294500,4.45529443359375,-0.0029849999118596315,-0.005429999902844429,-0.0019749999046325684
1772384357642351900,4.475351806640625,-0.0023880000226199627,0.005255000200122595,0.004819000139832497
1772384357662409000,4.495408935546875,0.007689000107347965,0.006603999994695187,-0.00254400004632771
1772384357682466300,4.51546630859375,0.0021510000806301832,0.0012829999905079603,0.004364000167697668
1772384357702523600,4.535523681640625,0.0017209999496117234,-0.004573000129312277,0.0034910000395029783
1772384357722580700,4.555580810546875,0.0013770000077784061,0.005940999835729599,0.00279300007969141
1772384357742637800,4.575637939453125,0.009100000374019146,0.0047530001029372215,0.003834000090137124
1772384357762695200,4.595695068359375,-0.0007190000033006072,0.005402000155299902,-0.0009319999953731894
1772384357782752500,4.61575244140625,0.0018240000354126096,-0.0036780000664293766,0.0016540000215172768
1772384357802809600,4.6358095703125,0.0014590000500902534,-0.0005419999943114817,-0.0026759998872876167
1772384357822867000,4.655866943359375,-0.002831999910995364,0.0011660000309348106,-0.007741000037640333
1772384357842924000,4.675924072265625,-0.002265000017359853,-0.008666999638080597,-0.0005929999751970172
1772384357862981400,4.6959814453125,-0.00021100000594742596,-0.006932999938726425,0.010724999941885471
1772384357883038500,4.71603857421875,0.002228999976068735,-0.0015460000140592456,0.0029800001066178083
1772384357903095600,4.736095458984375,-0.002216000109910965,-0.009236999787390232,-0.007215000223368406
1772384357923153000,4.75615283203125,-0.004172000102698803,0.008608999662101269,-0.0017719999887049198
1772384357943210000,4.7762099609375,0.000661000027321279,0.004486999940127134,0.00018099999579135329
1772384357963267300,4.796267333984375,0.010129000060260296,0.001990000018849969,-0.009453999809920788
1772384357983324700,4.81632470703125,-0.005495999939739704,0.00559200020506978,0.0004360000020824373
1772384358003381800,4.8363818359375,0.009201999753713608,-0.0035260000731796026,-0.002050000010058284
1772384358023438800,4.85643896484375,-0.00783700030297041,-0.006819999776780605,0.0007590000168420374
1772384358043496000,4.876495849609375,-0.011869000270962715,-0.007056000176817179,0.0022070000413805246
1772384358063553500,4.896553466796875,-0.005495999939739704,-0.000045000000682193786,0.004164999816566706
1772384358083610400,4.9166103515625,0.006802999880164862,0.009562999941408634,0.008932000026106834
1772384358103667700,4.936667724609375,0.0070420000702142715,0.00925000011920929,-0.0024530000519007444
1772384358123724800,4.956724853515625,0.00803299993276596,0.0017999999690800905,0.0020359999034553766
1772384358143782000,4.976781982421875,-0.005572000052779913,-0.0041589997708797455,0.00482900021597743
1772384358163839200,4.996839111328125,-0.0044570001773536205,-0.007327000144869089,-0.0017359999474138021
1772384358183896300,5.016896240234375,-0.006765999831259251,-0.005861999932676554,0.0010100000072270632
1772384358203953700,5.03695361328125,0.009785999543964863,0.008910000324249268,-0.003191000083461404
1772384358224010800,5.0570107421875,-0.00016900000628083944,0.007127999793738127,-0.004951999988406897
1772384358244068000,5.077068115234375,-0.005735000129789114,-0.005497000180184841,-0.005561999976634979
1772384358264125200,5.097125244140625,-0.0005890000029467046,0.0012019999558106065,0.0035500000230968
1772384358284182300,5.117182373046875,0.0011289999820291996,-0.0014380000066012144,0.0004400000034365803
1772384358304239600,5.137239501953125,0.010502999648451805,0.0028490000404417515,0.004352000076323748
1772384358324296700,5.157296630859375,0.0028019999153912067,0.007879000157117844,-0.004517999943345785
1772384358344354000,5.17735400390625,0.0006409999914467335,0.0031030001118779182,-0.006814000196754932
1772384358364411100,5.1974111328125,-0.011486000381410122,-0.0015170000260695815,-0.0038509999867528677
1772384358384468200,5.21746826171875,-0.0011889999732375145,-0.006812999956309795,-0.003080999944359064
1772384358404525300,5.237525390625,0.0006489999941550195,-0.009449999779462814,0.007133999839425087
1772384358424582700,5.257582763671875,-0.0010809999657794833,-0.0003600000054575503,0.0057069999165833
1772384358444639700,5.2776396484375,-0.0008640000014565885,0.006111000198870897,0.00456599984318018
1772384358464697000,5.297697021484375,0.010507999919354916,0.002489000093191862,0.002053000032901764
1772384358484754200,5.317754150390625,0.0028059999458491802,0.0003910000086762011,-0.002357000019401312
1772384358504811500,5.3378115234375,0.0006440000142902136,-0.00368599989451468,0.003713000100106001
1772384358524868900,5.357868896484375,-0.011483999900519848,-0.006949000060558319,-0.0066280001774430275
1772384358544925700,5.37792578125,-0.0011879999656230211,0.000039999998989515007,0.00029600001289509237
1772384358564983000,5.397983154296875,0.0062500000931322575,0.0024319998919963837,0.0026370000559836626
1772384358585040100,5.4180400390625,0.0017989999614655972,-0.00045399999362416565,-0.004288999829441309
1772384358605097500,5.438097412109375,0.0030400000978261232,0.0036359999794512987,-0.0010310000507161021
1772384358625154600,5.458154541015625,0.008031000383198261,0.0013089999556541443,0.012773999944329262
1772384358645212000,5.4782119140625,0.0008249999955296516,0.0026469998992979527,0.015819000080227852
1772384358665268700,5.498268798828125,-0.007338999770581722,-0.003481999970972538,-0.000944000028539449
1772384358685326000,5.518326171875,0.006128000095486641,-0.002785000018775463,-0.008755000308156013
1772384358705383200,5.538383056640625,-0.0006970000104047358,0.0033710000570863485,-0.004604000132530928
1772384358725440500,5.5584404296875,-0.002956999931484461,-0.0013020000187680125,-0.006082999985665083
1772384358745497600,5.57849755859375,-0.013566000387072563,-0.006641999818384647,-0.004865999799221754
1772384358765554700,5.5985546875,-0.0036520001012831926,0.0026859999634325504,-0.0014929999597370625
1772384358785611800,5.61861181640625,0.003476999932900071,-0.001851000008173287,-0.005193999968469143
1772384358805669000,5.638669189453125,0.0003819999983534217,-0.0030799999367445707,0.005444000009447336
1772384358825726200,5.658726318359375,0.0027050001081079245,-0.002463999902829528,0.01395499985665083
1772384358845783300,5.678783203125,0.003765000030398369,0.014828000217676163,0.0015640000347048044
1772384358865840600,5.698840576171875,0.001411000033840537,0.0022619999945163727,-0.004348000045865774
1772384358885898000,5.71889794921875,0.008329000324010849,0.009809999726712704,0.0005210000090301037
1772384358905954800,5.738954833984375,0.00506300013512373,0.0038479999639093876,0.006016000173985958
1772384358926012200,5.75901220703125,-0.007947999984025955,-0.010521000251173973,-0.003186000045388937
1772384358946069200,5.7790693359375,-0.003959000110626221,-0.010017000138759613,-0.002549000084400177
1772384358966126300,5.799126220703125,-0.0015660000499337912,0.001585999969393015,-0.0020389999262988567
1772384358986183700,5.81918359375,0.004346000030636787,0.00846800021827221,0.0007680000271648169
1772384359006240800,5.83924072265625,0.00027600000612437725,0.0011749999830499291,0.0022140000946819782
1772384359026297900,5.8592978515625,0.0002209999947808683,-0.0030590000096708536,-0.0022279999684542418
1772384359046355200,5.879355224609375,0.0017770000267773867,-0.0024470000062137842,0.0038169999606907368
1772384359066412300,5.899412353515625,-0.0025770000647753477,-0.007557999808341265,-0.00014600000577047467
1772384359086469400,5.919469482421875,-0.002061000093817711,0.00355300004594028,-0.0025160000659525394
1772384359106526500,5.9395263671875,0.0007489999989047647,-0.0011569999624043703,-0.0020129999611526728
1772384359126583800,5.959583740234375,0.007799999788403511,-0.004124999977648258,-0.00880999956279993
1772384359146641000,5.979640869140625,-0.007360000163316727,-0.007300000172108412,0.00015100000018719584
1772384359166698200,5.9996982421875,-0.011486999690532684,0.005359000060707331,0.0025210001040250063
1772384359186755300,6.01975537109375,0.00041000000783242285,0.004286999814212322,-0.0019829999655485153
1772384359206812400,6.0398125,0.009926999919116497,0.009030000306665897,0.0056130001321434975
1772384359226869800,6.059869873046875,0.023141000419855118,0.020824000239372253,0.008489999920129776
1772384359246926800,6.0799267578125,-0.011885000392794609,0.0030590000096708536,0.010792000219225883
1772384359266984200,6.099984130859375,-0.013508000411093235,-0.023951999843120575,-0.0145650003105402
1772384359287041000,6.120041015625,-0.0012069999938830733,-0.0215620007365942,-0.006051999982446432
1772384359307098400,6.140098388671875,0.004633000120520592,0.0003499999875202775,-0.0008420000085607171
1772384359327155500,6.160155517578125,-0.003493000054731965,-0.013318999670445919,-0.007872999645769596
1772384359347212800,6.180212890625,0.004404999781399965,-0.006655000150203705,0.008901000022888184
1772384359367269600,6.20026953125,-0.0036750000435858965,0.004275000188499689,0.003120000008493662
1772384359387327000,6.220326904296875,-0.018138999119400978,0.013020000420510769,0.002495999913662672
1772384359407384000,6.240384033203125,-0.012911000289022923,-0.0007830000249668956,-0.009201999753713608
1772384359427441400,6.26044140625,0.01447100006043911,0.010572000406682491,0.002237000036984682
1772384359447498200,6.280498291015625,0.015576000325381756,0.027658000588417053,0.011389999650418758
1772384359467555600,6.3005556640625,0.01245999988168478,0.012525999918580055,-0.004486999940127134
1772384359487612700,6.32061279296875,0.011568999849259853,0.011621000245213509,0.006008999887853861
1772384359507670000,6.340669921875,0.005253999959677458,0.003696999978274107,-0.003192000091075897
1772384359527726800,6.360726806640625,-0.014196000061929226,-0.020241999998688698,-0.00815299991518259
1772384359547784200,6.3807841796875,-0.024955999106168747,-0.028992999345064163,-0.0025229998864233494
1772384359567841300,6.40084130859375,-0.0143649997189641,-0.011994999833405018,-0.0020179999992251396
1772384359587898400,6.4208984375,0.006107000168412924,0.005603000055998564,-0.015213999897241592
1772384359607955500,6.44095556640625,-0.001512999995611608,0.008483000099658966,-0.004170999862253666
1772384359628012800,6.4610126953125,-0.0012110000243410468,-0.004412999842315912,0.0038620000705122948
1772384359648070000,6.48106982421875,0.0014299999456852674,0.0036689999978989363,0.01508999988436699
1772384359668127000,6.501126953125,0.005144000053405762,0.00133500003721565,0.013671999797224998
1772384359688184000,6.52118408203125,0.001715000020340085,0.01066800020635128,-0.002662000013515353
1772384359708241400,6.541241455078125,0.0013719999697059393,0.002933999989181757,0.011470000259578228
1772384359728298500,6.561298583984375,0.005098000168800354,0.002346999943256378,0.007575999945402145
1772384359748355600,6.58135546875,0.009677999652922153,-0.006120999809354544,-0.0003389999910723418
1772384359768412700,6.60141259765625,0.007741999812424183,0.006302000023424625,0.0021279999054968357
1772384359788470000,6.621469970703125,-0.0034050000831484795,0.003441999899223447,0.0057020001113414764
1772384359808527000,6.641527099609375,-0.004323999863117933,-0.005245999898761511,-0.007437000051140785
1772384359828584200,6.661584228515625,-0.003459000028669834,-0.0041970000602304935,-0.009949999861419201
1772384359848641300,6.681641357421875,-0.001167000038549304,-0.000957000011112541,-0.007960000075399876
1772384359868698600,6.70169873046875,-0.006533000152558088,-0.0031659998930990696,0.00003099999958067201
1772384359888756000,6.721755859375,-0.001227000029757619,-0.004131999798119068,-0.006374000106006861
1772384359908812800,6.741812744140625,0.0006179999909363687,0.0006929999799467623,-0.0026990000624209642
1772384359928870000,6.761869873046875,0.002893999917432666,-0.003444999922066927,0.005040000192821026
1772384359948927200,6.78192724609375,-0.011282999999821186,-0.001155999954789877,0.0024319998919963837
1772384359968984300,6.801984375,-0.005026999861001968,0.0014750000555068254,-0.0020540000405162573
1772384359989041400,6.82204150390625,0.005578000098466873,0.0027799999807029963,-0.005642999894917011
1772384360009098500,6.842098388671875,0.010061999782919884,0.010223999619483948,-0.002114000031724572
1772384360029155600,6.862155517578125,0.00004999999873689376,0.00017899999511428177,0.002308000111952424
1772384360049213000,6.882212890625,-0.003959000110626221,-0.005456000100821257,-0.0061530000530183315
1772384360069270000,6.90227001953125,0.0032319999299943447,-0.00596500001847744,0.006277000065892935
1772384360089327000,6.9223271484375,0.008185000158846378,0.0024270000867545605,0.0034209999721497297
1772384360109384200,6.94238427734375,0.0009469999931752682,0.0003420000139158219,0.0011370000429451466
1772384360129441300,6.962441162109375,0.003957999870181084,-0.002125999890267849,0.006508999969810247
1772384360149498600,6.98249853515625,-0.00003300000025774352,0.0022990000434219837,0.005206999834626913
1772384360169555500,7.002555419921875,-0.0040259999223053455,-0.00215999991632998,-0.0038330000825226307
1772384360189612500,7.022612548828125,-0.011219999752938747,-0.004927999805659056,-0.010266000404953957
1772384360209670000,7.042669921875,-0.0049760001711547375,-0.000742000003810972,0.0013859999598935246
1772384360229727000,7.06272705078125,0.0016189999878406525,0.0018050000071525574,0.0027089999057352543
1772384360249784000,7.0827841796875,-0.00030499999411404133,0.0014440000522881746,-0.00583200016990304
1772384360269841200,7.102841064453125,0.003754999954253435,0.0027550000231713057,-0.000666000007186085
1772384360289898200,7.122898193359375,-0.0033950000070035458,-0.0033950000070035458,-0.0005319999763742089
1772384360309955300,7.142955322265625,-0.00031599999056197703,0.0012829999905079603,0.005173000041395426
1772384360330012700,7.1630126953125,-0.004251999780535698,-0.0029730000533163548,0.004137999843806028
1772384360350069500,7.183069580078125,0.0061969999223947525,-0.007977999746799469,0.005710999947041273
1772384360370126800,7.203126953125,0.004958000034093857,0.0008169999928213656,-0.0010310000507161021
1772384360390184000,7.223183837890625,-0.00003300000025774352,0.004652999807149172,-0.0032240001019090414
1772384360410241000,7.243240966796875,-0.001626000041142106,-0.003476999932900071,0.0014199999859556556
1772384360430298400,7.26329833984375,-0.0052999998442828655,0.006818000227212906,-0.00046300000394694507
1772384360450355500,7.28335546875,0.0013589999871328473,0.008654000237584114,0.0012280000373721123
1772384360470412500,7.30341259765625,0.006688000168651342,-0.00027600000612437725,0.002583000110462308
1772384360490469600,7.3234697265625,0.00774900009855628,0.005379000212997198,0.0004659999976865947
1772384360510526700,7.343526611328125,0.002199999988079071,-0.0012959999730810523,-0.003625999903306365
1772384360530583800,7.363583740234375,-0.002240000059828162,-0.009037000127136707,0.0010979999788105488
1772384360550641200,7.38364111328125,-0.001791000016964972,-0.012829000130295753,0.0008779999916441739
1772384360570698200,7.4036982421875,-0.008634000085294247,0.0009360000258311629,-0.003295999951660633
1772384360590755300,7.42375537109375,-0.0013070000568404794,0.007147999946027994,0.0029619999695569277
1772384360610812400,7.4438125,0.006155000068247318,0.00571900000795722,-0.0008299999753944576
1772384360630869500,7.463869384765625,-0.00227600010111928,0.0005750000127591193,0.0009350000182166696
1772384360650926600,7.483926513671875,-0.0018210000125691295,0.0004600000102072954,0.0007479999912902713
1772384360670984000,7.50398388671875,0.0025420000310987234,0.0019680000841617584,0.0021989999804645777
1772384360691041000,7.524041015625,0.003633999964222312,-0.0024250000715255737,0.0041589997708797455
1772384360711098000,7.54409814453125,-0.0010920000495389104,0.00045900000259280205,-0.0046720001846551895
1772384360731155200,7.5641552734375,0.0015239999629557133,-0.002032000105828047,0.004261000081896782
1772384360751212300,7.58421240234375,-0.005179000087082386,0.0007740000146441162,-0.0045900000259280205
1772384360771269400,7.604269287109375,0.0038560000248253345,0.006219000089913607,0.004327000118792057
1772384360791326700,7.62432666015625,-0.0049149999395012856,-0.000623999978415668,-0.0005370000144466758
1772384360811383600,7.644383544921875,-0.0055320002138614655,-0.006099000107496977,0.0011690000537782907
1772384360831441000,7.66444091796875,-0.00442600017413497,0.002319999970495701,-0.0046640001237392426
1772384360851497700,7.684497802734375,0.0020580000709742308,0.00025599999935366213,0.0002680000034160912
1772384360871555000,7.70455517578125,0.00004600000102072954,-0.002194999950006604,0.00021399999968707561
1772384360891612200,7.724612060546875,-0.005561999976634979,-0.00495600001886487,-0.005427999887615442
1772384360911669200,7.744669189453125,0.0011500000255182385,0.0016349999932572246,0.005257000215351582
1772384360931726300,7.764726318359375,0.002520000096410513,-0.006690999958664179,0.00420599989593029
1772384360951783700,7.78478369140625,0.0004149999876972288,0.004246000200510025,0.0009640000062063336
1772384360971840500,7.804840576171875,0.00433199992403388,0.011397000402212143,0.008771000429987907
1772384360991897600,7.824897705078125,-0.004532999824732542,0.0035170000046491623,-0.004182000178843737
1772384361011954700,7.84495458984375,-0.00202700006775558,-0.005185000132769346,-0.005745999980717897
1772384361032011800,7.86501171875,0.004776999820023775,0.0038509999867528677,-0.0005959999980404973
1772384361052069000,7.885069091796875,0.007021999917924404,0.008681000210344791,-0.002076999982818961
1772384361072126000,7.9051259765625,0.0024170000106096268,-0.008255000226199627,-0.005661000031977892
1772384361092183300,7.925183349609375,-0.0020649998914450407,-0.009003999643027782,0.00506999995559454
1772384361112240400,7.945240478515625,0.00394799979403615,-0.007203000131994486,0.0016560000367462635
1772384361132297500,7.96529736328125,-0.0024419999681413174,-0.001762000028975308,-0.0002739999908953905
1772384361152354600,7.9853544921875,0.0020459999796003103,0.00658900011330843,-0.004219000227749348
1772384361172411600,8.00541162109375,-0.004761999938637018,0.008471000008285046,-0.0009749999735504389
1772384361192468700,8.02546875,0.00018899999849963933,-0.0004220000118948519,0.0024190000258386135
1772384361212525600,8.045525634765625,-0.015048000030219555,-0.004337000194936991,-0.0036639999598264694
1772384361232583000,8.0655830078125,0.007162000052630901,0.002128999913111329,-0.0005310000269673765
1772384361252640000,8.085639892578126,0.015328999608755112,0.005702999886125326,0.0051739998161792755
1772384361272697000,8.105697021484374,0.00266400002874434,0.0005619999719783664,0.004139000084251165
1772384361292754200,8.125754150390625,-0.003469000104814768,-0.00914900004863739,0.00891099963337183
1772384361312811300,8.145811279296876,-0.006773999892175198,0.0006799999973736703,-0.0008699999889358878
1772384361332868400,8.165868408203124,-0.003819999983534217,-0.0018550000386312604,-0.006295999977737665
1772384361352925700,8.18592578125,0.000944000028539449,-0.003083999967202544,-0.0026370000559836626
1772384361372982500,8.205982421875,0.010354000143706799,0.0015320000238716602,0.005090000107884407
1772384361393039600,8.22603955078125,-0.01091499999165535,-0.002773999935016036,-0.0031270000617951155
1772384361413097000,8.246096923828125,-0.004732000175863504,-0.0006189999985508621,-0.000901999999769032
1772384361433154000,8.266154052734375,-0.003785999957472086,-0.0036949999630451202,-0.0007210000185295939
1772384361453211100,8.286211181640626,0.004970000125467777,0.006643000058829784,-0.00457700015977025
1772384361473268200,8.306268310546875,-0.00002300000051036477,-0.006684999912977219,-0.0036609999369829893
1772384361493325300,8.3263251953125,-0.000018999999156221747,0.004251000005751848,0.0026700000744313
1772384361513382400,8.34638232421875,0.003984000068157911,-0.0037980000488460064,0.0021359999664127827
1772384361533439500,8.366439453125,0.004788000136613846,0.0001610000035725534,-0.0014900000533089042
1772384361553496600,8.38649658203125,0.002228999976068735,-0.007069999817758799,0.0020069999154657125
1772384361573553700,8.4065537109375,-0.002216000109910965,-0.004056000150740147,-0.0015940000303089619
1772384361593610800,8.42661083984375,-0.00737199978902936,0.0007539999787695706,0.0019239999819546938
1772384361613667800,8.446667724609375,0.006901999935507774,0.010203000158071518,-0.00005999999848427251
1772384361633725200,8.46672509765625,0.005520999897271395,0.002561999950557947,-0.0016479999758303165
1772384361653782000,8.486781982421874,0.004416999872773886,-0.005948999896645546,0.005880999844521284
1772384361673839400,8.50683935546875,0.0003330000035930425,0.0032399999909102917,0.0007050000131130219
1772384361693896400,8.526896484375,-0.0077320002019405365,0.0025919999461621046,-0.006634999997913837
1772384361713953500,8.54695361328125,0.0018129999516531825,0.0020729999523609877,-0.001307999948039651
1772384361734010600,8.5670107421875,-0.0009469999931752682,-0.007939999923110008,0.0061530000530183315
1772384361754067700,8.587067626953125,0.003240999998524785,0.004846999887377024,0.003321999916806817
1772384361774124800,8.607124755859376,0.00419300002977252,0.0038769999518990517,0.0026569999754428864
1772384361794182000,8.627181884765625,0.0001539999939268455,-0.0008970000199042261,-0.0018729999428614974
1772384361814239000,8.647239013671875,-0.0022750000935047865,-0.002317999955266714,0.004100999794900417
1772384361834296000,8.667296142578126,-0.0034199999645352364,-0.00025400001322850585,-0.0023189999628812075
1772384361854353200,8.687353271484374,-0.005135999992489815,-0.0034030000679194927,-0.0018550000386312604
1772384361874410000,8.707409912109375,-0.005708000157028437,0.002877000020816922,-0.001484000007621944
1772384361894467300,8.72746728515625,-0.0005670000100508332,0.006300999782979488,0.0028119999915361404
1772384361914524200,8.747524169921874,0.001145999995060265,-0.001357999979518354,-0.005748999770730734
1772384361934581200,8.767581298828125,-0.00868299975991249,-0.010685999877750874,-0.0005990000208839774
1772384361954638600,8.787638671875,-0.0029460000805556774,-0.008549000136554241,-0.002078999998047948
1772384361974695400,8.8076953125,0.0032420000061392784,0.009159999899566174,0.0015360000543296337
1772384361994752800,8.827752685546875,0.0009929999941959977,0.008927999995648861,-0.000371000001905486
1772384362014809600,8.8478095703125,-0.0048039997927844524,-0.002457000082358718,0.005303000099956989
1772384362034867000,8.867866943359376,-0.0022430000826716423,0.009233999997377396,0.0042420001700520515
1772384362054923800,8.887923828125,-0.0017940000398084521,0.0017869999865069985,-0.0062060002237558365
1772384362074981000,8.907981201171875,-0.0014359999913722277,-0.005770000163465738,0.0030350000597536564
1772384362095038000,8.928037841796876,-0.0027489999774843454,0.0009830000344663858,0.000028000000384054147
1772384362115095300,8.94809521484375,0.0034000000450760126,0.0023870000150054693,-0.0031769999768584967
1772384362135152000,8.968152099609375,0.0003209999995306134,-0.009290000423789024,-0.00254100002348423
1772384362155209200,8.988209228515625,-0.0013419999741017818,-0.00023200000578071922,-0.00203300011344254
1772384362175266300,9.008266357421874,0.004526000004261732,0.0038139999378472567,-0.0040259999223053455
1772384362195323400,9.028323486328125,-0.00037900000461377203,0.007050999905914068,0.0007779999868944287
1772384362215380500,9.04838037109375,-0.00030300000798888505,0.004040999803692102,-0.004976999945938587
1772384362235437600,9.0684375,-0.0018420000560581684,-0.012767000123858452,0.007218000013381243
1772384362255494700,9.08849462890625,0.004124999977648258,-0.0006130000110715628,0.0001740000006975606
1772384362275551700,9.1085517578125,0.00570000009611249,0.0059090000577270985,0.00013899999612476677
1772384362295608800,9.12860888671875,0.004559999797493219,0.006326999980956316,0.004110999871045351
1772384362315666000,9.148666015625,-0.00035099999513477087,-0.012538000009953976,-0.006310000084340572
1772384362335723000,9.168722900390625,-0.00988100003451109,0.0035689999349415302,-0.003447999944910407
1772384362355780000,9.188780029296876,-0.006304000038653612,0.0028550000861287117,0.005241000093519688
1772384362375837200,9.208837158203124,-0.005042999982833862,0.002283999929204583,-0.005406999960541725
1772384362395894300,9.228894287109375,0.0015640000347048044,-0.0021720000077039003,0.0012740000383928418
1772384362415951000,9.248951171875,-0.0003480000013951212,-0.00493700010702014,0.0010189999593421817
1772384362436008400,9.269008544921874,-0.0018779999809339643,-0.000750000006519258,0.0008149999775923789
1772384362456065300,9.289065185546875,0.009696999564766884,0.011398999951779842,0.00865199975669384
1772384362476122400,9.309122314453125,0.013357999734580517,0.005119000095874071,0.002920999890193343
1772384362496179500,9.329179443359376,-0.000514000013936311,-0.0015040000434964895,-0.003261999925598502
1772384362516236500,9.349236572265625,-0.006010999903082848,-0.006802999880164862,-0.009008999913930893
1772384362536293600,9.369293701171875,-0.008808000013232231,-0.0054419999942183495,-0.007207000162452459
1772384362556350700,9.389350830078126,0.002552000107243657,0.005245000123977661,-0.0033660000190138817
1772384362576407800,9.40940771484375,-0.005956000182777643,-0.0038030000869184732,0.010905999690294266
1772384362596465000,9.42946484375,-0.002366000087931752,-0.00304200011305511,0.0007249999907799065
1772384362616522000,9.44952197265625,-0.005890999920666218,0.0031649998854845762,0.0005799999926239252
1772384362636578800,9.469578857421874,0.0064860000275075436,0.004931999836117029,-0.0011350000277161598
1772384362656636200,9.48963623046875,0.0011889999732375145,0.0015460000140592456,0.006291000172495842
1772384362676693000,9.50969287109375,0.004951000213623047,-0.005963000003248453,0.013032999821007252
1772384362696750300,9.529750244140626,0.002360000042244792,-0.004769999999552965,0.000826000003144145
1772384362716807200,9.54980712890625,-0.002111000008881092,-0.002216000109910965,-0.008937999606132507
1772384362736864500,9.569864501953125,-0.003289999905973673,0.002225999953225255,0.0024480000138282776
1772384362756921300,9.58992138671875,-0.005030999891459942,-0.00381799996830523,-0.00203999993391335
1772384362776978700,9.609978759765625,-0.000024000000848900527,0.0065449997782707214,-0.0032319999299943447
1772384362797035500,9.630035400390625,0.0015800000401213765,-0.0027630000840872526,0.0030129998922348022
1772384362817092600,9.650092529296876,-0.004335000179708004,-0.002211000071838498,0.0024109999649226665
1772384362837149700,9.670149658203124,-0.009068000130355358,-0.0033680000342428684,-0.0060709998942911625
1772384362857206800,9.690206787109375,0.0007440000190399587,0.006903999950736761,0.0031429999507963657
1772384362877264000,9.710263916015625,0.01579499989748001,-0.0008759999764151871,0.0025140000507235527
1772384362897321000,9.730321044921874,0.0030360000673681498,-0.04230000078678131,0.06681100279092789
1772384362917378000,9.7503779296875,-0.1551699936389923,0.06135899946093559,-0.08654999732971191
1772384362937435000,9.770434814453125,0.2078630030155182,0.033886998891830444,-0.04044000059366226
1772384362957492200,9.7904921875,-0.023307999595999718,-0.011289999820291996,-0.014751999638974667
