time,seconds_elapsed,z,y,x
1772593850053344000,0.259343994140625,7.991546154022217,-6.045958042144775,-1.8483237028121948
1772593850073608000,0.27960791015625,6.713042259216309,-6.033987045288086,-1.7579425573349
1772593850093871000,0.29987109375,5.5760955810546875,-6.0303955078125,-0.6135141849517822
1772593850114135000,0.320135009765625,5.505167484283447,-5.936722278594971,0.6054337620735168
1772593850134399000,0.34039892578125,5.509057998657227,-4.812046051025391,2.250549554824829
1772593850154662000,0.360661865234375,0.02843114547431469,-3.9683892726898193,9.156025886535645
1772593850174926000,0.380926025390625,-1.5804723501205444,-3.9495348930358887,11.267412185668945
1772593850195190000,0.40118994140625,-3.2800562381744385,-3.107374429702759,12.226290702819824
1772593850215453000,0.421452880859375,-2.2619221210479736,-3.061884641647339,13.160327911376953
1772593850235717000,0.441717041015625,-1.2692261934280396,-3.014599323272705,13.13189697265625
1772593850255981000,0.46198095703125,-1.2575544118881226,-3.0388405323028564,11.703755378723145
1772593850276244000,0.482243896484375,-1.2943652868270874,-4.042908668518066,10.121787071228027
1772593850296508000,0.5025078125,-1.2515689134597778,-5.069422721862793,8.942642211914062
1772593850316772000,0.522772216796875,-0.03232172131538391,-6.651092529296875,9.744400978088379
1772593850337035000,0.543034912109375,0.828393816947937,-7.869142532348633,11.4356050491333
1772593850357299000,0.563298828125,0.844853937625885,-9.256881713867188,12.459725379943848
1772593850377563000,0.58356298828125,0.8607155084609985,-10.757147789001465,12.405855178833008
1772593850397826000,0.603825927734375,0.8391677141189575,-11.765406608581543,12.331635475158691
1772593850418090000,0.624090087890625,0.8197147846221924,-12.746729850769043,11.22132396697998
1772593850438354000,0.64435400390625,0.019452888518571854,-13.913004875183105,10.287884712219238
1772593850458617000,0.6646171875,-0.017956512048840523,-13.989620208740234,9.12729549407959
1772593850478881000,0.684881103515625,0.02214636653661728,-13.982736587524414,7.808688640594482
1772593850499145000,0.70514501953125,0.05177461355924606,-13.005003929138184,6.411372661590576
1772593850519408000,0.725408203125,0.07122749835252762,-11.747749328613281,4.974253177642822
1772593850539672000,0.745672119140625,-0.012868833728134632,-10.277111053466797,2.8413188457489014
1772593850559936000,0.76593603515625,-0.7472901940345764,-9.388263702392578,2.7548282146453857
1772593850580199000,0.786198974609375,-0.7529764175415039,-8.596980094909668,1.9186533689498901
1772593850600463000,0.806463134765625,-0.7460930943489075,-8.548497200012207,1.923441767692566
1772593850620727000,0.82672705078125,-0.7080851793289185,-9.560945510864258,1.9557634592056274
1772593850640990000,0.846989990234375,-0.6988075971603394,-11.646294593811035,2.0201077461242676
1772593850661254000,0.86725390625,-0.7266402244567871,-11.719616889953613,2.06589674949646
1772593850681518000,0.88751806640625,-0.7481880187988281,-10.903493881225586,2.0341737270355225
1772593850701781000,0.907781005859375,-0.772429347038269,-9.180865287780762,0.9926958680152893
1772593850722045000,0.928044921875,-0.7781155705451965,-7.404667377471924,0.9190741777420044
1772593850742309000,0.94830908203125,-0.7538742423057556,-5.84963321685791,0.01346738450229168
1772593850762573000,0.968572998046875,-0.695814847946167,-4.895843029022217,-0.7335235476493835
1772593850782836000,0.9888359375,0.1900397539138794,-4.821323871612549,-0.7523778676986694
1772593850803100000,1.009099853515625,-0.6323685050010681,-4.828207015991211,0.30376434326171875
1772593850823364000,1.029364013671875,-2.2361843585968018,-8.060977935791016,4.117428302764893
1772593850843627000,1.049626953125,-4.50947904586792,-12.95233154296875,9.342175483703613
1772593850863891000,1.069890869140625,-5.321712017059326,-15.482105255126953,11.200674057006836
1772593850884155000,1.09015478515625,-5.256170749664307,-14.462774276733398,10.611102104187012
1772593850904418000,1.11041796875,-4.2096052169799805,-13.202226638793945,7.283161640167236
1772593850924682000,1.130681884765625,-2.6126725673675537,-13.148656845092773,4.86142635345459
1772593850944946000,1.15094580078125,-0.5814917087554932,-12.098499298095703,4.045302867889404
1772593850965209000,1.171208984375,0.6829460263252258,-10.686220169067383,3.9722797870635986
1772593850985473000,1.19147314453125,0.7433996200561523,-9.088089942932129,3.1429882049560547
1772593851005737000,1.211737060546875,1.6098014116287231,-8.01339340209961,2.305915594100952
1772593851026000000,1.231999755859375,2.5908255577087402,-7.999626636505127,2.251148223876953
1772593851046264000,1.25226416015625,3.9228994846343994,-8.059481620788574,1.2970588207244873
1772593851066528000,1.272528076171875,4.677372455596924,-9.449016571044922,1.2336124181747437
1772593851086791000,1.292791015625,2.083853244781494,-10.40699577331543,0.41629183292388916
1772593851107055000,1.31305517578125,0.6973112225532532,-10.480019569396973,0.40551790595054626
1772593851127319000,1.333319091796875,-0.2555810213088989,-10.550049781799316,0.3893570601940155
1772593851147582000,1.35358203125,0.9301473498344421,-10.57848072052002,0.3878606855869293
1772593851167846000,1.373845947265625,1.0244190692901611,-10.480019569396973,0.4067150056362152
1772593851188110000,1.394110107421875,1.8360533714294434,-9.551667213439941,0.4875193238258362
1772593851208373000,1.414373046875,1.813009262084961,-9.512163162231445,1.4209587574005127
1772593851228637000,1.434636962890625,1.7295114994049072,-9.466374397277832,1.4945803880691528
1772593851248901000,1.454901123046875,0.8352771401405334,-9.44991397857666,2.2358851432800293
1772593851269164000,1.4751640625,0.8131307363510132,-9.462483406066895,2.297236442565918
1772593851289428000,1.495427978515625,0.8011597394943237,-9.507674217224121,2.349609613418579
1772593851309692000,1.51569189453125,0.7194576263427734,-9.46487808227539,2.3511061668395996
1772593851329955000,1.535955078125,0.6772598028182983,-8.72536849975586,2.401085138320923
1772593851350219000,1.556218994140625,0.735319197177887,-8.639476776123047,2.4624364376068115
1772593851370483000,1.57648291015625,1.6849194765090942,-7.505223751068115,3.308786630630493
1772593851390746000,1.59674609375,1.6663644313812256,-7.481281757354736,4.145859718322754
1772593851411010000,1.617010009765625,1.6717513799667358,-7.5097126960754395,4.224568843841553
1772593851431274000,1.63727392578125,1.6304513216018677,-8.766369819641113,4.201824188232422
1772593851451537000,1.657536865234375,-0.11581950634717941,-12.425607681274414,2.0108301639556885
1772593851471801000,1.677801025390625,-0.09696517139673233,-14.852729797363281,1.0438719987869263
1772593851492065000,1.69806494140625,-0.9406219720840454,-14.937424659729004,0.27563247084617615
1772593851512328000,1.718327880859375,-0.9684545993804932,-14.893730163574219,-0.7068880796432495
1772593851532592000,1.738592041015625,-0.9882067441940308,-14.099154472351074,-1.5523405075073242
1772593851552856000,1.75885595703125,-1.0121487379074097,-14.080599784851074,-2.2981343269348145
1772593851573119000,1.779118896484375,-1.0363900661468506,-14.067431449890137,-2.3412299156188965
1772593851593383000,1.7993828125,-1.0504560470581055,-13.994707107543945,-2.3948001861572266
1772593851613647000,1.819647216796875,-1.0696096420288086,-12.88978385925293,-2.4145524501800537
1772593851633910000,1.839909912109375,-1.026813268661499,-11.950058937072754,-2.4573488235473633
1772593851654174000,1.860174072265625,-0.9852139949798584,-11.095029830932617,-2.4980502128601074
1772593851674438000,1.88043798828125,-0.945111095905304,-10.21336555480957,-2.4926631450653076
1772593851694701000,1.900701171875,-0.9247604012489319,-10.120590209960938,-2.418442964553833
1772593851714965000,1.920965087890625,-0.17507599294185638,-9.206005096435547,-1.5702970027923584
1772593851735229000,1.94122900390625,-0.13407529890537262,-9.187150001525879,-0.7772177457809448
1772593851755492000,1.9614921875,-0.12270283699035645,-9.173683166503906,0.19632454216480255
1772593851775756000,1.981756103515625,-0.10624270141124725,-9.121010780334473,0.23253683745861053
1772593851796020000,2.00202001953125,-0.09397241473197937,-8.355165481567383,0.29239189624786377
1772593851816283000,2.022282958984375,-0.12749123573303223,-8.347084999084473,1.0755951404571533
1772593851836547000,2.042547119140625,-1.0456676483154297,-8.36384391784668,1.8510172367095947
1772593851856811000,2.06281103515625,-1.0740987062454224,-8.379706382751465,2.561197280883789
1772593851877074000,2.083073974609375,-1.0764929056167603,-8.360552787780762,2.5465328693389893
1772593851897338000,2.103338134765625,-1.0516531467437744,-8.323741912841797,2.518700122833252
1772593851917602000,2.12360205078125,-1.0106524229049683,-8.266280174255371,2.477998733520508
1772593851937865000,2.143864990234375,-0.9570821523666382,-7.302913665771484,2.4187421798706055
1772593851958129000,2.16412890625,-0.9020155072212219,-7.301417350769043,2.3442227840423584
1772593851978393000,2.18439306640625,-0.8325836658477783,-7.315483093261719,1.6095020771026611
1772593851998656000,2.204656005859375,-0.8146271109580994,-8.387785911560059,1.6720505952835083
1772593852018920000,2.224919921875,-0.8918401598930359,-10.692205429077148,4.244320869445801
1772593852039184000,2.245183837890625,-1.7414824962615967,-13.500005722045898,6.539163589477539
1772593852059448000,2.265447998046875,-0.1646013706922531,-14.234426498413086,6.640318393707275
1772593852079711000,2.2857109375,-0.16340427100658417,-11.66694450378418,6.61428165435791
1772593852099975000,2.305974853515625,-0.21667525172233582,-9.112930297851562,4.767154693603516
1772593852120239000,2.326239013671875,-0.27234044671058655,-7.119458198547363,3.250727415084839
1772593852140502000,2.346501953125,-0.3354875147342682,-7.028777599334717,2.139219284057617
1772593852160766000,2.366765869140625,-0.3405751883983612,-7.143998622894287,2.06589674949646
1772593852181030000,2.38702978515625,0.7876923680305481,-8.939949035644531,1.3329718112945557
1772593852201293000,2.40729296875,1.6861165761947632,-9.911097526550293,1.335964560508728
1772593852221557000,2.427556884765625,1.7088614702224731,-9.916184425354004,1.3503297567367554
1772593852241821000,2.447821044921875,1.6873136758804321,-9.866804122924805,1.3452420234680176
1772593852262084000,2.468083984375,1.63613760471344,-9.870695114135742,1.3195043802261353
1772593852282348000,2.48834814453125,1.5741876363754272,-9.926959037780762,1.3072341680526733
1772593852302612000,2.508612060546875,1.5708955526351929,-10.795754432678223,1.2877812385559082
1772593852322875000,2.528875,1.622071623802185,-10.76193618774414,1.2210428714752197
1772593852343139000,2.54913916015625,2.6081833839416504,-10.698190689086914,0.4578910768032074
1772593852363403000,2.569403076171875,2.6895864009857178,-9.9772367477417,0.4067150056362152
1772593852383666000,2.589666015625,3.6780924797058105,-9.981127738952637,0.4043208062648773
1772593852403930000,2.60993017578125,3.686472177505493,-10.023026466369629,0.4572925269603729
1772593852424194000,2.630194091796875,2.781463861465454,-10.070012092590332,1.3835493326187134
1772593852444457000,2.65045703125,1.9665374755859375,-10.115801811218262,2.161365509033203
1772593852464721000,2.670720947265625,1.9330185651779175,-10.15710163116455,2.199972152709961
1772593852484985000,2.690985107421875,1.9611504077911377,-10.171466827392578,2.219125747680664
1772593852505248000,2.711248046875,2.0045454502105713,-10.140341758728027,2.2631192207336426
1772593852525512000,2.731511962890625,2.0183119773864746,-10.116399765014648,3.0142998695373535
1772593852545776000,2.751776123046875,2.029085874557495,-10.099041938781738,3.048417329788208
1772593852566039000,2.7720390625,2.0048446655273438,-10.082283020019531,3.0768485069274902
1772593852586303000,2.792302978515625,1.9803041219711304,-10.093056678771973,3.1337108612060547
1772593852606567000,2.81256689453125,1.9057846069335938,-10.13974380493164,3.866037130355835
1772593852626830000,2.832830078125,1.8489222526550293,-10.207978248596191,3.9148190021514893
1772593852647094000,2.853093994140625,1.0546458959579468,-10.244789123535156,4.7480010986328125
1772593852667358000,2.87335791015625,1.07110595703125,-11.10490608215332,4.803067684173584
1772593852687621000,2.89362109375,1.0190321207046509,-11.170746803283691,5.58178186416626
1772593852707885000,2.913885009765625,0.9795277714729309,-11.232097625732422,5.599738597869873
1772593852728149000,2.93414892578125,0.17477671802043915,-11.261127471923828,5.629067420959473
1772593852748412000,2.954411865234375,-0.679354727268219,-11.247061729431152,5.567416667938232
1772593852768676000,2.974676025390625,-0.7071873545646667,-11.32726764678955,4.558260917663574
1772593852788940000,2.99493994140625,-0.6458359360694885,-12.480673789978027,3.246537446975708
1772593852809203000,3.015202880859375,0.114023856818676,-12.562376022338867,1.7070658206939697
1772593852829467000,3.035466796875,0.19961656630039215,-12.60427474975586,0.5518634915351868
1772593852849731000,3.05573095703125,1.014243721961975,-12.496834754943848,-0.22176292538642883
1772593852869994000,3.075993896484375,0.015263035893440247,-11.001357078552246,-0.16819266974925995
1772593852890258000,3.0962578125,-0.04249707981944084,-10.137349128723145,0.6293757557868958
1772593852910522000,3.116522216796875,-0.06434416770935059,-10.116100311279297,0.7173627018928528
1772593852930785000,3.136784912109375,-0.05596446618437767,-10.127174377441406,0.7891887426376343
1772593852951049000,3.157049072265625,-0.029029695317149162,-10.071807861328125,0.7972691655158997
1772593852971313000,3.17731298828125,-0.009876081719994545,-9.171587944030762,0.7320271730422974
1772593852991576000,3.197576171875,-0.011971008032560349,-8.010400772094727,-0.021847089752554893
1772593853011840000,3.217840087890625,-0.03531447425484657,-7.016208171844482,-0.008678981103003025
1772593853032104000,3.23810400390625,-0.07511807978153229,-6.259939670562744,-0.021847089752554893
1772593853052367000,3.2583671875,-0.10923545062541962,-5.443816184997559,-0.06673837453126907
1772593853072631000,3.278631103515625,-0.11312603205442429,-5.386055946350098,-0.9053075313568115
1772593853092895000,3.29889501953125,-0.11761515587568283,-5.309142112731934,-0.9199720025062561
1772593853113158000,3.319157958984375,-0.16519992053508759,-5.288193225860596,-0.8750807046890259
1772593853133422000,3.339422119140625,-1.625662922859192,-6.9491705894470215,1.3739725351333618
1772593853153686000,3.35968603515625,-3.906738519668579,-11.165958404541016,5.4240641593933105
1772593853173949000,3.379948974609375,-5.889736175537109,-15.260642051696777,9.23323917388916
1772593853194213000,3.400213134765625,-5.884947776794434,-15.61408519744873,10.22383975982666
1772593853214477000,3.42047705078125,-3.779845952987671,-13.116634368896484,8.698433876037598
1772593853234740000,3.440739990234375,-2.094327926635742,-11.127351760864258,6.12017822265625
1772593853255004000,3.46100390625,-2.091035842895508,-11.03786849975586,3.210923671722412
1772593853275268000,3.48126806640625,-2.083254814147949,-10.981305122375488,1.27191960811615
1772593853295531000,3.501531005859375,-0.9891045689582825,-10.216058731079102,0.4043208062648773
1772593853315795000,3.521794921875,-0.12270283699035645,-10.162487983703613,0.3926490843296051
1772593853336059000,3.542058837890625,-0.07242459803819656,-10.131363868713379,0.4255693554878235
1772593853356323000,3.562322998046875,1.2850877046585083,-10.101436614990234,0.37140053510665894
1772593853376586000,3.5825859375,2.2607250213623047,-10.121787071228027,-0.5937620401382446
1772593853396850000,3.602849853515625,2.316988706588745,-10.20528507232666,-1.5269020795822144
1772593853417114000,3.623114013671875,2.38462495803833,-11.03128433227539,-1.4769232273101807
1772593853437377000,3.643376953125,2.4438812732696533,-10.121787071228027,-1.4062942266464233
1772593853457641000,3.663640869140625,2.4013843536376953,-10.059537887573242,-0.6093243360519409
1772593853477905000,3.68390478515625,1.5825673341751099,-10.023324966430664,0.436343252658844
1772593853498168000,3.70416796875,1.5233107805252075,-10.020033836364746,0.4908113479614258
1772593853518432000,3.724431884765625,1.488594889640808,-9.97873306274414,1.5092449188232422
1772593853538696000,3.744696044921875,1.470638394355774,-9.90122127532959,1.5577274560928345
1772593853558959000,3.764958984375,1.4308347702026367,-9.15273380279541,1.6157869100570679
1772593853579223000,3.78522314453125,1.370381236076355,-9.173084259033203,1.6540940999984741
1772593853599487000,3.805487060546875,0.6242880821228027,-9.998785018920898,1.6355390548706055
1772593853619750000,3.82575,0.5997475385665894,-10.05115795135498,1.6268600225448608
1772593853640014000,3.84601416015625,0.6027402877807617,-10.062829971313477,1.6789339780807495
1772593853660278000,3.866278076171875,0.634762704372406,-10.11550235748291,2.4513633251190186
1772593853680541000,3.886541015625,0.6356605291366577,-10.160991668701172,3.35667085647583
1772593853700805000,3.90680517578125,0.7032967209815979,-10.228029251098633,3.4123358726501465
1772593853721069000,3.927069091796875,1.5487492084503174,-10.2869873046875,3.4868555068969727
1772593853741332000,3.94733203125,1.5753847360610962,-11.025598526000977,4.596268653869629
1772593853761596000,3.967595947265625,1.545756459236145,-11.856985092163086,5.551555156707764
1772593853781860000,3.987860107421875,0.3585317134857178,-11.873744010925293,5.614702224731445
1772593853802123000,4.008123046875,-0.6072294116020203,-11.88930606842041,5.632957935333252
1772593853822387000,4.028386962890625,-1.3655928373336792,-11.94676685333252,5.656002044677734
1772593853842651000,4.04865087890625,-1.2943652868270874,-12.02038860321045,5.614702224731445
1772593853862914000,4.0689140625,-0.2801215946674347,-12.085331916809082,4.590881824493408
1772593853883178000,4.089177978515625,0.4638765752315521,-12.889484405517578,3.5760395526885986
1772593853903442000,4.10944189453125,0.48303020000457764,-12.90714168548584,2.265812635421753
1772593853923705000,4.129705078125,0.5276222229003906,-12.826336860656738,1.5400702953338623
1772593853943969000,4.149968994140625,0.5611410140991211,-11.496058464050293,1.5391724109649658
1772593853964233000,4.17023291015625,0.5288193225860596,-10.580276489257812,1.6038159132003784
1772593853984496000,4.19049609375,0.5443816184997559,-9.77791976928711,2.4346039295196533
1772593854004760000,4.210760009765625,0.5452794432640076,-9.71926212310791,2.484882116317749
1772593854025024000,4.23102392578125,0.5761047601699829,-9.644442558288574,2.478597402572632
1772593854045287000,4.251286865234375,0.6326677799224854,-8.639476776123047,2.387617588043213
1772593854065551000,4.271551025390625,0.669179379940033,-8.553285598754883,1.173158884048462
1772593854085815000,4.29181494140625,0.6440402865409851,-7.316380977630615,0.4207809567451477
1772593854106078000,4.312077880859375,0.5823895931243896,-6.54185676574707,0.35434186458587646
1772593854126342000,4.332341796875,-0.21877017617225647,-5.743690013885498,-0.5722141861915588
1772593854146606000,4.352606201171875,-0.2555810213088989,-4.91499662399292,-0.6479308605194092
1772593854166869000,4.372868896484375,-0.3064578175544739,-4.8919525146484375,-1.4191631078720093
1772593854187133000,4.3931328125,-0.36810851097106934,-4.920383930206299,-1.3979145288467407
1772593854207397000,4.413397216796875,-2.454056739807129,-6.910563945770264,0.20111294090747833
1772593854227660000,4.433659912109375,-5.3779754638671875,-11.132140159606934,4.005499362945557
1772593854247924000,4.453924072265625,-7.2248029708862305,-15.161282539367676,7.341220855712891
1772593854268188000,4.47418798828125,-7.219715118408203,-16.38681411743164,8.277952194213867
1772593854288451000,4.494451171875,-5.771522521972656,-15.645809173583984,7.26221227645874
1772593854308715000,4.514715087890625,-4.1099467277526855,-15.5712890625,5.181950092315674
1772593854328979000,4.53497900390625,-1.7408839464187622,-13.619416236877441,3.5556888580322266
1772593854349242000,4.5552421875,0.13946224749088287,-11.382633209228516,2.425924777984619
1772593854369506000,4.575506103515625,1.0067617893218994,-9.420286178588867,1.63613760471344
1772593854389770000,4.59577001953125,1.0414776802062988,-8.436568260192871,1.5577274560928345
1772593854410033000,4.616032958984375,1.8417396545410156,-8.490138053894043,0.6631938815116882
1772593854430297000,4.636297119140625,3.0223803520202637,-9.528024673461914,-0.3998316824436188
1772593854450561000,4.65656103515625,4.538508415222168,-10.346841812133789,-1.1893197298049927
1772593854470824000,4.676823974609375,4.591480255126953,-10.37228012084961,-1.1803414821624756
1772593854491088000,4.697087890625,1.3251906633377075,-10.372879028320312,-1.183334231376648
1772593854511352000,4.71735205078125,-1.3542203903198242,-10.333673477172852,-1.2410943508148193
1772593854531615000,4.737614990234375,-1.3386579751968384,-10.291176795959473,-1.2617442607879639
1772593854551879000,4.75787890625,0.30795419216156006,-10.268132209777832,-0.3106476664543152
1772593854572143000,4.77814306640625,0.3570353388786316,-10.22383975982666,1.2485761642456055
1772593854592406000,4.798406005859375,0.3363853394985199,-10.1568021774292,2.5195980072021484
1772593854612670000,4.818669921875,0.29209262132644653,-9.44063663482666,2.5878326892852783
1772593854632934000,4.838933837890625,-0.4701613485813141,-9.420584678649902,2.63631534576416
1772593854653198000,4.859197998046875,-0.4800374507904053,-9.408913612365723,2.6396074295043945
1772593854673461000,4.8794609375,-0.48153382539749146,-9.411906242370605,2.580350875854492
1772593854693725000,4.899724853515625,-0.4626794755458832,-9.443928718566895,1.7884687185287476
1772593854713989000,4.919989013671875,-0.4504092037677765,-9.501988410949707,1.7426795959472656
1772593854734252000,4.940251953125,-0.4288613796234131,-10.389937400817871,1.7175405025482178
1772593854754516000,4.960515869140625,-0.411503404378891,-10.425551414489746,1.7414824962615967
1772593854774780000,4.98077978515625,-0.4007295072078705,-10.443806648254395,2.8227639198303223
1772593854795043000,5.00104296875,0.5404910445213318,-10.405200958251953,3.6706104278564453
1772593854815307000,5.02130712890625,0.5171475410461426,-10.324396133422852,4.566939830780029
1772593854835571000,5.041571044921875,0.47494974732398987,-10.348637580871582,5.335179328918457
1772593854855834000,5.061834228515625,0.39624038338661194,-11.134235382080078,6.332962989807129
1772593854876098000,5.08209814453125,-0.42048168182373047,-12.257115364074707,7.5127058029174805
1772593854896362000,5.102362060546875,-0.4629787504673004,-13.069048881530762,7.477989673614502
1772593854916625000,5.122625,-0.4474164545536041,-13.091196060180664,6.290764808654785
1772593854936889000,5.14288916015625,0.5135562419891357,-13.134291648864746,4.677970886230469
1772593854957153000,5.163153076171875,1.357512354850769,-13.150751113891602,3.0283658504486084
1772593854977416000,5.183416015625,1.3886369466781616,-13.108553886413574,2.0039467811584473
1772593854997680000,5.20368017578125,1.368884801864624,-12.291831970214844,1.9653403759002686
1772593855017944000,5.223944091796875,1.326986312866211,-12.222399711608887,2.013523578643799
1772593855038207000,5.24420703125,1.2886791229248047,-11.449670791625977,2.0853497982025146
1772593855058471000,5.264470947265625,1.3239935636520386,-11.432312965393066,2.123058319091797
1772593855078735000,5.284735107421875,1.3946224451065063,-11.4541597366333,2.1577742099761963
1772593855098998000,5.304998046875,2.152686595916748,-11.48378849029541,2.1227591037750244
1772593855119262000,5.325261962890625,2.182314872741699,-11.391910552978516,1.1348515748977661
1772593855139526000,5.34552587890625,2.213439464569092,-10.054450035095215,0.15442600846290588
1772593855159789000,5.3657890625,2.17842435836792,-8.931270599365234,-0.904708981513977
1772593855180053000,5.386052978515625,2.153883695602417,-7.73895788192749,-0.9759364724159241
1772593855200317000,5.40631689453125,2.126948833465576,-6.978499412536621,-1.7732056379318237
1772593855220580000,5.426580078125,2.1284453868865967,-6.93271017074585,-1.7860745191574097
1772593855240844000,5.446843994140625,2.2038626670837402,-6.860884189605713,-1.8258780241012573
1772593855261108000,5.46710791015625,2.2310967445373535,-6.821380138397217,-2.62015438079834
1772593855281371000,5.487370849609375,2.199373483657837,-6.8809356689453125,-2.6764183044433594
1772593855301635000,5.507635009765625,0.8310872912406921,-8.654740333557129,-2.6889877319335938
1772593855321899000,5.52789892578125,-1.9674352407455444,-12.25651741027832,-2.6500821113586426
1772593855342162000,5.548161865234375,-1.9461866617202759,-13.384784698486328,-5.228637218475342
1772593855362426000,5.568426025390625,-3.0678701400756836,-14.20988655090332,-6.349722385406494
1772593855382690000,5.58868994140625,-3.9369654655456543,-15.56201171875,-4.049792289733887
1772593855402953000,5.608952880859375,-2.5357589721679688,-15.584157943725586,-0.7682394981384277
1772593855423217000,5.629216796875,-1.6487071514129639,-13.58440113067627,1.3640964031219482
1772593855443481000,5.649481201171875,-1.5819687843322754,-10.861295700073242,2.36188006401062
1772593855463744000,5.669743896484375,-0.11133038252592087,-8.595483779907227,2.4322097301483154
1772593855484008000,5.690008056640625,0.8532336354255676,-7.8185648918151855,3.1872811317443848
1772593855504272000,5.71027197265625,0.8520365357398987,-7.788038730621338,3.211522340774536
1772593855524535000,5.73053515625,0.7873930931091309,-7.851784706115723,3.212719440460205
1772593855544799000,5.750799072265625,0.03411737456917763,-8.740033149719238,3.171419382095337
1772593855565063000,5.77106298828125,0.010773907415568829,-8.794501304626465,2.3050177097320557
1772593855585326000,5.791326171875,-0.004788403399288654,-8.814253807067871,2.299630641937256
1772593855605590000,5.811590087890625,0.026635494083166122,-8.811859130859375,2.2945430278778076
1772593855625854000,5.83185400390625,0.10235211998224258,-8.832210540771484,2.3035213947296143
1772593855646117000,5.8521171875,0.9768342971801758,-9.798869132995605,2.3166894912719727
1772593855666381000,5.872381103515625,1.0426748991012573,-9.781211853027344,2.3196821212768555
1772593855686645000,5.89264501953125,1.8285715579986572,-9.76864242553711,2.3166894912719727
1772593855706908000,5.912907958984375,1.0962450504302979,-9.796773910522461,2.321178436279297
1772593855727172000,5.933172119140625,1.1243770122528076,-9.800065994262695,3.283946990966797
1772593855747436000,5.95343603515625,1.1968015432357788,-9.791985511779785,3.3668460845947266
1772593855767699000,5.973698974609375,2.0608091354370117,-9.834781646728516,4.057573318481445
1772593855787963000,5.993962890625,2.8850131034851074,-9.844059944152832,3.045424461364746
1772593855808227000,6.01422705078125,3.7726633548736572,-9.781511306762695,3.0313587188720703
1772593855828490000,6.034489990234375,3.792714834213257,-8.915109634399414,3.0843303203582764
1772593855848754000,6.05475390625,3.755903959274292,-8.916007041931152,3.8265328407287598
1772593855869018000,6.07501806640625,2.9107506275177,-8.979154586791992,4.697124481201172
1772593855889281000,6.095281005859375,2.8482022285461426,-9.726144790649414,4.719270706176758
1772593855909545000,6.115544921875,1.9249382019042969,-10.53029727935791,4.763862609863281
1772593855929809000,6.135808837890625,1.12736976146698,-10.53718090057373,4.840776443481445
1772593855950073000,6.156072998046875,0.08948329091072083,-10.565911293029785,4.853645324707031
1772593855970336000,6.1763359375,0.017058687284588814,-10.646716117858887,4.802170276641846
1772593855990600000,6.196599853515625,-0.795174241065979,-11.962329864501953,3.931279182434082
1772593856010864000,6.216864013671875,-0.8634089827537537,-12.811971664428711,3.202843427658081
1772593856031127000,6.237126953125,-0.938826322555542,-12.762591361999512,3.1408934593200684
1772593856051391000,6.257390869140625,-0.9088988304138184,-11.784260749816895,3.0672717094421387
1772593856071655000,6.277655029296875,0.08619125932455063,-10.70058536529541,3.0056209564208984
1772593856091918000,6.29791796875,1.2410943508148193,-9.347561836242676,2.9532477855682373
1772593856112182000,6.31818212890625,1.2788029909133911,-8.104970932006836,2.9071593284606934
1772593856132446000,6.338446044921875,0.13766659796237946,-8.055291175842285,2.8942906856536865
1772593856152709000,6.358709228515625,-0.7448959946632385,-8.002320289611816,2.9140427112579346
1772593856172973000,6.37897314453125,-0.7876923680305481,-8.019378662109375,2.988861560821533
1772593856193237000,6.399237060546875,-0.7682394981384277,-8.065766334533691,3.838503837585449
1772593856213500000,6.4195,0.1900397539138794,-8.940547943115234,3.8570590019226074
1772593856233764000,6.43976416015625,0.23672668635845184,-8.974366188049316,3.785532236099243
1772593856254028000,6.460028076171875,0.19393034279346466,-9.908403396606445,2.792536973953247
1772593856274291000,6.480291015625,0.1116296574473381,-9.938929557800293,2.7311856746673584
1772593856294555000,6.500554931640625,-0.6820482015609741,-9.870994567871094,2.6797101497650146
1772593856314819000,6.520819091796875,-0.6796540021896362,-8.646659851074219,1.9117701053619385
1772593856335082000,6.54108203125,-0.6700772047042847,-7.4875664710998535,1.0324994325637817
1772593856355346000,6.561345947265625,-0.6886322498321533,-7.42561674118042,0.9938929677009583
1772593856375610000,6.581610107421875,-1.5837644338607788,-7.371747016906738,0.9277531504631042
1772593856395873000,6.601873046875,-1.635838270187378,-7.338527679443359,0.9193734526634216
1772593856416137000,6.622136962890625,-1.6828244924545288,-8.225279808044434,2.0078372955322266
1772593856436401000,6.64240087890625,-3.132812976837158,-9.471162796020508,4.327818870544434
1772593856456664000,6.6626640625,-3.2136173248291016,-11.280281066894531,7.527369976043701
1772593856476928000,6.682927978515625,-3.2196028232574463,-11.323077201843262,8.46978759765625
1772593856497192000,6.70319189453125,-2.146401882171631,-11.213842391967773,8.390180587768555
1772593856517455000,6.723455078125,-1.4838064908981323,-11.244368553161621,6.607996463775635
1772593856537719000,6.743718994140625,-1.5209165811538696,-11.225214958190918,4.76924991607666
1772593856557983000,6.76398291015625,-0.6147112846374512,-10.331279754638672,3.2321722507476807
1772593856578246000,6.784245849609375,0.7131728529930115,-10.31242561340332,2.4600422382354736
1772593856598510000,6.804510009765625,1.5670050382614136,-10.27082633972168,2.4082677364349365
1772593856618774000,6.82477392578125,1.5771803855895996,-9.402029991149902,1.6534955501556396
1772593856639037000,6.845036865234375,1.5732897520065308,-9.361927032470703,0.7796119451522827
1772593856659301000,6.865301025390625,1.5867571830749512,-9.342473983764648,-0.07721300423145294
1772593856679565000,6.88556494140625,1.6388310194015503,-9.331700325012207,-0.07003039866685867
1772593856699828000,6.905827880859375,1.6819267272949219,-9.35085391998291,-0.029029695317149162
1772593856720092000,6.926091796875,1.6151883602142334,-9.410110473632812,0.9166799783706665
1772593856740356000,6.946356201171875,0.6494272351264954,-9.465476036071777,0.9801263213157654
1772593856760619000,6.966618896484375,-0.11522095650434494,-9.49929428100586,1.7462708950042725
1772593856780883000,6.986883056640625,-0.07631517946720123,-9.499893188476562,2.55191969871521
1772593856801147000,7.00714697265625,0.7514800429344177,-9.466374397277832,2.5644893646240234
1772593856821410000,7.02741015625,0.7832032442092896,-9.401132583618164,2.5794529914855957
1772593856841674000,7.047674072265625,0.8373720645904541,-9.334992408752441,2.5731682777404785
1772593856861938000,7.06793798828125,1.6636708974838257,-9.267057418823242,2.555510997772217
1772593856882201000,7.088201171875,1.6729484796524048,-9.221567153930664,2.5172038078308105
1772593856902465000,7.108465087890625,1.614589810371399,-9.177274703979492,2.479794502258301
1772593856922729000,7.12872900390625,-0.10205284506082535,-9.193734169006348,2.4573488235473633
1772593856942992000,7.148991943359375,-0.11881226301193237,-9.267057418823242,2.454056739807129
1772593856963256000,7.169256103515625,-0.05686229094862938,-10.098443031311035,3.505410671234131
1772593856983520000,7.18952001953125,1.0351929664611816,-10.156203269958496,4.405331134796143
1772593857003783000,7.209782958984375,1.1025298833847046,-10.93461799621582,4.490025997161865
1772593857024047000,7.230047119140625,1.8579005002975464,-11.697770118713379,5.326500415802002
1772593857044311000,7.25031103515625,1.8061258792877197,-11.777976036071777,6.168960094451904
1772593857064574000,7.270573974609375,0.8502408862113953,-12.610559463500977,6.193500518798828
1772593857084838000,7.290837890625,0.010474632494151592,-12.657845497131348,6.197690486907959
1772593857105102000,7.31110205078125,-0.058957215398550034,-12.671012878417969,6.151003360748291
1772593857125365000,7.331364990234375,-0.0867898091673851,-12.669217109680176,4.9922099113464355
1772593857145629000,7.35162890625,-0.06883329898118973,-12.66891860961914,4.1518449783325195
1772593857165893000,7.37189306640625,-0.021847089752554893,-12.674604415893555,3.32045841217041
1772593857186156000,7.392156005859375,0.008379706181585789,-12.607866287231445,2.3912088871002197
1772593857206420000,7.412419921875,0.011372458189725876,-11.812392234802246,2.296039342880249
1772593857226684000,7.432683837890625,0.022445641458034515,-10.873566627502441,1.3694833517074585
1772593857246948000,7.452947998046875,0.08439560979604721,-10.808323860168457,1.324292778968811
1772593857267211000,7.4732109375,0.11372458189725876,-9.918878555297852,1.316511631011963
1772593857287475000,7.493474853515625,0.12868833541870117,-9.011475563049316,1.2758102416992188
1772593857307739000,7.51373876953125,0.14395137131214142,-8.142979621887207,1.2075754404067993
1772593857328002000,7.534001953125,0.14275427162647247,-6.975207328796387,1.1507132053375244
1772593857348266000,7.554265869140625,0.07481880486011505,-6.08396577835083,0.22744916379451752
1772593857368530000,7.574530029296875,-0.6784569025039673,-6.045359134674072,0.142155721783638
1772593857388793000,7.59479296875,-0.6814496517181396,-6.033687591552734,-0.7422025203704834
1772593857409057000,7.61505712890625,-0.6811503767967224,-5.987299919128418,-0.7538742423057556
1772593857429321000,7.635321044921875,-0.6485294103622437,-5.088277339935303,-0.7999626398086548
1772593857449584000,7.655584228515625,-0.5868787169456482,-5.131671905517578,-0.7745242714881897
1772593857469848000,7.67584814453125,-0.6428431272506714,-6.0091471672058105,-0.7164648771286011
1772593857490112000,7.696112060546875,-2.111985206604004,-7.528267860412598,1.1779472827911377
1772593857510375000,7.716375,-3.8836944103240967,-10.318410873413086,5.932831764221191
1772593857530639000,7.73663916015625,-5.6727614402771,-13.473369598388672,10.174459457397461
1772593857550903000,7.756903076171875,-5.690418720245361,-13.523947715759277,10.13974380493164
1772593857571166000,7.777166015625,-4.928464412689209,-13.497910499572754,6.156989097595215
1772593857591430000,7.797429931640625,-4.958691120147705,-12.378621101379395,1.9653403759002686
1772593857611694000,7.817694091796875,-2.261622667312622,-11.493664741516113,0.6051344871520996
1772593857631957000,7.83795703125,0.33010056614875793,-11.451766014099121,-0.44592007994651794
1772593857652221000,7.858220947265625,1.279700756072998,-11.519103050231934,-0.5267243981361389
1772593857672485000,7.878485107421875,1.3248913288116455,-11.521198272705078,-1.5424644947052002
1772593857692748000,7.898748046875,1.3590087890625,-10.325892448425293,-1.6301521062850952
1772593857713012000,7.919011962890625,1.4000093936920166,-10.288483619689941,-2.2939445972442627
1772593857733276000,7.93927587890625,1.404199242591858,-10.310629844665527,-0.1586158573627472
1772593857753539000,7.9595390625,1.3596073389053345,-10.344148635864258,1.0426748991012573
1772593857773803000,7.979802978515625,1.30543851852417,-11.537059783935547,1.1264718770980835
1772593857794067000,8.00006689453125,1.247079849243164,-11.626243591308594,1.953070044517517
1772593857814330000,8.020330078125,1.1746551990509033,-11.600805282592773,0.9020155072212219
1772593857834594000,8.040593994140625,0.461183100938797,-10.036792755126953,-0.8373720645904541
1772593857854858000,8.06085791015625,2.8476035594940186,-9.241917610168457,-0.8768763542175293
1772593857875121000,8.081120849609375,4.16920280456543,-9.272743225097656,0.26485857367515564
1772593857895385000,8.101385009765625,4.23085355758667,-10.210970878601074,1.9623476266860962
1772593857915649000,8.12164892578125,4.215590476989746,-11.133636474609375,3.397372245788574
1772593857935912000,8.141911865234375,1.4176666736602783,-11.198578834533691,4.292205333709717
1772593857956176000,8.16217578125,0.21218612790107727,-12.228983879089355,4.343081951141357
1772593857976440000,8.182440185546875,0.08738835901021957,-13.67807388305664,4.41849946975708
1772593857996703000,8.202702880859375,0.12659341096878052,-15.247174263000488,5.184943199157715
1772593858016967000,8.222966796875,0.1505354344844818,-16.44876480102539,5.1891326904296875
1772593858037231000,8.243231201171875,0.9361328482627869,-17.63479232788086,5.229535102844238
1772593858057494000,8.263493896484375,1.0190321207046509,-17.72457504272461,5.276222229003906
1772593858077758000,8.283758056640625,1.8171991109848022,-18.642751693725586,5.328595161437988
1772593858098022000,8.30402197265625,1.8887258768081665,-18.626291275024414,5.365406036376953
1772593858118285000,8.32428515625,2.6734254360198975,-17.21550750732422,5.360318183898926
1772593858138549000,8.344549072265625,1.832162857055664,-15.892112731933594,5.309741020202637
1772593858158813000,8.36481298828125,0.9992799162864685,-14.057555198669434,5.322310447692871
1772593858179076000,8.385076171875,0.9558850526809692,-11.286267280578613,6.110002517700195
1772593858199340000,8.405340087890625,0.9062053561210632,-9.080010414123535,6.14561653137207
1772593858219604000,8.42560400390625,0.8720879554748535,-8.078335762023926,6.141127586364746
1772593858239867000,8.445866943359375,0.922366201877594,-8.052897453308105,5.078700542449951
1772593858260131000,8.466131103515625,2.06589674949646,-7.061697959899902,3.6161422729492188
1772593858280395000,8.48639501953125,2.1227591037750244,-6.089352607727051,2.3885154724121094
1772593858300658000,8.506657958984375,2.097919225692749,-5.99418306350708,1.5050550699234009
1772593858320922000,8.526922119140625,3.1145570278167725,-4.670788288116455,0.17328034341335297
1772593858341186000,8.54718603515625,3.1367034912109375,-3.8588545322418213,-0.9403226971626282
1772593858361449000,8.567448974609375,3.1803977489471436,-3.7852327823638916,-1.6879122257232666
1772593858381713000,8.587712890625,4.15723180770874,-2.516305923461914,-1.7028759717941284
1772593858401977000,8.60797705078125,4.210203647613525,-1.5616180896759033,-1.6543933153152466
1772593858422240000,8.628239990234375,4.2835259437561035,-1.4867992401123047,-0.8388684391975403
1772593858442504000,8.64850390625,5.211279392242432,-0.5677250623703003,0.009277531877160072
1772593858462768000,8.66876806640625,5.276222229003906,-0.5246294736862183,0.09846154600381851
1772593858483031000,8.689031005859375,5.298069000244141,-0.45908817648887634,0.9340379238128662
1772593858503295000,8.709294921875,5.289689540863037,-0.39234980940818787,0.9412205219268799
1772593858523559000,8.729558837890625,5.345055103302002,-0.33039984107017517,0.9184756278991699
1772593858543823000,8.749822998046875,5.420772075653076,0.39384618401527405,0.8254010081291199
1772593858564086000,8.7700859375,6.456563472747803,0.4917091727256775,-0.47135844826698303
1772593858584350000,8.790349853515625,6.489782810211182,1.900996208190918,-1.2360066175460815
1772593858604614000,8.81061376953125,6.543951988220215,2.627037763595581,-1.1929110288619995
1772593858624877000,8.830876953125,7.32505989074707,2.688389301300049,-0.43754035234451294
1772593858645141000,8.85114111328125,8.104073524475098,2.741959571838379,-0.39474400877952576
1772593858665405000,8.871405029296875,8.897452354431152,2.7473464012145996,-0.3875614106655121
1772593858685668000,8.891668212890625,9.898228645324707,2.765302896499634,-0.37499183416366577
1772593858705932000,8.91193212890625,10.95496940612793,2.7252001762390137,-0.31693243980407715
1772593858726196000,8.932196044921875,10.963348388671875,2.663250207901001,0.5847837924957275
1772593858746459000,8.952458984375,10.908581733703613,2.589329242706299,0.5850830674171448
1772593858766723000,8.97272314453125,10.930129051208496,2.564788579940796,0.5563526153564453
1772593858786987000,8.992987060546875,10.908881187438965,2.516904592514038,0.5312135219573975
1772593858807250000,9.01325,10.829872131347656,2.4881742000579834,-0.36990416049957275
1772593858827514000,9.03351416015625,9.283217430114746,2.531569004058838,-0.3878606855869293
1772593858847778000,9.053778076171875,9.223960876464844,1.7348984479904175,-0.4180874824523926
1772593858868041000,9.074041015625,9.221866607666016,1.6980875730514526,-0.44921210408210754
1772593858888305000,9.094304931640625,9.980828285217285,1.6615760326385498,-0.40851065516471863
1772593858908569000,9.114569091796875,10.774506568908691,1.6397289037704468,0.7763199210166931
1772593858928832000,9.13483203125,10.79036808013916,1.6292542219161987,0.83348149061203
1772593858949096000,9.155095947265625,10.784083366394043,1.61069917678833,0.8975263833999634
1772593858969360000,9.17535986328125,10.745476722717285,1.5711948871612549,0.9510966539382935
1772593858989623000,9.195623046875,10.69370174407959,1.5188217163085938,0.9810241460800171
1772593859009887000,9.215886962890625,9.812335968017578,1.4873977899551392,0.9603741765022278
1772593859030151000,9.23615087890625,9.796175956726074,1.4440028667449951,0.9543886780738831
1772593859050414000,9.2564140625,9.800065994262695,1.3925275802612305,1.0034698247909546
1772593859070678000,9.276677978515625,9.812335968017578,1.347037672996521,1.0618284940719604
1772593859090942000,9.29694189453125,9.822511672973633,1.3365631103515625,1.1013327836990356
1772593859111205000,9.317205078125,9.840168952941895,1.3311761617660522,1.1650784015655518
1772593859131469000,9.337468994140625,9.877578735351562,1.3284826278686523,1.2291233539581299
1772593859151733000,9.35773291015625,9.94401741027832,1.3338695764541626,1.269824743270874
1772593859171996000,9.377995849609375,10.003273963928223,1.3766659498214722,1.214758038520813
1772593859192265000,9.398264892578124,10.005668640136719,1.4472949504852295,0.4776432514190674
1772593859212529000,9.41852880859375,9.996091842651367,2.141014814376831,0.4569932520389557
1772593859232792000,9.4387919921875,10.023624420166016,2.153883695602417,0.456095427274704
1772593859253056000,9.459055908203124,10.066421508789062,2.193387985229492,0.5048772692680359
1772593859273320000,9.47931982421875,10.13286018371582,2.219125747680664,1.5041571855545044
1772593859293583000,9.4995830078125,11.002853393554688,2.22660756111145,1.566406488418579
1772593859313847000,9.519846923828124,11.038467407226562,2.216731548309326,1.6364368200302124
1772593859334111000,9.540111083984375,11.057621002197266,2.183511972427368,1.6855180263519287
1772593859354374000,9.560373779296874,11.057321548461914,2.1383213996887207,1.7292121648788452
1772593859374638000,9.58063818359375,10.985196113586426,2.1245546340942383,1.765723705291748
1772593859394902000,9.600902099609375,10.223240852355957,2.1134815216064453,1.7791911363601685
1772593859415165000,9.6211650390625,9.208398818969727,2.122459888458252,1.7863737344741821
1772593859435429000,9.64142919921875,9.196727752685547,2.1571757793426514,1.834557056427002
1772593859455693000,9.661693115234375,9.195230484008789,2.2041618824005127,1.8941128253936768
1772593859475956000,9.6819560546875,9.174880027770996,2.2487540245056152,1.9390040636062622
1772593859496220000,9.702219970703124,9.10574722290039,2.278681516647339,1.9246388673782349
1772593859516484000,9.722484130859375,8.300697326660156,2.3235726356506348,1.8267759084701538
1772593859536747000,9.7427470703125,8.216002464294434,2.3529016971588135,0.5183446407318115
1772593859557011000,9.763010986328124,7.44297456741333,2.382230758666992,0.4629787504673004
1772593859577275000,9.78327490234375,7.513004779815674,2.419041633605957,0.4833294749259949
1772593859597538000,9.8035380859375,8.799589157104492,2.4705169200897217,0.5515642166137695
1772593859617802000,9.823802001953124,8.85675048828125,2.510021209716797,1.3491326570510864
1772593859638066000,9.84406591796875,8.898948669433594,2.488473415374756,1.3655928373336792
1772593859658329000,9.8643291015625,8.891167640686035,2.470217704772949,1.2910733222961426
1772593859678593000,9.884593017578124,8.912415504455566,2.4857800006866455,0.32381579279899597
1772593859698857000,9.90485693359375,8.936956405639648,2.5638906955718994,0.32022446393966675
1772593859719120000,9.925119873046874,8.90762710571289,3.3315317630767822,0.3555389642715454
1772593859739384000,9.945384033203124,8.91301441192627,3.3895909786224365,0.4058171808719635
1772593859759648000,9.96564794921875,8.875006675720215,3.438372850418091,0.4345476031303406
1772593859779911000,9.985910888671874,8.83699893951416,3.487154722213745,0.3917512595653534
1772593859800175000,10.006175048828124,8.799888610839844,3.5224692821502686,0.32531216740608215
1772593859820439000,10.02643896484375,8.808267593383789,3.555389642715454,0.26485857367515564
1772593859840703000,10.046702880859375,8.83819580078125,3.57753586769104,-0.573710560798645
1772593859860966000,10.0669658203125,8.872312545776367,3.6349966526031494,-0.6117185354232788
1772593859881230000,10.08722998046875,8.895956039428711,3.6861727237701416,-0.6200982332229614
1772593859901494000,10.107493896484375,8.925284385681152,3.702932119369507,-0.6605004072189331
1772593859921757000,10.1277568359375,8.917203903198242,3.754108190536499,-1.6376339197158813
1772593859942021000,10.148021240234375,8.853158950805664,3.793612480163574,-1.6825252771377563
1772593859962285000,10.16828515625,8.022071838378906,3.8277299404144287,-1.710058569908142
1772593859982548000,10.1885478515625,8.059781074523926,3.891774892807007,-1.6543933153152466
1772593860002812000,10.20881201171875,8.82323169708252,3.9297828674316406,-0.8969278335571289
1772593860023076000,10.229076171875,9.640253067016602,3.9851486682891846,-0.93254154920578
1772593860043339000,10.249339111328124,9.566930770874023,4.013879299163818,-1.6756418943405151
1772593860063603000,10.26960302734375,8.41112995147705,4.02465295791626,-1.7579425573349
1772593860083867000,10.289866943359375,8.341099739074707,4.093186855316162,-1.798943281173706
1772593860104130000,10.310130126953124,8.270171165466309,4.138078212738037,-1.8154034614562988
1772593860124394000,10.33039404296875,8.223184585571289,4.158429145812988,-1.8195933103561401
1772593860144658000,10.350657958984375,8.201936721801758,4.169502258300781,-1.8513164520263672
1772593860164921000,10.370921142578124,8.173206329345703,4.177882194519043,-1.9069817066192627
1772593860185185000,10.39118505859375,7.425317287445068,4.2311530113220215,-1.9617490768432617
1772593860205449000,10.411448974609375,7.3786301612854,4.290110111236572,-1.9731215238571167
1772593860225712000,10.431712158203124,7.319374084472656,4.344278812408447,-1.9482816457748413
1772593860245976000,10.45197607421875,7.272686958312988,4.401440620422363,-1.88782799243927
1772593860266240000,10.472239990234375,7.215226173400879,4.460397720336914,-1.8390462398529053
1772593860286503000,10.4925029296875,7.187692642211914,4.493617534637451,-1.8375498056411743
1772593860306767000,10.51276708984375,7.193678379058838,4.557662010192871,-1.8222867250442505
1772593860327031000,10.533031005859375,7.228992938995361,5.296572685241699,-1.7735048532485962
1772593860347294000,10.5532939453125,7.267599105834961,5.278017520904541,-1.0887632369995117
1772593860367558000,10.573557861328124,7.330147743225098,5.250783443450928,-1.136048674583435
1772593860387822000,10.593822021484375,8.1417818069458,5.234323501586914,-1.1797429323196411
1772593860408085000,10.6140849609375,9.242217063903809,5.220257759094238,-1.1225813627243042
1772593860428349000,10.634348876953124,9.322422981262207,5.20978307723999,-0.39803603291511536
1772593860448613000,10.654613037109375,9.996689796447754,5.175066947937012,-0.4118026793003082
1772593860468876000,10.6748759765625,9.94162368774414,5.128978729248047,-0.4231751561164856
1772593860489140000,10.695139892578124,9.952995300292969,5.093664169311523,-0.48243165016174316
1772593860509404000,10.71540380859375,10.955268859863281,5.068824291229248,-0.512658417224884
1772593860529667000,10.7356669921875,11.010035514831543,5.023932933807373,-0.45998600125312805
1772593860549931000,10.755930908203124,11.05402946472168,4.9565958976745605,-0.3851672112941742
