time,seconds_elapsed,z,y,x
1772593850012786000,0.218785888671875,0.0025275349617004395,0.003325703786686063,-0.00013302815204951912
1772593850033080000,0.239080078125,0.0017293660202994943,0.004389929119497538,-0.002128450432792306
1772593850053344000,0.259343994140625,-0.0025275349617004395,-0.0038578163366764784,0.0007981689414009452
1772593850073608000,0.27960791015625,0.8571003675460815,1.230643391609192,-1.4353737831115723
1772593850093871000,0.29987109375,2.0712482929229736,0.8026918768882751,-1.8336600065231323
1772593850114135000,0.320135009765625,8.834931373596191,-4.609957695007324,-2.53059458732605
1772593850134399000,0.34039892578125,19.603294372558594,-14.843680381774902,-2.8868439197540283
1772593850154662000,0.360661865234375,15.016350746154785,-14.824790000915527,-1.5924800634384155
1772593850174926000,0.380926025390625,5.181047439575195,-11.815693855285645,-0.5254611968994141
1772593850195190000,0.40118994140625,6.401580810546875,-13.883482933044434,0.8290314674377441
1772593850215453000,0.421452880859375,-3.2323179244995117,-14.143420219421387,-2.5804800987243652
1772593850235717000,0.441717041015625,-6.009812831878662,-10.775679588317871,-2.8594400882720947
1772593850255981000,0.46198095703125,-4.881202220916748,-6.226914882659912,-1.4175479412078857
1772593850276244000,0.482243896484375,-3.018674850463867,-3.092106342315674,-0.36755678057670593
1772593850296508000,0.5025078125,-1.049592137336731,-1.6410353183746338,-0.14752821624279022
1772593850316772000,0.522772216796875,0.7724944949150085,-0.9313300848007202,-0.2426433563232422
1772593850337035000,0.543034912109375,2.077101469039917,0.011307393200695515,-0.09285365045070648
1772593850357299000,0.563298828125,2.5087778568267822,1.040945291519165,0.18544124066829681
1772593850377563000,0.58356298828125,2.4298923015594482,1.468763828277588,-0.03485337644815445
1772593850397826000,0.603825927734375,2.48124098777771,1.5848973989486694,-0.7280630469322205
1772593850418090000,0.624090087890625,2.5380442142486572,1.5879570245742798,-1.2104231119155884
1772593850438354000,0.64435400390625,2.6609621047973633,1.5283604860305786,-0.1223858967423439
1772593850458617000,0.6646171875,2.914247751235962,1.3611440658569336,0.19195961952209473
1772593850489013000,0.695012939453125,2.9643993377685547,0.95554119348526,-1.0554453134536743
1772593850509277000,0.71527685546875,2.93300461769104,1.0236515998840332,-1.2186708450317383
1772593850529540000,0.7355400390625,2.7526185512542725,0.9632568359375,-1.004495620727539
1772593850549804000,0.755803955078125,2.508112668991089,0.7380402088165283,-0.6752508878707886
1772593850570068000,0.77606787109375,2.4998650550842285,0.5283878445625305,-0.493002325296402
1772593850590331000,0.796330810546875,2.3913140296936035,0.03166069835424423,-0.5085666179656982
1772593850610595000,0.816594970703125,2.276909828186035,-0.5502044558525085,-0.49965372681617737
1772593850630859000,0.83685888671875,2.0492987632751465,-0.9945184588432312,-0.29718488454818726
1772593850651122000,0.857121826171875,1.896848440170288,-1.4657042026519775,0.01223859004676342
1772593850671386000,0.87738623046875,1.9314357042312622,-0.47384628653526306,0.22707904875278473
1772593850691650000,0.897650146484375,1.7070173025131226,-1.1267484426498413,0.23013870418071747
1772593850711913000,0.917912841796875,1.2341021299362183,-1.0111470222473145,0.12504646182060242
1772593850732177000,0.938177001953125,1.080454707145691,-0.8219809532165527,-0.0063853515312075615
1772593850752441000,0.958441162109375,1.1333998441696167,-0.7215446829795837,-0.13316118717193604
1772593850772704000,0.9787041015625,1.4659702777862549,-0.8254396915435791,-0.20938630402088165
1772593850792968000,0.998968017578125,1.9138760566711426,-0.8024258017539978,-0.2041982114315033
1772593850813232000,1.019232177734375,1.9398164749145508,-0.4061349630355835,0.2991803288459778
1772593850833495000,1.0394951171875,0.6670031547546387,-0.008380773477256298,0.3579787611961365
1772593850853759000,1.059759033203125,-3.607989549636841,0.4384607970714569,-0.6457186341285706
1772593850874023000,1.08002294921875,-7.3105621337890625,1.0507893562316895,-2.9693214893341064
1772593850894286000,1.1002861328125,-6.025510311126709,0.5302501916885376,-2.6998064517974854
1772593850914550000,1.120550048828125,-3.3141303062438965,-0.10283076018095016,-1.732425570487976
1772593850934814000,1.14081396484375,-0.7719623446464539,0.36902010440826416,-1.055977463722229
1772593850955077000,1.1610771484375,1.1948589086532593,0.437529593706131,-0.035917602479457855
1772593850975341000,1.181341064453125,1.744265079498291,0.5964982509613037,1.2870473861694336
1772593850995605000,1.20160498046875,1.4925758838653564,0.6479801535606384,2.155189037322998
1772593851015868000,1.221867919921875,1.1315374374389648,0.5611127614974976,2.397034168243408
1772593851036132000,1.242132080078125,0.9589999318122864,0.7231410145759583,2.4735255241394043
1772593851056396000,1.26239599609375,1.0160690546035767,1.3917405605316162,2.8483986854553223
1772593851076659000,1.282658935546875,1.3691257238388062,2.331451416015625,3.4334566593170166
1772593851096923000,1.3029228515625,1.805591106414795,2.9312753677368164,3.50821852684021
1772593851117187000,1.32318701171875,2.2979283332824707,1.8940547704696655,1.493773102760315
1772593851137450000,1.343449951171875,2.4205801486968994,0.49712619185447693,-1.1235557794570923
1772593851157714000,1.3637138671875,1.9688166379928589,0.10775279998779297,-2.1525285243988037
1772593851177978000,1.38397802734375,1.0217891931533813,0.5568558573722839,-1.5230393409729004
1772593851198241000,1.404240966796875,0.6060762405395508,1.0843124389648438,-0.4110569953918457
1772593851218505000,1.4245048828125,0.16655124723911285,1.309529185295105,0.4243597984313965
1772593851238769000,1.444768798828125,-0.559516429901123,1.1581430435180664,0.6141909956932068
1772593851259032000,1.465031982421875,-0.993720293045044,0.893284022808075,0.24251031875610352
1772593851279296000,1.4852958984375,-1.3914744853973389,0.8576325178146362,-0.4763738214969635
1772593851299560000,1.505559814453125,-1.393602967262268,0.9717706441879272,-0.7602558732032776
1772593851319823000,1.525822998046875,-1.2149461507797241,1.2774693965911865,-0.8147974610328674
1772593851340087000,1.546087158203125,-1.0784592628479004,1.7026273012161255,-0.8582976460456848
1772593851360351000,1.56635107421875,-1.0630279779434204,2.0953264236450195,-0.8634857535362244
1772593851380614000,1.58661376953125,-1.281859278678894,2.0469040870666504,-0.6675352454185486
1772593851400878000,1.606878173828125,-1.8850089311599731,1.618287444114685,0.0823444277048111
1772593851421142000,1.62714208984375,-2.348212957382202,0.7839348912239075,0.2978500425815582
1772593851441406000,1.647406005859375,-2.2642722129821777,0.8084120750427246,0.414781779050827
1772593851461669000,1.667669189453125,-0.8501828908920288,0.4435158669948578,-0.5706907510757446
1772593851481933000,1.68793310546875,1.7507835626602173,0.7469530701637268,-2.120069742202759
1772593851502197000,1.708197021484375,3.3508460521698,1.2337031364440918,-2.3616487979888916
1772593851522460000,1.7284599609375,3.6509575843811035,1.537007212638855,-2.1730148792266846
1772593851542724000,1.74872412109375,3.4431676864624023,2.0445096492767334,-1.8989769220352173
1772593851562988000,1.768988037109375,3.1862902641296387,2.3744194507598877,-1.4065066576004028
1772593851583251000,1.7892509765625,2.8691511154174805,2.5450944900512695,-0.9609953761100769
1772593851603515000,1.809514892578125,2.3424928188323975,2.724017381668091,-0.6058102250099182
1772593851623779000,1.829779052734375,1.83698570728302,2.8914999961853027,-0.3396208584308624
1772593851644042000,1.8500419921875,1.491511583328247,2.948302984237671,-0.16442279517650604
1772593851664306000,1.870305908203125,1.2934327125549316,2.966660737991333,-0.028201967477798462
1772593851684570000,1.890570068359375,1.1663908958435059,2.9040045738220215,0.09072519838809967
1772593851704833000,1.9108330078125,1.0517206192016602,2.7735040187835693,0.1811843365430832
1772593851725097000,1.931096923828125,0.7738247513771057,2.8784632682800293,0.3106207251548767
1772593851745361000,1.95136083984375,0.10708766430616379,3.3697361946105957,0.755998969078064
1772593851765624000,1.9716240234375,-0.6312185525894165,3.690068006515503,1.0978813171386719
1772593851785888000,1.991887939453125,-1.3108594417572021,3.77374267578125,1.034559965133667
1772593851806152000,2.01215185546875,-1.6438288688659668,3.8893439769744873,0.8358159065246582
1772593851826415000,2.0324150390625,-1.6979713439941406,3.6324667930603027,0.5878514051437378
1772593851846679000,2.052678955078125,-2.151996374130249,3.238969564437866,0.2735058665275574
1772593851866943000,2.07294287109375,-2.7234854698181152,2.7580726146698,-0.47624078392982483
1772593851887206000,2.093205810546875,-2.9036054611206055,2.567842483520508,-1.1081244945526123
1772593851917602000,2.12360205078125,-2.116344928741455,2.4870944023132324,-1.1812900304794312
1772593851937865000,2.143864990234375,-1.5106676816940308,2.385061740875244,-1.0615646839141846
1772593851958129000,2.16412890625,-1.108257532119751,2.0544867515563965,-0.8861005306243896
1772593851978393000,2.18439306640625,-0.8770546317100525,1.6375765800476074,-0.7138290405273438
1772593851998656000,2.204656005859375,-0.2387855350971222,1.3612771034240723,-0.5472778081893921
1772593852018920000,2.224919921875,0.34374475479125977,1.349570631980896,-0.4121212065219879
1772593852039184000,2.245183837890625,-0.19555138051509857,1.4667683839797974,-0.3204648196697235
1772593852059448000,2.265447998046875,-1.5970029830932617,1.604718565940857,-0.5742825269699097
1772593852079711000,2.2857109375,-1.8827474117279053,1.931967854499817,-0.32352447509765625
1772593852099975000,2.305974853515625,-1.6217461824417114,2.0508949756622314,0.17054209113121033
1772593852120239000,2.326239013671875,-1.5401999950408936,1.8364536762237549,0.045362599194049835
1772593852140502000,2.346501953125,-0.986004650592804,1.7243108749389648,-0.3025060296058655
1772593852160766000,2.366765869140625,-0.08819766342639923,1.6798795461654663,-0.5760118961334229
1772593852181030000,2.38702978515625,0.8830408453941345,1.574255108833313,-0.6626132130622864
1772593852201293000,2.40729296875,1.7994718551635742,1.1250190734863281,-0.35545122623443604
1772593852221557000,2.427556884765625,2.5387091636657715,0.9397108554840088,0.39921748638153076
1772593852241821000,2.447821044921875,2.460488796234131,0.8846372365951538,1.4778097867965698
1772593852262084000,2.468083984375,1.9557799100875854,0.42941486835479736,1.0478627681732178
1772593852282348000,2.48834814453125,1.4545297622680664,0.1383492797613144,1.1729092597961426
1772593852302612000,2.508612060546875,1.028706669807434,0.3766027092933655,0.8084120750427246
1772593852322875000,2.528875,0.6860261559486389,1.1302071809768677,0.33296945691108704
1772593852343139000,2.54913916015625,0.5289199352264404,1.748255968093872,-0.011839505285024643
1772593852363403000,2.569403076171875,0.6638104915618896,2.32267165184021,0.0872664675116539
1772593852383666000,2.589666015625,0.6787096261978149,2.691558599472046,0.6956042051315308
1772593852403930000,2.60993017578125,0.47557565569877625,2.4466538429260254,1.368194580078125
1772593852424194000,2.630194091796875,0.23891855776309967,1.9156054258346558,1.6157599687576294
1772593852444457000,2.65045703125,-0.3342997431755066,1.3262907266616821,0.9611284136772156
1772593852464721000,2.670720947265625,-0.9994404911994934,0.9834771156311035,-0.15577596426010132
1772593852484985000,2.690985107421875,-1.4135571718215942,0.7795449495315552,-0.8327562212944031
1772593852505248000,2.711248046875,-1.413291096687317,0.9028620719909668,-0.9061877727508545
1772593852525512000,2.731511962890625,-1.2189369201660156,1.0342938899993896,-0.7863293886184692
1772593852545776000,2.751776123046875,-1.2023084163665771,1.084179401397705,-0.6461177468299866
1772593852566039000,2.7720390625,-1.4001213312149048,1.0006377696990967,-0.5412915349006653
1772593852586303000,2.792302978515625,-1.330946683883667,0.9814817309379578,-0.4884793758392334
1772593852606567000,2.81256689453125,-1.1529549360275269,0.9230823516845703,-0.45522233843803406
1772593852626830000,2.832830078125,-1.2283819913864136,0.6666040420532227,-0.4205019772052765
1772593852647094000,2.853093994140625,-1.2575150728225708,0.4342038929462433,-0.4121212065219879
1772593852667358000,2.87335791015625,-1.1985836029052734,0.18677152693271637,-0.5603145956993103
1772593852687621000,2.89362109375,-1.2589784860610962,0.01476612500846386,-0.3770017921924591
1772593852707885000,2.913885009765625,-1.3071346282958984,-0.03831210732460022,-0.23333138227462769
1772593852728149000,2.93414892578125,-1.2376939058303833,-0.10668858140707016,-0.6507737040519714
1772593852748412000,2.954411865234375,-0.9629908204078674,-0.13701899349689484,-0.7953753471374512
1772593852768676000,2.974676025390625,-0.6483792066574097,-0.32019877433776855,-1.1798267364501953
1772593852788940000,2.99493994140625,-0.0070504918694496155,-0.07329851388931274,-1.6486178636550903
1772593852809203000,3.015202880859375,1.1476339101791382,0.9665825366973877,-1.9431421756744385
1772593852829467000,3.035466796875,2.328657865524292,1.4535986185073853,-1.472754716873169
1772593852849731000,3.05573095703125,3.0573859214782715,1.823815941810608,-0.8674765825271606
1772593852869994000,3.075993896484375,3.1207075119018555,2.1703543663024902,-0.172404482960701
1772593852890258000,3.0962578125,2.712311029434204,1.6808106899261475,0.16774849593639374
1772593852910522000,3.116522216796875,1.7833753824234009,0.9044584035873413,-0.15777139365673065
1772593852930785000,3.136784912109375,0.919091522693634,0.4839564263820648,-0.32365748286247253
1772593852951049000,3.157049072265625,0.4912729561328888,0.41970381140708923,-0.3233914375305176
1772593852971313000,3.17731298828125,0.270712286233902,0.4433828294277191,-0.2651250958442688
1772593852991576000,3.197576171875,0.14021167159080505,0.44324979186058044,-0.18371187150478363
1772593853011840000,3.217840087890625,0.24769842624664307,0.2679187059402466,-0.10362893342971802
1772593853032104000,3.23810400390625,0.5765439867973328,-0.038445137441158295,-0.04017450287938118
1772593853052367000,3.2583671875,0.47278204560279846,-0.159101665019989,-0.015963377431035042
1772593853072631000,3.278631103515625,0.4754426181316376,-0.29226285219192505,-0.045362599194049835
1772593853092895000,3.29889501953125,0.7792789340019226,-0.4830252230167389,-0.08912885934114456
1772593853113158000,3.319157958984375,1.3918735980987549,-0.1938220113515854,-0.0751609057188034
1772593853133422000,3.339422119140625,1.5433926582336426,-0.45362600684165955,-0.10402801632881165
1772593853153686000,3.35968603515625,0.26592326164245605,-0.4614746570587158,-0.7727605104446411
1772593853173949000,3.379948974609375,-3.9156837463378906,-0.7372420430183411,-2.8146095275878906
1772593853194213000,3.400213134765625,-7.342222690582275,-0.6735215187072754,-1.9674863815307617
1772593853214477000,3.42047705078125,-6.645820617675781,-0.7464209794998169,-1.9915645122528076
1772593853234740000,3.440739990234375,-4.176551818847656,0.09205548465251923,-1.0881702899932861
1772593853255004000,3.46100390625,-2.0096561908721924,0.8815775513648987,-0.240913987159729
1772593853275268000,3.48126806640625,0.11134456098079681,1.305538296699524,0.14526674151420593
1772593853295531000,3.501531005859375,2.2967309951782227,1.508140206336975,-0.0740966796875
1772593853315795000,3.521794921875,3.4816126823425293,1.1663908958435059,-0.08593618869781494
1772593853336059000,3.542058837890625,3.5300350189208984,0.7417649626731873,0.7418980002403259
1772593853356323000,3.562322998046875,2.9765048027038574,0.12584462761878967,1.5771818161010742
1772593853376586000,3.5825859375,2.371891975402832,-0.14287222921848297,0.6631453633308411
1772593853396850000,3.602849853515625,2.1545238494873047,-0.37114855647087097,2.488025426864624
1772593853417114000,3.623114013671875,2.750756025314331,-0.11187667399644852,3.1103312969207764
1772593853437377000,3.643376953125,2.724416494369507,0.36582741141319275,2.755545139312744
1772593853457641000,3.663640869140625,2.0503628253936768,0.6446544528007507,2.162771701812744
1772593853477905000,3.68390478515625,1.0703445672988892,0.6163194179534912,1.6595262289047241
1772593853498168000,3.70416796875,0.1048261821269989,0.32738229632377625,0.8698710799217224
1772593853518432000,3.724431884765625,-0.6869573593139648,-0.03485337644815445,0.20007434487342834
1772593853538696000,3.744696044921875,-1.1151750087738037,-0.37021735310554504,-0.02540837787091732
1772593853558959000,3.764958984375,-1.5511082410812378,-0.5355713367462158,-0.06651407480239868
1772593853579223000,3.78522314453125,-1.574654221534729,-0.49380049109458923,-0.013701899908483028
1772593853599487000,3.805487060546875,-1.3755110502243042,-0.38711193203926086,-0.03605062887072563
1772593853619750000,3.82575,-1.0950877666473389,-0.17812469601631165,-0.4983234703540802
1772593853640014000,3.84601416015625,-0.7881917953491211,0.1794549822807312,-0.929999828338623
1772593853660278000,3.866278076171875,-0.6043468713760376,0.5974294543266296,-0.937715470790863
1772593853680541000,3.886541015625,-0.6845628619194031,0.7138290405273438,-0.7760862112045288
1772593853700805000,3.90680517578125,-1.1992487907409668,0.43234148621559143,-0.5616448521614075
1772593853721069000,3.927069091796875,-1.6354480981826782,0.21829919517040253,-0.33616214990615845
1772593853741332000,3.94733203125,-1.5749202966690063,0.2596709430217743,0.17094117403030396
1772593853761596000,3.967595947265625,-1.6623197793960571,0.04150478169322014,0.5587182641029358
1772593853781860000,3.987860107421875,-1.9134769439697266,-0.23306532204151154,0.45136451721191406
1772593853802123000,4.008123046875,-1.7413384914398193,-0.1146702691912651,-0.37341001629829407
1772593853822387000,4.028386962890625,-1.3348045349121094,0.0035917600616812706,-1.345978856086731
1772593853842651000,4.04865087890625,-0.9480916261672974,-0.14300526678562164,-1.6989024877548218
1772593853862914000,4.0689140625,-0.6288240551948547,-0.23426257073879242,-1.6664437055587769
1772593853883178000,4.089177978515625,-0.14074379205703735,0.13741807639598846,-1.064624309539795
1772593853903442000,4.10944189453125,0.941440224647522,1.1876753568649292,-0.5068372488021851
1772593853923705000,4.129705078125,1.934096336364746,2.221703052520752,-0.4203689694404602
1772593853943969000,4.149968994140625,2.3669698238372803,2.3785433769226074,-0.3511943221092224
1772593853964233000,4.17023291015625,2.0713813304901123,1.605516791343689,-0.06252323091030121
1772593853984496000,4.19049609375,1.4085021018981934,0.60820472240448,0.2135101854801178
1772593854004760000,4.210760009765625,0.5674980878829956,-0.20113857090473175,0.37833207845687866
1772593854025024000,4.23102392578125,-0.09285365045070648,-0.6302874088287354,0.4468415677547455
1772593854045287000,4.251286865234375,-0.29718488454818726,-0.6502416133880615,0.42662128806114197
1772593854065551000,4.271551025390625,-0.3216620683670044,-0.6091359257698059,0.4391259253025055
1772593854085815000,4.29181494140625,0.2635287642478943,-0.625498354434967,0.4890114963054657
1772593854106078000,4.312077880859375,1.068615198135376,-0.6974666118621826,0.5402273535728455
1772593854126342000,4.332341796875,1.3693917989730835,-0.8080130219459534,0.5885165333747864
1772593854146606000,4.352606201171875,1.765549659729004,-1.101473093032837,0.32698318362236023
1772593854166869000,4.372868896484375,2.114349365234375,-1.148698091506958,-0.37447425723075867
1772593854187133000,4.3931328125,2.3047127723693848,-0.9282704591751099,-0.73325115442276
1772593854207397000,4.413397216796875,2.8007748126983643,-0.7154253721237183,-0.8479214310646057
1772593854227660000,4.433659912109375,1.9805231094360352,-0.6685994863510132,-1.8629262447357178
1772593854247924000,4.453924072265625,-1.7988066673278809,-0.6598196625709534,-4.920711517333984
1772593854268188000,4.47418798828125,-6.125680446624756,-0.6119294762611389,-4.663834095001221
1772593854288451000,4.494451171875,-6.146698951721191,-0.2904004454612732,-2.122730255126953
1772593854308715000,4.514715087890625,-3.7736096382141113,-0.025275349617004395,-1.1388540267944336
1772593854328979000,4.53497900390625,-1.4081029891967773,0.6465167999267578,-0.1789228618144989
1772593854349242000,4.5552421875,0.3007766604423523,0.9672476649284363,0.43500205874443054
1772593854369506000,4.575506103515625,1.0229865312576294,0.8645499348640442,1.9108164310455322
1772593854389770000,4.59577001953125,1.1036015748977661,0.4396580457687378,2.7617974281311035
1772593854410033000,4.616032958984375,1.0573077201843262,-0.06491773575544357,3.0785374641418457
1772593854430297000,4.636297119140625,1.3397265672683716,-0.29665279388427734,3.1113953590393066
1772593854450561000,4.65656103515625,0.9733669757843018,-0.11267484724521637,3.412039041519165
1772593854470824000,4.676823974609375,-1.2499325275421143,-0.007981688715517521,4.009601593017578
1772593854491088000,4.697087890625,-0.9006006121635437,0.015298237092792988,4.343102931976318
1772593854511352000,4.71735205078125,1.5721267461776733,-0.029665278270840645,2.868220090866089
1772593854531615000,4.737614990234375,1.7804487943649292,-0.2277441918849945,-0.762783408164978
1772593854551879000,4.75787890625,1.4639748334884644,0.00864682998508215,-2.9576148986816406
1772593854572143000,4.77814306640625,0.8727977275848389,0.1492575854063034,-2.3813369274139404
1772593854592406000,4.798406005859375,-0.3267171382904053,-0.20659272372722626,-1.0006377696990967
1772593854612670000,4.818669921875,-1.8150360584259033,-0.7103703022003174,-0.3683549463748932
1772593854632934000,4.838933837890625,-2.720026731491089,-1.161335825920105,-0.13103273510932922
1772593854653198000,4.859197998046875,-2.651517152786255,-1.2281159162521362,-0.21829919517040253
1772593854673461000,4.8794609375,-2.1762075424194336,-1.0811197757720947,-0.6026175022125244
1772593854693725000,4.899724853515625,-1.6544711589813232,-0.9780229926109314,-0.6384021043777466
1772593854713989000,4.919989013671875,-0.9915918707847595,-0.6812371611595154,-0.5235987901687622
1772593854734252000,4.940251953125,-0.18810181319713593,-0.08912885934114456,-0.47876831889152527
1772593854754516000,4.960515869140625,0.22481757402420044,0.33177220821380615,-0.4226304292678833
1772593854774780000,4.98077978515625,0.32352447509765625,0.5357043743133545,-0.33616214990615845
1772593854795043000,5.00104296875,-0.26751962304115295,0.24011582136154175,-0.1717393398284912
1772593854815307000,5.02130712890625,-1.1467026472091675,-0.4236946702003479,0.29718488454818726
1772593854835571000,5.041571044921875,-1.675622582435608,-1.0185965299606323,1.0058258771896362
1772593854855834000,5.061834228515625,-2.230483055114746,-1.4001213312149048,1.006890058517456
1772593854876098000,5.08209814453125,-2.4982686042785645,-1.6370444297790527,0.6337460875511169
1772593854896362000,5.102362060546875,-2.4068784713745117,-1.9456697702407837,0.6104661822319031
1772593854916625000,5.122625,-1.841375708580017,-1.7962791919708252,0.3187354505062103
1772593854936889000,5.14288916015625,-0.671393096446991,-0.8246415257453918,-0.04083964228630066
1772593854957153000,5.163153076171875,0.6537003517150879,0.6506406664848328,-0.22734510898590088
1772593854977416000,5.183416015625,1.790159821510315,2.1049044132232666,-0.14500068128108978
1772593854997680000,5.20368017578125,2.4409334659576416,2.633425235748291,0.007981688715517521
1772593855017944000,5.223944091796875,2.346217632293701,2.1382944583892822,0.1811843365430832
1772593855038207000,5.24420703125,1.7958800792694092,1.2665610313415527,0.34707045555114746
1772593855058471000,5.264470947265625,1.264033555984497,0.26858383417129517,0.5020482540130615
1772593855078735000,5.284735107421875,0.866412341594696,-0.35585030913352966,0.5571218729019165
1772593855098998000,5.304998046875,0.6213744878768921,-0.5712229013442993,0.5355713367462158
1772593855119262000,5.325261962890625,0.48555275797843933,-0.6631453633308411,0.6695306897163391
1772593855139526000,5.34552587890625,0.6354754567146301,-0.8284993171691895,1.0248489379882812
1772593855159789000,5.3657890625,1.2213314771652222,-1.3043410778045654,1.2512627840042114
1772593855180053000,5.386052978515625,1.9472661018371582,-1.703824520111084,1.352364182472229
1772593855200317000,5.40631689453125,2.542167901992798,-1.9708120822906494,1.3703229427337646
1772593855220580000,5.426580078125,2.8007748126983643,-2.025087594985962,1.283721685409546
1772593855240844000,5.446843994140625,3.1082026958465576,-2.013381004333496,1.1412484645843506
1772593855261108000,5.46710791015625,3.1173818111419678,-2.3019192218780518,0.9398438930511475
1772593855281371000,5.487370849609375,3.331956148147583,-3.216221570968628,0.6467828750610352
1772593855301635000,5.507635009765625,3.3805112838745117,-4.467883586883545,0.02421112358570099
1772593855321899000,5.52789892578125,3.438511610031128,-5.547806262969971,-1.8752979040145874
1772593855342162000,5.548161865234375,2.380671739578247,-5.545012474060059,-4.75855016708374
1772593855362426000,5.568426025390625,1.5497779846191406,-3.323176383972168,-5.638132095336914
1772593855382690000,5.58868994140625,2.3724241256713867,-1.7614257335662842,-4.522425174713135
1772593855402953000,5.608952880859375,1.5630807876586914,-1.9097521305084229,-4.213932991027832
1772593855423217000,5.629216796875,-1.4398967027664185,-4.372369289398193,-3.9381654262542725
1772593855443481000,5.649481201171875,-3.8413209915161133,-5.566829204559326,-2.324267864227295
1772593855463744000,5.669743896484375,-4.518301010131836,-5.096042633056641,-1.0771290063858032
1772593855484008000,5.690008056640625,-4.39125919342041,-3.8969266414642334,-0.2881389856338501
1772593855504272000,5.71027197265625,-4.27286434173584,-2.727077007293701,0.8928849697113037
1772593855524535000,5.73053515625,-4.116290092468262,-2.195230484008789,1.9096190929412842
1772593855544799000,5.750799072265625,-3.568613290786743,-2.2334096431732178,2.2167811393737793
1772593855565063000,5.77106298828125,-2.744769811630249,-2.4809751510620117,1.9263806343078613
1772593855585326000,5.791326171875,-1.6933153867721558,-2.713109254837036,1.2752078771591187
1772593855605590000,5.811590087890625,-0.6309525370597839,-2.6588337421417236,0.9096465110778809
1772593855625854000,5.83185400390625,-0.15870258212089539,-2.4161903858184814,0.49646106362342834
1772593855646117000,5.8521171875,-0.030596474185585976,-2.1626386642456055,0.6929436326026917
1772593855666381000,5.872381103515625,0.08660132437944412,-1.7543752193450928,1.1460375785827637
1772593855686645000,5.89264501953125,0.09285365045070648,-1.7675451040267944,1.570663332939148
1772593855706908000,5.912907958984375,0.01223859004676342,-1.963362455368042,1.8999080657958984
1772593855727172000,5.933172119140625,0.3205978572368622,-2.2679970264434814,1.6929162740707397
1772593855747436000,5.95343603515625,0.13089969754219055,-2.41432785987854,1.1682531833648682
1772593855767699000,5.973698974609375,-0.4763738214969635,-2.298194408416748,0.9977111220359802
1772593855787963000,5.993962890625,-0.9307979941368103,-1.9710781574249268,1.343185305595398
1772593855808227000,6.01422705078125,-0.7312557697296143,-1.6339848041534424,1.9765323400497437
1772593855828490000,6.034489990234375,0.03352309390902519,-1.2157442569732666,2.3275935649871826
1772593855848754000,6.05475390625,0.21603772044181824,-0.9330594539642334,2.5691726207733154
1772593855869018000,6.07501806640625,-0.07928477972745895,-1.19379460811615,2.476851224899292
1772593855889281000,6.095281005859375,-0.4165111482143402,-1.623342514038086,1.916536569595337
1772593855909545000,6.115544921875,-0.5643054246902466,-2.0391886234283447,1.0534499883651733
1772593855929809000,6.135808837890625,-0.2870747447013855,-2.272918939590454,0.36024022102355957
1772593855950073000,6.156072998046875,0.13515660166740417,-2.879394292831421,-0.4117221236228943
1772593855970336000,6.1763359375,0.30410236120224,-3.419355630874634,-0.9399769306182861
1772593855990600000,6.196599853515625,0.38378623127937317,-3.495846748352051,-0.9716376066207886
1772593856010864000,6.216864013671875,0.9498209953308105,-3.24069881439209,-0.8778527975082397
1772593856031127000,6.237126953125,1.6260031461715698,-2.7508890628814697,-1.074601411819458
1772593856051391000,6.257390869140625,1.7357512712478638,-1.7765909433364868,-1.1842166185379028
1772593856071655000,6.277655029296875,1.2922354936599731,-0.5694935321807861,-1.1608036756515503
1772593856091918000,6.29791796875,0.7272648811340332,0.5458145141601562,-0.6979987025260925
1772593856112182000,6.31818212890625,0.19555138051509857,1.1089227199554443,0.26765263080596924
1772593856132446000,6.338446044921875,-0.2524874210357666,0.782338559627533,1.0326975584030151
1772593856152709000,6.358709228515625,-0.422497421503067,-0.2608681917190552,1.0643582344055176
1772593856172973000,6.37897314453125,-0.36808890104293823,-1.7839075326919556,0.26579025387763977
1772593856193237000,6.399237060546875,-0.40852946043014526,-2.4253692626953125,-0.31314826011657715
1772593856213500000,6.4195,-0.8358159065246582,-2.0608720779418945,-0.4342038929462433
1772593856233764000,6.43976416015625,-1.024582862854004,-1.3230979442596436,-0.15989984571933746
1772593856254028000,6.460028076171875,-0.5633742213249207,-0.6548975706100464,0.4726490378379822
1772593856274291000,6.480291015625,0.40586888790130615,-0.5616448521614075,0.7256685495376587
1772593856294555000,6.500554931640625,1.0667527914047241,-0.6662049889564514,0.5996909141540527
1772593856314819000,6.520819091796875,1.0539820194244385,-1.1538861989974976,0.19142751395702362
1772593856335082000,6.54108203125,0.9825459122657776,-1.636512279510498,-0.0751609057188034
1772593856355346000,6.561345947265625,0.9757614731788635,-1.6842694282531738,-0.1015004813671112
1772593856375610000,6.581610107421875,1.2125515937805176,-1.5590898990631104,-0.1081518903374672
1772593856395873000,6.601873046875,1.241019606590271,-1.4492087364196777,-0.007715632673352957
1772593856416137000,6.622136962890625,1.0561105012893677,-1.435506820678711,0.05307823419570923
1772593856436401000,6.64240087890625,0.4570847451686859,-1.1058629751205444,-0.9877340197563171
1772593856456664000,6.6626640625,-1.3125888109207153,-0.3194005787372589,-1.4692959785461426
1772593856476928000,6.682927978515625,-3.3425984382629395,0.7762192487716675,-1.7610266208648682
1772593856497192000,6.70319189453125,-4.107776165008545,1.352364182472229,-1.395066261291504
1772593856517455000,6.723455078125,-3.3854334354400635,1.3224328756332397,-0.5335758924484253
1772593856537719000,6.743718994140625,-1.956977128982544,1.015536904335022,0.3671576976776123
1772593856557983000,6.76398291015625,-0.3324373662471771,0.4737132489681244,0.7393704652786255
1772593856578246000,6.784245849609375,1.080055594444275,0.2326662391424179,0.7533383965492249
1772593856598510000,6.804510009765625,1.9890369176864624,0.6635444164276123,1.0303030014038086
1772593856618774000,6.82477392578125,2.367102861404419,1.2512627840042114,1.680145502090454
1772593856639037000,6.845036865234375,2.4054150581359863,1.1932625770568848,2.1998865604400635
1772593856659301000,6.865301025390625,2.516892671585083,0.6281589269638062,2.2222352027893066
1772593856679565000,6.88556494140625,2.6992743015289307,-0.020619364455342293,2.0083260536193848
1772593856699828000,6.905827880859375,2.838155508041382,-0.5440851449966431,1.7369486093521118
1772593856720092000,6.926091796875,2.50797963142395,-0.6313515901565552,1.408635139465332
1772593856740356000,6.946356201171875,1.7247099876403809,-0.6282919645309448,1.0168671607971191
1772593856760619000,6.966618896484375,0.6394663453102112,-0.6929436326026917,0.16987694799900055
1772593856780883000,6.986883056640625,-0.2586067318916321,-0.744159460067749,-0.8419351577758789
1772593856801147000,7.00714697265625,-0.9578027129173279,-0.48994266986846924,-1.2339690923690796
1772593856821410000,7.02741015625,-1.4171489477157593,-0.04802316427230835,-0.8839720487594604
1772593856841674000,7.047674072265625,-1.3644697666168213,0.24769842624664307,-0.17373476922512054
1772593856861938000,7.06793798828125,-1.0997437238693237,0.3122170865535736,0.15298236906528473
1772593856882201000,7.088201171875,-0.8548389077186584,0.5362364649772644,0.385249525308609
1772593856902465000,7.108465087890625,-0.6530352234840393,0.7880587577819824,0.7759532332420349
1772593856922729000,7.12872900390625,-0.4622728228569031,0.6458516716957092,0.7756871581077576
1772593856942992000,7.148991943359375,-0.30210694670677185,0.24450574815273285,-0.015431265346705914
1772593856963256000,7.169256103515625,-0.18331278860569,-0.032192811369895935,-1.0579729080200195
1772593856983520000,7.18952001953125,-0.26805171370506287,-0.0018623941577970982,-1.2712169885635376
1772593857003783000,7.209782958984375,-0.9326604008674622,0.30024453997612,-0.8320910930633545
1772593857024047000,7.230047119140625,-1.4581215381622314,0.6207093596458435,-0.04988555610179901
1772593857044311000,7.25031103515625,-1.5070759057998657,0.5708237886428833,0.41185516119003296
1772593857064574000,7.270573974609375,-1.4075708389282227,0.4912729561328888,0.6360076069831848
1772593857084838000,7.290837890625,-1.2307764291763306,0.10509224236011505,0.16828061640262604
1772593857105102000,7.31110205078125,-0.8567013144493103,-0.41850656270980835,-0.5027133822441101
1772593857125365000,7.331364990234375,-0.5104290246963501,-0.6407966017723083,-0.7323199510574341
1772593857145629000,7.35162890625,0.11081244796514511,-0.61592036485672,-0.6132597923278809
1772593857165893000,7.37189306640625,0.812269926071167,-0.47823619842529297,-0.4614746570587158
1772593857186156000,7.392156005859375,1.1957900524139404,-0.30170783400535583,-0.34108418226242065
1772593857206420000,7.412419921875,1.5376724004745483,-0.13103273510932922,-0.24823053181171417
1772593857226684000,7.432683837890625,1.7275035381317139,0.09844083338975906,-0.21776708960533142
1772593857246948000,7.452947998046875,1.7994718551635742,0.2804233431816101,-0.19834497570991516
1772593857267211000,7.4732109375,1.6874620914459229,0.18304674327373505,-0.09378484636545181
1772593857287475000,7.493474853515625,1.3129878044128418,-0.20938630402088165,0.07635816186666489
1772593857307739000,7.51373876953125,0.9350548982620239,-0.8739949464797974,0.27190953493118286
1772593857328002000,7.534001953125,0.5712229013442993,-1.441093921661377,0.42130014300346375
1772593857348266000,7.554265869140625,0.30822622776031494,-1.7985405921936035,0.5138877630233765
1772593857368530000,7.574530029296875,0.5684292912483215,-2.1897764205932617,0.5204061269760132
1772593857388793000,7.59479296875,1.040546178817749,-2.506516456604004,0.021816616877913475
1772593857409057000,7.61505712890625,1.6703014373779297,-2.7898664474487305,-0.4884793758392334
1772593857429321000,7.635321044921875,1.2748087644577026,-2.871412754058838,-0.5628421306610107
1772593857449584000,7.655584228515625,1.269620656967163,-2.498401641845703,-0.5750806927680969
1772593857469848000,7.67584814453125,1.3983919620513916,-2.03147292137146,-0.5472778081893921
1772593857490112000,7.696112060546875,1.0007708072662354,-1.453731656074524,-0.5663008689880371
1772593857510375000,7.716375,-1.0208580493927002,0.14752821624279022,-1.6538059711456299
1772593857530639000,7.73663916015625,-4.829853057861328,2.2963318824768066,-3.416828155517578
1772593857550903000,7.756903076171875,-7.251896858215332,2.937926769256592,-3.9966979026794434
1772593857571166000,7.777166015625,-5.901793956756592,2.0361289978027344,-2.890967845916748
1772593857591430000,7.797429931640625,-2.4606218338012695,0.8314259648323059,-1.5694661140441895
1772593857611694000,7.817694091796875,0.9957157373428345,0.4010798931121826,-0.4529608488082886
1772593857631957000,7.83795703125,3.07600998878479,-0.32685017585754395,0.39602482318878174
1772593857652221000,7.858220947265625,3.821366786956787,-0.07223428785800934,0.9040593504905701
1772593857672485000,7.878485107421875,3.416562080383301,0.26419392228126526,2.5488193035125732
1772593857692748000,7.898748046875,3.569810390472412,0.5917091965675354,3.417626142501831
1772593857713012000,7.919011962890625,3.333552360534668,0.4472406506538391,3.0482070446014404
1772593857733276000,7.93927587890625,2.9605414867401123,0.340951144695282,2.4574291706085205
1772593857753539000,7.9595390625,1.8621280193328857,0.8484535813331604,1.949527621269226
1772593857773803000,7.979802978515625,-0.03139464557170868,1.6721638441085815,1.5020208358764648
1772593857794067000,8.00006689453125,-1.3449146747589111,1.873701572418213,1.0350919961929321
1772593857814330000,8.020330078125,-1.9058942794799805,1.6539390087127686,0.5760118961334229
1772593857834594000,8.040593994140625,-1.6052507162094116,0.855903148651123,0.25554707646369934
1772593857854858000,8.06085791015625,-0.22694602608680725,-0.2870747447013855,-0.04642682522535324
1772593857875121000,8.081120849609375,1.0839133262634277,-0.48714908957481384,0.5307823419570923
1772593857895385000,8.101385009765625,1.0071561336517334,0.42941486835479736,2.03865647315979
1772593857915649000,8.12164892578125,-0.45908015966415405,1.4501398801803589,2.869417190551758
1772593857935912000,8.141911865234375,-2.3012540340423584,1.947798252105713,2.3677680492401123
1772593857956176000,8.16217578125,-3.3461902141571045,1.5294246673583984,0.7506778836250305
1772593857976440000,8.182440185546875,-3.2101023197174072,0.2503589689731598,-1.6797465085983276
1772593857996703000,8.202702880859375,-2.333845853805542,-0.5722870826721191,-2.6660172939300537
1772593858016967000,8.222966796875,-1.577314853668213,-0.8307608366012573,-2.350208282470703
1772593858037231000,8.243231201171875,-0.9351879358291626,-0.6938748359680176,-1.7698065042495728
1772593858057494000,8.263493896484375,-0.33789151906967163,-0.3750063478946686,-1.1347301006317139
1772593858077758000,8.283758056640625,0.004389929119497538,-0.1596337854862213,-0.3934972882270813
1772593858098022000,8.30402197265625,0.1892990618944168,-0.03166069835424423,0.0949821025133133
1772593858118285000,8.32428515625,0.1882348358631134,0.25541403889656067,0.322061151266098
1772593858138549000,8.344549072265625,0.04682590812444687,0.5905119776725769,0.4582819938659668
1772593858158813000,8.36481298828125,-0.21723496913909912,0.9037932753562927,0.3857816457748413
1772593858179076000,8.385076171875,-0.5402273535728455,1.2218636274337769,-0.1652209609746933
1772593858199340000,8.405340087890625,-1.1043996810913086,1.4335113763809204,-0.6358745694160461
1772593858219604000,8.42560400390625,-1.9460688829421997,1.5621496438980103,-0.7508108615875244
1772593858239867000,8.445866943359375,-2.519287109375,1.9725414514541626,-0.919623613357544
1772593858260131000,8.466131103515625,-2.50691556930542,2.4034197330474854,-1.1493632793426514
1772593858280395000,8.48639501953125,-1.7437330484390259,2.976637840270996,-1.1540192365646362
1772593858300658000,8.506657958984375,-0.7663751840591431,3.576727867126465,-0.6277598738670349
1772593858320922000,8.526922119140625,0.3412172198295593,3.5688793659210205,-0.05081675574183464
1772593858341186000,8.54718603515625,1.401850700378418,3.555044412612915,0.7308566570281982
1772593858361449000,8.567448974609375,2.3600523471832275,4.225772380828857,1.8307334184646606
1772593858381713000,8.587712890625,2.7464993000030518,5.287469863891602,2.4062132835388184
1772593858401977000,8.60797705078125,1.2053680419921875,9.016780853271484,3.1474461555480957
1772593858422240000,8.628239990234375,-4.734471797943115,16.13152503967285,4.3803510665893555
1772593858442504000,8.64850390625,-11.311516761779785,19.1480712890625,5.9079132080078125
1772593858462768000,8.66876806640625,-11.059295654296875,13.088240623474121,7.634618759155273
1772593858483031000,8.689031005859375,-6.60897159576416,4.780632495880127,7.725742816925049
1772593858503295000,8.709294921875,-3.21701979637146,0.00013302815204951912,6.25285530090332
1772593858523559000,8.729558837890625,-1.6317232847213745,-1.7630220651626587,4.732875823974609
1772593858543823000,8.749822998046875,-1.1746386289596558,-1.6684390306472778,3.505823850631714
1772593858564086000,8.7700859375,-1.1670559644699097,-0.9785550832748413,2.92063307762146
1772593858584350000,8.790349853515625,-2.2664005756378174,0.9049904942512512,3.0480740070343018
1772593858604614000,8.81061376953125,-3.1482441425323486,2.345818519592285,3.877105474472046
1772593858624877000,8.830876953125,-2.9906058311462402,2.6003012657165527,4.700815677642822
1772593858645141000,8.85114111328125,-0.8133341073989868,1.7231136560440063,4.173625469207764
1772593858665405000,8.871405029296875,-0.9842752814292908,0.39828628301620483,2.938724994659424
1772593858685668000,8.891668212890625,-1.275473952293396,-0.3045014441013336,1.7509164810180664
1772593858705932000,8.91193212890625,-1.4699610471725464,-0.5273236036300659,0.7172877788543701
1772593858726196000,8.932196044921875,-1.330547571182251,-0.5905119776725769,0.014234011992812157
1772593858746459000,8.952458984375,-0.6570260524749756,-0.874660074710846,-0.2810884714126587
1772593858766723000,8.97272314453125,0.3497309982776642,-0.8791830539703369,-0.3135473430156708
1772593858786987000,8.992987060546875,0.996912956237793,-0.5351722836494446,-0.2614003121852875
1772593858807250000,9.01325,1.0485278367996216,-0.28614354133605957,-0.2091202586889267
1772593858827514000,9.03351416015625,0.5983606576919556,0.014500068500638008,-0.13515660166740417
1772593858847778000,9.053778076171875,0.11906019598245621,0.4401901662349701,0.025009293109178543
1772593858868041000,9.074041015625,-0.29891425371170044,0.5025803446769714,0.019688166677951813
1772593858888305000,9.094304931640625,-0.46892422437667847,0.4177083969116211,-0.39815324544906616
1772593858908569000,9.114569091796875,-0.5234657526016235,0.31155192852020264,-0.5958331227302551
1772593858928832000,9.13483203125,-0.5007179379463196,-0.1169317439198494,-0.6857601404190063
1772593858949096000,9.155095947265625,-0.49193811416625977,-0.8718665242195129,-0.6961362957954407
1772593858969360000,9.17535986328125,-0.7609210014343262,-1.1073263883590698,-0.6090028882026672
1772593858989623000,9.195623046875,-1.1166383028030396,-1.0446701049804688,-0.5210712552070618
1772593859009887000,9.215886962890625,-1.3663321733474731,-0.9237474799156189,-0.4703875482082367
1772593859030151000,9.23615087890625,-1.510933756828308,-0.8014945983886719,-0.40533676743507385
1772593859050414000,9.2564140625,-1.5511082410812378,-0.7025216817855835,-0.3099555969238281
1772593859070678000,9.276677978515625,-1.6193517446517944,-0.6329479217529297,-0.29824912548065186
1772593859090942000,9.29694189453125,-1.550576090812683,-0.5798696875572205,-0.322061151266098
1772593859111205000,9.317205078125,-1.4361718893051147,-0.5335758924484253,-0.3271162211894989
1772593859131469000,9.337468994140625,-1.3157814741134644,-0.4939335286617279,-0.30277207493782043
1772593859151733000,9.35773291015625,-1.156546711921692,-0.4628049433231354,-0.26592326164245605
1772593859171996000,9.377995849609375,-1.0833812952041626,-0.44112133979797363,-0.24171215295791626
1772593859192265000,9.398264892578124,-1.0042295455932617,-0.32751530408859253,-0.2063266634941101
1772593859212529000,9.41852880859375,-1.130872368812561,0.10416104644536972,-0.11400512605905533
1772593859232792000,9.4387919921875,-1.3184419870376587,0.4142496585845947,0.26765263080596924
1772593859253056000,9.459055908203124,-1.380965232849121,0.3664925694465637,0.540493369102478
1772593859273320000,9.47931982421875,-1.487786889076233,0.19501927495002747,0.48262614011764526
1772593859293583000,9.4995830078125,-1.5420622825622559,-0.23226715624332428,0.3622356653213501
1772593859313847000,9.519846923828124,-1.5758514404296875,-0.8886280655860901,0.1745329350233078
1772593859334111000,9.540111083984375,-1.9689496755599976,-1.1149089336395264,-0.10642252117395401
1772593859354374000,9.560373779296874,-2.572631359100342,-1.1444412469863892,-0.3303089141845703
1772593859374638000,9.58063818359375,-2.8998806476593018,-1.101073980331421,-0.4653324782848358
1772593859394902000,9.600902099609375,-2.9457755088806152,-1.0264452695846558,-0.5214703679084778
1772593859415165000,9.6211650390625,-2.832834482192993,-0.9826789498329163,-0.4610755741596222
1772593859435429000,9.64142919921875,-2.6300995349884033,-0.9639219641685486,-0.33496490120887756
1772593859455693000,9.661693115234375,-2.4370758533477783,-0.9837431907653809,-0.19568441808223724
1772593859475956000,9.6819560546875,-2.3285248279571533,-0.9757614731788635,-0.14899152517318726
1772593859496220000,9.702219970703124,-2.1811296939849854,-0.9233484268188477,-0.1422071009874344
1772593859516484000,9.722484130859375,-1.936490774154663,-0.8266369104385376,-0.10961519926786423
1772593859536747000,9.7427470703125,-1.6464893817901611,-0.3989514410495758,0.007449576631188393
1772593859557011000,9.763010986328124,-1.3818964958190918,0.16508793830871582,0.2030009627342224
1772593859577275000,9.78327490234375,-1.206964373588562,0.7324529886245728,0.3804605007171631
1772593859597538000,9.8035380859375,-1.0134084224700928,0.7352465987205505,0.4598783254623413
1772593859617802000,9.823802001953124,-1.066353678703308,0.6032826900482178,0.20645968616008759
1772593859638066000,9.84406591796875,-1.3881487846374512,0.10416104644536972,-0.08872977644205093
1772593859658329000,9.8643291015625,-1.6426316499710083,0.5616448521614075,-0.2266799658536911
1772593859678593000,9.884593017578124,-1.9901010990142822,-0.3052996098995209,-0.33004283905029297
1772593859698857000,9.90485693359375,-2.493346691131592,-0.14792729914188385,-0.23173503577709198
1772593859719120000,9.925119873046874,-2.65510892868042,0.11028033494949341,-0.24330848455429077
1772593859739384000,9.945384033203124,-2.4642133712768555,0.061725061386823654,0.2233542650938034
1772593859759648000,9.96564794921875,-2.234873056411743,-0.11054639518260956,0.5935716032981873
1772593859779911000,9.985910888671874,-2.107964038848877,-0.3025060296058655,0.5838605761528015
1772593859800175000,10.006175048828124,-2.0349316596984863,-0.4252910017967224,0.4912729561328888
1772593859820439000,10.02643896484375,-1.9358257055282593,-0.45149755477905273,0.4050707221031189
1772593859840703000,10.046702880859375,-1.8206232786178589,-0.3678228259086609,0.3293777108192444
1772593859860966000,10.0669658203125,-1.7893617153167725,0.08407378941774368,0.27084532380104065
1772593859881230000,10.08722998046875,-1.7840405702590942,0.4099927544593811,0.23612496256828308
1772593859901494000,10.107493896484375,-1.627333402633667,0.3550521433353424,0.22787722945213318
1772593859921757000,10.1277568359375,-1.374979019165039,0.25341862440109253,0.21883131563663483
1772593859942021000,10.148021240234375,-1.238226056098938,0.418639600276947,0.2096523642539978
1772593859962285000,10.16828515625,-1.1968542337417603,0.900467574596405,0.22614786028862
1772593859982548000,10.1885478515625,-0.9649862051010132,1.009151577949524,0.32951071858406067
1772593860002812000,10.20881201171875,-0.8226460814476013,0.8167928457260132,0.5129565596580505
1772593860023076000,10.229076171875,-0.8710683584213257,0.23692314326763153,0.42302951216697693
1772593860043339000,10.249339111328124,-0.9802844524383545,-0.5652366280555725,0.19182659685611725
1772593860063603000,10.26960302734375,-1.343717336654663,-0.4166441857814789,0.05972963944077492
1772593860083867000,10.289866943359375,-1.6503472328186035,-0.23146899044513702,0.2562122344970703
1772593860104130000,10.310130126953124,-1.6543381214141846,-0.04017450287938118,0.5204061269760132
1772593860124394000,10.33039404296875,-1.5147916078567505,-0.03831210732460022,0.5984936356544495
1772593860144658000,10.350657958984375,-1.4065066576004028,-0.11945927888154984,0.597296416759491
1772593860164921000,10.370921142578124,-1.3180428743362427,-0.19781285524368286,0.5503374934196472
1772593860185185000,10.39118505859375,-1.0726059675216675,-0.14180800318717957,0.4617407023906708
1772593860205449000,10.411448974609375,-0.8262378573417664,-0.015963377431035042,0.48275917768478394
1772593860225712000,10.431712158203124,-0.766907274723053,0.04562865570187569,0.6856271028518677
1772593860245976000,10.45197607421875,-0.6551636457443237,0.04456442967057228,0.7465540170669556
1772593860266240000,10.472239990234375,-0.5866541266441345,-0.05148189514875412,0.7238062024116516
1772593860286503000,10.4925029296875,-0.656360924243927,-0.23945067822933197,0.7134299874305725
1772593860306767000,10.51276708984375,-0.6090028882026672,-0.3045014441013336,0.6628792881965637
1772593860327031000,10.533031005859375,-0.4153138995170593,-0.240913987159729,0.6047459840774536
1772593860347294000,10.5532939453125,-0.2590058147907257,-0.2973179221153259,0.8654811382293701
1772593860367558000,10.573557861328124,-0.19501927495002747,-0.790054202079773,1.048793911933899
1772593860387822000,10.593822021484375,-0.3128822147846222,-1.1991157531738281,0.8662793040275574
1772593860408085000,10.6140849609375,-0.4972592294216156,-1.216010332107544,0.3626347482204437
1772593860428349000,10.634348876953124,-0.6248332262039185,-1.230377435684204,-0.31634095311164856
1772593860448613000,10.654613037109375,-0.6357415318489075,-1.5485807657241821,-0.6470489501953125
1772593860468876000,10.6748759765625,-0.6979987025260925,-1.7279026508331299,-0.7643797397613525
1772593860489140000,10.695139892578124,-0.6529021859169006,-1.4241993427276611,-0.771430253982544
1772593860509404000,10.71540380859375,-0.5659017562866211,-1.0430737733840942,-0.6329479217529297
1772593860529667000,10.7356669921875,-0.6183148622512817,-0.8012285828590393,-0.6102001070976257
1772593860549931000,10.755930908203124,-0.8388755321502686,-0.7698339223861694,-0.7328521013259888
