time,seconds_elapsed,z,y,x
1772389333568730400,0.26273046875,0.31408798694610596,-0.12104500085115433,-0.13742800056934357
1772389333588789200,0.282789306640625,0.4296700060367584,-0.1944359987974167,-0.2819420099258423
1772389333608848100,0.30284814453125,0.12533600628376007,-0.16354900598526,-0.2719539999961853
1772389333628907000,0.322906982421875,-0.2581300139427185,-0.018038999289274216,0.3512359857559204
1772389333648966000,0.3429658203125,-0.15290400385856628,-0.24403099715709686,0.19458900392055511
1772389333669025000,0.36302490234375,0.06167599931359291,-0.2128250002861023,-0.06992799788713455
1772389333689084000,0.383083984375,-0.01385900005698204,-0.21026000380516052,0.004856999963521957
1772389333709143000,0.40314306640625,-0.3134869933128357,-0.16820800304412842,0.02308499999344349
1772389333729202000,0.423201904296875,-0.2187889963388443,0.020633000880479813,0.21606799960136414
1772389333749260800,0.4432607421875,0.27776798605918884,0.053307000547647476,0.07925400137901306
1772389333769319700,0.463319580078125,0.2910139858722687,-0.04375400021672249,-0.10379599779844284
1772389333789378800,0.48337890625,0.10801099985837936,0.03779599815607071,0.037762999534606934
1772389333809437700,0.503437744140625,0.2608090043067932,0.05903799831867218,-0.011389000341296196
1772389333829496600,0.52349658203125,0.13024699687957764,-0.00636899983510375,-0.2123109996318817
1772389333849555500,0.543555419921875,0.013797000050544739,-0.02269499935209751,-0.15064899623394012
1772389333869614300,0.5636142578125,-0.03856100142002106,-0.019756000488996506,-0.15171900391578674
1772389333889673500,0.583673583984375,-0.20284900069236755,-0.03900500014424324,-0.15577499568462372
1772389333909732000,0.603732177734375,-0.3214789927005768,0.01679600030183792,-0.09982000291347504
1772389333929791200,0.623791259765625,-0.18838299810886383,0.01343700010329485,-0.1446560025215149
1772389333949849900,0.643849853515625,-0.07230599969625473,-0.029249999672174454,-0.20372499525547028
1772389333969909000,0.663908935546875,0.04375400021672249,-0.05220000073313713,-0.0709799975156784
1772389333989968000,0.6839677734375,0.22460299730300903,-0.1281599998474121,-0.051183998584747314
1772389334010026500,0.704026611328125,0.3364819884300232,-0.039326999336481094,-0.021747000515460968
1772389334030085600,0.724085693359375,0.2331860065460205,0.02613699994981289,0.2178020030260086
1772389334050144500,0.74414453125,0.06414899975061417,0.03210999816656113,0.15904100239276886
1772389334070203400,0.764203369140625,-0.12547999620437622,0.044888000935316086,0.14243300259113312
1772389334090262000,0.784261962890625,-0.17078399658203125,0.03831100091338158,0.05874599888920784
1772389334110321200,0.804321044921875,-0.14622700214385986,0.011447999626398087,-0.08500199764966965
1772389334130380000,0.824380126953125,-0.1401820033788681,0.012357999570667744,-0.11760199815034866
1772389334150439000,0.84443896484375,-0.06414499878883362,-0.027712000533938408,-0.011680999770760536
1772389334170497800,0.864497802734375,0.09988299757242203,0.06582999974489212,0.01705400086939335
1772389334190556700,0.884556640625,0.25030601024627686,0.0142639996483922,-0.04155600070953369
1772389334210615600,0.904615478515625,0.27864500880241394,-0.04778800159692764,-0.1028439998626709
1772389334230674400,0.92467431640625,0.16611599922180176,0.028169000521302223,0.016124000772833824
1772389334250733300,0.9447333984375,0.14809200167655945,0.07453600317239761,0.006498999893665314
1772389334270792200,0.964792236328125,0.23287400603294373,-0.005169999785721302,-0.10199999809265137
1772389334290851000,0.98485107421875,-0.03370000049471855,0.060662999749183655,-0.008799999952316284
1772389334310910000,1.004909912109375,-0.260560005903244,0.09652899950742722,0.10255900025367737
1772389334330968800,1.02496875,-0.08044800162315369,0.05242300033569336,-0.03315199911594391
1772389334351027500,1.04502734375,-0.0219579990953207,-0.040460001677274704,-0.1281210035085678
1772389334371086600,1.065086669921875,0.12003300338983536,-0.13396799564361572,-0.1328970044851303
1772389334391145200,1.085145263671875,0.1536259949207306,-0.14397500455379486,-0.20951800048351288
1772389334411204000,1.1052041015625,-0.00749799981713295,-0.04397900030016899,0.00038499999209307134
1772389334431263000,1.125262939453125,-0.11879900097846985,0.04561600089073181,0.26830801367759705
1772389334451321900,1.14532177734375,-0.10223899781703949,0.042093001306056976,0.13864600658416748
1772389334471380700,1.165380615234375,-0.11859100311994553,0.010474000126123428,-0.10748200118541718
1772389334491439400,1.185439453125,-0.19247299432754517,-0.06441999971866608,-0.12038599699735641
1772389334511498200,1.205498291015625,-0.09077800065279007,0.01006300002336502,0.0964910015463829
1772389334531557000,1.22555712890625,0.08817700296640396,0.05204999819397926,-0.041207000613212585
1772389334551616000,1.245615966796875,-0.12305799871683121,-0.04075999930500984,-0.07536499947309494
1772389334571675000,1.2656748046875,-0.15764600038528442,-0.0382080003619194,0.016506999731063843
1772389334591733500,1.2857333984375,0.0386819988489151,0.04383299872279167,-0.11079400032758713
1772389334611792400,1.30579248046875,-0.059452999383211136,0.05826700106263161,0.018564000725746155
1772389334631851300,1.325851318359375,0.03483700007200241,-0.009386000223457813,0.031651001423597336
1772389334651910000,1.345909912109375,0.24866899847984314,0.004490999970585108,-0.09147799760103226
1772389334671968800,1.36596875,0.1165350005030632,-0.019605999812483788,0.05721699818968773
1772389334692028000,1.38602783203125,0.1604280024766922,-0.021284999325871468,0.043372999876737595
1772389334712086500,1.40608642578125,0.19474199414253235,-0.032228000462055206,-0.01489999983459711
1772389334732145400,1.4261455078125,-0.04100500047206879,-0.044982001185417175,0.026479000225663185
1772389334752204000,1.4462041015625,-0.10160399973392487,-0.03598500043153763,0.030782999470829964
1772389334772263000,1.466262939453125,0.03871599957346916,0.008810999803245068,-0.0017729999963194132
1772389334792321800,1.48632177734375,0.0677729994058609,0.02624800056219101,-0.007818000391125679
1772389334812380400,1.50638037109375,-0.018580999225378036,0.00419900007545948,-0.06545399874448776
1772389334832439300,1.526439208984375,-0.08366499841213226,0.054558999836444855,-0.07716300338506699
1772389334852498000,1.546497802734375,-0.10373199731111526,0.08844699710607529,-0.0025309999473392963
1772389334872556800,1.566556884765625,-0.019785000011324883,0.03795799985527992,-0.013224000111222267
1772389334892615700,1.58661572265625,0.13537099957466125,-0.017633000388741493,-0.12977899610996246
1772389334912674300,1.60667431640625,0.018696999177336693,0.003493000054731965,-0.07262299954891205
1772389334932733000,1.62673291015625,-0.07704199850559235,0.012393999844789505,0.0723000019788742
1772389334952792000,1.6467919921875,0.10076600313186646,-0.003684000112116337,-0.005359000060707331
1772389334972850700,1.6668505859375,0.22621199488639832,0.0010519999777898192,-0.09868700057268143
1772389334992909300,1.686909423828125,0.1793700009584427,0.02724199928343296,-0.13255000114440918
1772389335012968000,1.706968017578125,-0.007703000213950872,0.031394001096487045,-0.06923899799585342
1772389335033026800,1.72702685546875,-0.13816200196743011,0.04271500185132027,0.0974079966545105
1772389335053085400,1.74708544921875,-0.06652999669313431,0.03577199950814247,0.043526001274585724
1772389335073144300,1.767144287109375,-0.05162400007247925,-0.05378200113773346,-0.1259779930114746
1772389335093203200,1.787203125,0.024299999698996544,-0.09662500023841858,-0.05518300086259842
1772389335113261800,1.80726171875,0.23703999817371368,-0.08290000259876251,-0.03454599902033806
1772389335133320700,1.82732080078125,0.2208320051431656,-0.059119999408721924,-0.040437001734972
1772389335153379300,1.84737939453125,0.019065000116825104,-0.008895999751985073,0.1132500022649765
1772389335173438200,1.867438232421875,-0.031947001814842224,-0.0031169999856501818,0.023399999365210533
1772389335193496800,1.887496826171875,-0.1887570023536682,-0.019293000921607018,-0.027679000049829483
1772389335213555700,1.9075556640625,-0.24860599637031555,0.02616499923169613,0.06265600025653839
1772389335233614300,1.9276142578125,0.005913999862968922,0.057732000946998596,0.0061240000650286674
1772389335253673000,1.9476728515625,0.1623309999704361,-0.009813999757170677,-0.048700001090765
1772389335273731800,1.96773193359375,0.11626499891281128,-0.08224999904632568,-0.029360000044107437
1772389335293790500,1.98779052734375,0.2002120018005371,-0.004999999888241291,-0.01788800023496151
1772389335313849300,2.007849365234375,0.11616899818181992,-0.01119999960064888,-0.07750999927520752
1772389335333908000,2.027907958984375,-0.04546400159597397,0.007840000092983246,-0.045207999646663666
1772389335353966800,2.047966796875,-0.16997100412845612,0.12947100400924683,-0.036166001111269
1772389335374025500,2.068025390625,-0.10397599637508392,0.08997700363397598,-0.015332999639213085
1772389335394084000,2.088083984375,0.04161800071597099,-0.020016999915242195,0.006932999938726425
1772389335414142700,2.108142822265625,0.16769400238990784,-0.02161400020122528,-0.068852998316288
1772389335434201600,2.12820166015625,0.17575499415397644,-0.03889000043272972,0.032917000353336334
1772389335454260500,2.148260498046875,0.1198040023446083,-0.0023129999171942472,0.11033300310373306
1772389335474318800,2.16831884765625,0.06304299831390381,0.019749000668525696,-0.014932000078260899
1772389335494377700,2.188377685546875,-0.041565001010894775,-0.015399999916553497,-0.07754600048065186
1772389335514436400,2.208436279296875,-0.025251999497413635,-0.023520000278949738,-0.05003700032830238
1772389335534495200,2.2284951171875,-0.03540100157260895,0.019582999870181084,-0.024829000234603882
1772389335554553600,2.2485537109375,-0.11472100019454956,0.014065999537706375,0.09293600171804428
1772389335574612500,2.268612548828125,-0.05177700147032738,0.05845300108194351,0.07994899898767471
1772389335594671000,2.288671142578125,-0.03742099925875664,0.039563000202178955,-0.09843999892473221
1772389335614729700,2.308729736328125,-0.10833700001239777,-0.04114999994635582,-0.07315199822187424
1772389335634788400,2.328788330078125,-0.02506900019943714,0.009479999542236328,0.014276999980211258
1772389335654847200,2.34884716796875,0.16714400053024292,0.010784000158309937,-0.0381769984960556
1772389335674905600,2.368905517578125,0.09771499782800674,-0.05217200145125389,-0.09774199873209
1772389335694964500,2.388964599609375,-0.034627001732587814,-0.0033370000310242176,0.008205999620258808
1772389335715023000,2.409023193359375,0.0026970000471919775,0.08532900363206863,0.05616400018334389
1772389335735081700,2.429081787109375,0.017357999458909035,0.01066299993544817,0.06013200059533119
1772389335755140400,2.449140380859375,0.05948600172996521,-0.03546899929642677,-0.009494000114500523
1772389335775199200,2.46919921875,0.036389000713825226,-0.011575000360608101,-0.028395000845193863
1772389335795257600,2.489257568359375,0.027511000633239746,-0.01486000046133995,0.0020830000285059214
1772389335815316500,2.50931640625,0.0732090026140213,-0.01348700001835823,0.03446599841117859
1772389335835374800,2.529374755859375,-0.011831999756395817,-0.020390000194311142,-0.005226000212132931
1772389335855433500,2.54943359375,-0.17266599833965302,-0.03551200032234192,0.05181799829006195
1772389335875492400,2.569492431640625,-0.10933300107717514,0.0059899999760091305,0.027854999527335167
1772389335895551000,2.589551025390625,0.09813299775123596,0.03519200161099434,0.012683999724686146
1772389335915609600,2.609609619140625,0.11930599808692932,-0.03104499913752079,0.03654700145125389
1772389335935668000,2.62966796875,0.0818450003862381,-0.001636000000871718,-0.06596200168132782
1772389335955726800,2.649726806640625,0.006275999825447798,-0.028509000316262245,-0.0279690008610487
1772389335975785200,2.66978515625,-0.06617800146341324,0.02759299986064434,0.06162400171160698
1772389335995844000,2.689843994140625,-0.02814299985766411,0.04447399824857712,0.03809899836778641
1772389336015902500,2.70990234375,0.0966849997639656,-0.008419999852776527,-0.05751999840140343
1772389336035961000,2.729961181640625,-0.01065099984407425,-0.0411360003054142,-0.09641599655151367
1772389336056019700,2.750019775390625,-0.13572099804878235,0.0038900000508874655,-0.026732999831438065
1772389336076078000,2.770078125,-0.08697699755430222,0.04471300169825554,0.06421300023794174
1772389336096137000,2.790136962890625,-0.05278100073337555,0.02216999977827072,0.04416999965906143
1772389336116195300,2.8101953125,-0.01902499981224537,0.03373600170016289,-0.03026299923658371
1772389336136254000,2.83025390625,0.042378999292850494,0.0021879998967051506,0.03738899901509285
1772389336156312600,2.8503125,0.08910299837589264,0.01054999977350235,0.006711000110954046
1772389336176371200,2.87037109375,0.08728300034999847,-0.041159000247716904,-0.03623000159859657
1772389336196429800,2.890429931640625,0.20342600345611572,-0.055326998233795166,0.031814999878406525
1772389336216488400,2.910488525390625,0.24914099276065826,0.014937999658286572,0.07185199856758118
1772389336236547000,2.930547119140625,-0.03668700158596039,-0.03204900026321411,0.019081000238656998
1772389336256605400,2.95060546875,-0.33174899220466614,0.02556000091135502,0.03046499937772751
1772389336276664300,2.970664306640625,-0.22859899699687958,0.12444800138473511,0.05717200040817261
1772389336296722700,2.99072265625,0.008320000022649765,0.014759000390768051,-0.08466199785470963
1772389336316781300,3.01078125,0.08905600011348724,-0.11059200018644333,-0.19972899556159973
1772389336336840000,3.03083984375,0.10004399716854095,-0.03327300027012825,0.05861600115895271
1772389336356898600,3.050898681640625,0.02243500016629696,0.030981000512838364,0.16689300537109375
1772389336376957000,3.07095703125,-0.04125100001692772,0.011983999982476234,0.1167140007019043
1772389336397015600,3.091015625,-0.037000998854637146,-0.0064119999296963215,-0.012227999977767467
1772389336417074200,3.11107421875,-0.0544000007212162,-0.0027290000580251217,0.028617000207304955
1772389336437132500,3.131132568359375,0.010079000145196915,0.022616000846028328,0.06929299980401993
1772389336457191200,3.151191162109375,0.03126300126314163,0.04129299893975258,0.0490339994430542
1772389336477249800,3.171249755859375,0.005810000002384186,0.052232999354600906,-0.07197199761867523
1772389336497308400,3.191308349609375,0.062247999012470245,-0.00861200038343668,-0.07037699967622757
1772389336517366800,3.21136669921875,0.06659899652004242,0.03950899839401245,0.02369699999690056
1772389336537425700,3.23142578125,0.042079001665115356,-0.0051910001784563065,-0.03864099830389023
1772389336557484000,3.251484130859375,0.012063000351190567,-0.04575299844145775,-0.06531299650669098
1772389336577542400,3.27154248046875,-0.0319489985704422,0.02979700081050396,-0.097850002348423
1772389336597601000,3.29160107421875,-0.13515900075435638,-0.04656200110912323,-0.020679999142885208
1772389336617659400,3.311659423828125,-0.17532700300216675,-0.01644900068640709,0.08505500108003616
1772389336637718300,3.33171826171875,-0.011460999958217144,-0.014759999699890614,0.05044399946928024
1772389336657776600,3.351776611328125,0.02522999979555607,-0.01980699971318245,-0.09404399991035461
1772389336677835000,3.3718349609375,-0.06621500104665756,0.0033539999276399612,0.06316400319337845
1772389336697893600,3.3918935546875,-0.010572000406682491,-0.012516000308096409,0.12493100017309189
1772389336717952000,3.411951904296875,0.024341000244021416,-0.008413000032305717,0.04234499856829643
1772389336738010600,3.4320107421875,-0.03252600133419037,-0.008329999633133411,0.141075998544693
1772389336758069200,3.4520693359375,-0.07802099734544754,-0.0010639999527484179,-0.023138999938964844
1772389336778127600,3.472127685546875,-0.10081599652767181,-0.04085100069642067,0.008688000030815601
1772389336798186200,3.492186279296875,-0.00945299956947565,-0.04628000035881996,-0.07944799959659576
1772389336818244600,3.51224462890625,0.02523699961602688,0.002974000060930848,-0.041958998888731
1772389336838303200,3.53230322265625,0.1481889933347702,0.014379000291228294,0.04243199899792671
1772389336858361600,3.552361572265625,0.003350999904796481,-0.044495999813079834,-0.07325299829244614
1772389336878420200,3.572420166015625,-0.04131799936294556,0.06440199911594391,-0.0010029999539256096
1772389336898478600,3.592478515625,0.05734499916434288,0.05312100052833557,0.09519699960947037
1772389336918537000,3.612536865234375,-0.018922999501228333,-0.0359020009636879,0.018557999283075333
1772389336938595600,3.632595703125,-0.013539000414311886,-0.038322001695632935,-0.017952999100089073
1772389336958654000,3.652654052734375,-0.0852309986948967,-0.02105800062417984,-0.052762001752853394
1772389336978712300,3.67271240234375,-0.05538399890065193,-0.012845000252127647,0.18018899857997894
1772389336998771000,3.69277099609375,-0.00990699976682663,0.022523000836372375,0.06975100189447403
1772389337018829600,3.71282958984375,-0.10152599960565567,0.010018999688327312,0.019000999629497528
1772389337038887700,3.7328876953125,-0.1516209989786148,0.004013999830931425,0.05920099839568138
1772389337058946300,3.7529462890625,-0.14849600195884705,0.018410999327898026,-0.07103899866342545
1772389337079004700,3.773004638671875,-0.14599700272083282,0.026729000732302666,-0.04003100097179413
1772389337099063300,3.793063232421875,0.00800199992954731,0.04218300059437752,0.06397499889135361
1772389337119121700,3.81312158203125,0.157600998878479,-0.031052999198436737,-0.01361900009214878
1772389337139180000,3.833179931640625,0.07808099687099457,-0.00004199999966658652,-0.0724949985742569
1772389337159238400,3.85323828125,-0.04233400151133537,-0.005634000059217215,0.053203001618385315
1772389337179297000,3.873297119140625,0.03893199935555458,-0.031706999987363815,-0.06863699853420258
1772389337199355400,3.89335546875,-0.028853999450802803,-0.07736500352621078,-0.04130899906158447
1772389337219413800,3.913413818359375,-0.19508300721645355,-0.013892999850213528,0.1581519991159439
1772389337239472400,3.933472412109375,-0.16006599366664886,0.04808599874377251,0.19772100448608398
1772389337259530800,3.95353076171875,0.05994600057601929,0.060068998485803604,0.023777000606060028
1772389337279589400,3.97358935546875,0.13195699453353882,-0.03274499997496605,-0.00977800041437149
1772389337299647500,3.9936474609375,-0.008833999745547771,-0.006996000185608864,0.1185770034790039
1772389337319705900,4.013705810546875,0.042532000690698624,0.004002999980002642,0.05886099860072136
1772389337339764500,4.033764404296875,-0.027573000639677048,-0.017596999183297157,-0.05610999837517738
1772389337359822800,4.05382275390625,-0.2668589949607849,0.06272300332784653,0.010311000049114227
1772389337379881200,4.073881103515625,-0.16788700222969055,0.024577999487519264,-0.030150000005960464
1772389337399939600,4.093939697265625,0.08809000253677368,-0.0051369997672736645,-0.13291999697685242
1772389337419998200,4.113998291015625,0.21767200529575348,-0.028908999636769295,-0.08713600039482117
1772389337440056600,4.134056640625,0.22613699734210968,-0.02712699957191944,-0.003309000050649047
1772389337460114700,4.15411474609375,0.03130999952554703,0.05749699845910072,0.08775199949741364
1772389337480173300,4.17417333984375,-0.08055099844932556,0.06519699841737747,0.16620199382305145
1772389337500231700,4.194231689453125,-0.03564099967479706,-0.0838410034775734,0.057760998606681824
1772389337520290000,4.2142900390625,-0.03411300107836723,-0.05427199974656105,-0.0833899974822998
1772389337540348700,4.2343486328125,-0.1920900046825409,-0.021818000823259354,0.10928700119256973
1772389337560406800,4.25440673828125,-0.04807199910283089,0.06814499944448471,0.09702900052070618
1772389337580465200,4.274465087890625,-0.07285699993371964,0.012915999628603458,-0.01677599921822548
1772389337600523800,4.294523681640625,-0.16388599574565887,-0.003266999963670969,0.012179000303149223
1772389337620582100,4.31458203125,0.0088900001719594,-0.020214000716805458,-0.021455999463796616
1772389337640640300,4.33464013671875,0.1855120062828064,-0.0025710000190883875,-0.10116499662399292
1772389337660698600,4.35469873046875,0.046810001134872437,0.03634300082921982,-0.0009319999953731894
1772389337680757200,4.37475732421875,0.0318479984998703,0.06347399950027466,-0.007945000194013119
1772389337700815400,4.3948154296875,0.19907799363136292,0.0011790000135079026,0.0032430000137537718
1772389337720874000,4.4148740234375,0.1688620001077652,-0.0294560007750988,0.006593999918550253
1772389337740932400,4.434932373046875,-0.0521089993417263,-0.033163998275995255,-0.03312399983406067
1772389337760990700,4.45499072265625,-0.1568869948387146,-0.00013099999341648072,-0.051298998296260834
1772389337781049000,4.475049072265625,-0.1447100043296814,0.01909399963915348,0.07575999945402145
1772389337801107500,4.495107421875,0.02583100087940693,0.00007500000356230885,0.07580800354480743
1772389337821165800,4.515165771484375,0.12226500362157822,-0.043939001858234406,0.022245999425649643
1772389337841224200,4.53522412109375,0.11701200157403946,-0.03515100106596947,0.04259699955582619
1772389337861282600,4.555282470703125,0.045609001070261,0.014279000461101532,0.007677000015974045
1772389337881340700,4.575340576171875,0.002087000058963895,0.03382299840450287,0.13974200189113617
1772389337901399300,4.5953994140625,-0.015128999948501587,0.029458999633789062,0.0349930003285408
1772389337921457700,4.615457763671875,-0.014503000304102898,-0.03643200173974037,-0.0824040025472641
1772389337941515800,4.635515869140625,0.019595999270677567,0.03085399977862835,-0.005123000126332045
1772389337961574100,4.65557421875,0.051676999777555466,0.05508299916982651,0.05909999832510948
1772389337981632500,4.675632568359375,0.12534199655056,-0.028734000399708748,0.052880000323057175
1772389338001691000,4.69569091796875,0.17147299647331238,-0.03418700024485588,-0.03209500014781952
1772389338021749200,4.715749267578125,-0.05082099884748459,-0.0009490000084042549,-0.09447599947452545
1772389338041807400,4.735807373046875,-0.2550559937953949,0.028039000928401947,-0.017981000244617462
1772389338061865700,4.75586572265625,0.008754000067710876,0.0552310012280941,0.1192149966955185
1772389338081924400,4.77592431640625,0.20220300555229187,0.05378499999642372,0.012972000055015087
1772389338101982500,4.795982421875,-0.07343699783086777,0.05262799933552742,0.01997699961066246
1772389338122040600,4.81604052734375,-0.1755490005016327,0.01890300028026104,0.12318199872970581
1772389338142099200,4.83609912109375,0.1467600017786026,-0.00007699999696342275,0.025745000690221786
1772389338162157300,4.8561572265625,0.18780800700187683,-0.042461998760700226,-0.09620299935340881
1772389338182215700,4.876215576171875,-0.10015299916267395,-0.06996999680995941,-0.04016200080513954
1772389338202274000,4.896274169921875,-0.19932200014591217,-0.004776000045239925,-0.11052999645471573
1772389338222332200,4.916332275390625,-0.025057999417185783,0.0521790012717247,0.07237499952316284
1772389338242390800,4.936390869140625,0.07195299863815308,0.07214300334453583,0.12430000305175781
1772389338262449000,4.956448974609375,0.13756200671195984,-0.001484000007621944,-0.06855899840593338
1772389338282507300,4.97650732421875,0.1140500009059906,-0.04758799821138382,-0.09724699705839157
1772389338302565600,4.996565673828125,0.0488400012254715,-0.05087000131607056,0.052602000534534454
1772389338322623700,5.016623779296875,0.06627199798822403,0.014503000304102898,0.09168100357055664
1772389338342682000,5.03668212890625,0.007416999898850918,0.02520200051367283,0.05254499986767769
1772389338362740500,5.056740478515625,-0.09966500103473663,-0.011037000454962254,0.0036359999794512987
1772389338382798800,5.076798828125,-0.0797320008277893,-0.03682899847626686,-0.008290999568998814
1772389338402857000,5.09685693359375,0.04181300103664398,0.0009360000258311629,-0.005032000131905079
1772389338422915600,5.11691552734375,-0.060947999358177185,0.004749000072479248,-0.04642599821090698
1772389338442973700,5.1369736328125,-0.10395900160074234,-0.008200000040233135,-0.00834100041538477
1772389338463031800,5.15703173828125,0.07923199981451035,-0.01616000011563301,0.08132699877023697
1772389338483090200,5.177090087890625,0.19538600742816925,0.021470999345183372,0.015460999682545662
1772389338503148500,5.1971484375,0.05310799926519394,-0.06522200256586075,-0.0356299988925457
1772389338523206700,5.21720654296875,-0.0183119997382164,-0.02097800001502037,-0.026103999465703964
1772389338543265000,5.23726513671875,-0.05544999986886978,0.05601600185036659,0.01511599961668253
1772389338563323100,5.2573232421875,-0.0939600020647049,0.023213999345898628,0.0560929998755455
1772389338583381500,5.277381591796875,0.04563099890947342,0.030571000650525093,-0.033525001257658005
1772389338603439900,5.29743994140625,0.13570499420166016,0.030056999996304512,-0.0516199991106987
1772389338623498000,5.317498046875,0.03416400030255318,-0.04715399816632271,-0.014895999804139137
1772389338643556400,5.337556396484375,-0.1102679967880249,0.03747599944472313,-0.0175160001963377
1772389338663614700,5.35761474609375,0.010985000059008598,0.014781000092625618,0.02278600074350834
1772389338683672800,5.3776728515625,0.03918800130486488,0.0022249999456107616,0.00622900016605854
1772389338703731000,5.39773095703125,0.06414999812841415,0.014580000191926956,0.09378299862146378
1772389338723789300,5.417789306640625,0.1377200037240982,-0.028334999457001686,0.015026000328361988
1772389338743847400,5.437847412109375,-0.02182300016283989,-0.058667998760938644,-0.09117799997329712
1772389338763905800,5.45790576171875,-0.11745800077915192,-0.020533999428153038,0.02305700071156025
1772389338783964200,5.477964111328125,-0.04756699874997139,0.017971999943256378,0.04324499890208244
1772389338804022300,5.498022216796875,0.05154599994421005,0.043177999556064606,-0.015003000386059284
1772389338824080400,5.518080322265625,0.039636000990867615,0.019341999664902687,-0.021601999178528786
1772389338844138500,5.538138427734375,-0.08348999917507172,-0.014925000257790089,-0.021282000467181206
1772389338864197000,5.558197021484375,-0.07639200240373611,0.010458000004291534,-0.08822499960660934
1772389338884255200,5.578255126953125,-0.005113000050187111,0.029966000467538834,-0.02978000044822693
1772389338904313300,5.598313232421875,-0.002491000108420849,0.0007730000070296228,0.05457499995827675
1772389338924371500,5.618371337890625,0.053206998854875565,-0.014581000432372093,0.02046000026166439
1772389338944429800,5.638429931640625,0.05456500127911568,-0.00046499999007210135,0.0339680016040802
1772389338964488000,5.658488037109375,-0.004346999805420637,-0.015572000294923782,-0.009624999947845936
1772389338984546300,5.67854638671875,-0.036277998238801956,-0.0044570001773536205,-0.025299999862909317
1772389339004604400,5.6986044921875,0.09977699816226959,0.006033000070601702,0.08775900304317474
1772389339024662500,5.71866259765625,0.14862200617790222,0.010427000001072884,0.08300700038671494
1772389339044721000,5.738720947265625,-0.009902000427246094,0.023541999980807304,0.059206001460552216
1772389339064779300,5.758779296875,-0.001521000056527555,0.018834000453352928,-0.035034000873565674
1772389339084837400,5.77883740234375,0.07478199899196625,-0.00573199987411499,-0.014426999725401402
1772389339104895500,5.7988955078125,0.12542599439620972,-0.04138600081205368,-0.0019420000026002526
1772389339124953600,5.81895361328125,0.10034000128507614,-0.048308998346328735,-0.009553000330924988
1772389339145012000,5.839011962890625,-0.10212700068950653,-0.009847000241279602,-0.040442999452352524
1772389339165070000,5.859070068359375,-0.3193010091781616,0.0761210024356842,0.008445000275969505
1772389339185128200,5.879128173828125,-0.25544100999832153,0.07609699666500092,-0.024443000555038452
1772389339205186300,5.899186279296875,0.04284600168466568,-0.0095210000872612,-0.03315399959683418
1772389339225244700,5.91924462890625,0.18787699937820435,0.026782000437378883,0.0006760000251233578
1772389339245302800,5.939302734375,0.08710099756717682,0.007825000211596489,0.07333999872207642
1772389339265361000,5.95936083984375,0.03688099980354309,-0.06254000216722488,0.04347199946641922
1772389339285419300,5.979419189453125,-0.03769399970769882,-0.029231999069452286,-0.05002100020647049
1772389339305477400,5.999477294921875,-0.21975499391555786,-0.011384000070393085,0.03518199920654297
1772389339325535500,6.019535400390625,-0.015003999695181847,0.025290999561548233,0.041746001690626144
1772389339345593600,6.039593505859375,0.3199959993362427,0.0026340000331401825,0.007796000223606825
1772389339365651700,6.059651611328125,0.08319699764251709,0.015706999227404594,0.03903700038790703
1772389339385709800,6.079709716796875,-0.16544200479984283,0.058164000511169434,0.07123000174760818
1772389339405768200,6.099768310546875,-0.017153000459074974,0.031332001090049744,-0.027015000581741333
1772389339425826300,6.119826416015625,0.034276001155376434,-0.014933000318706036,-0.056012000888586044
1772389339445884400,6.139884521484375,0.03702099993824959,-0.011946000158786774,-0.004809999838471413
1772389339465942500,6.159942626953125,0.12161699682474136,-0.032756999135017395,-0.04944799840450287
1772389339486000600,6.180000732421875,0.03409299999475479,-0.052606001496315,-0.07635799795389175
1772389339506058800,6.200058837890625,-0.05112500116229057,-0.0020840000361204147,0.023713000118732452
1772389339526117400,6.220117431640625,-0.07930000126361847,0.009530999697744846,0.053369998931884766
1772389339546175200,6.24017529296875,-0.0634400025010109,0.023624999448657036,0.009895999915897846
1772389339566233300,6.2602333984375,0.004447000101208687,-0.000299000006634742,0.03271700069308281
1772389339586291500,6.28029150390625,0.05955800041556358,-0.0002390000008745119,0.03017299994826317
1772389339606349600,6.300349609375,-0.06595300137996674,-0.008191999979317188,0.0665379986166954
1772389339626407700,6.32040771484375,-0.08476199954748154,-0.050553999841213226,0.030030999332666397
1772389339646466000,6.340466064453125,0.0369889996945858,-0.03484300151467323,-0.0695749968290329
1772389339666524200,6.360524169921875,0.010390999726951122,0.006525000091642141,-0.04845999926328659
1772389339686582300,6.380582275390625,0.10831300169229507,0.0036200000904500484,0.07803100347518921
1772389339706640400,6.400640380859375,0.20184999704360962,0.004495000001043081,-0.03117400035262108
1772389339726698500,6.420698486328125,-0.10731899738311768,-0.003601999953389168,-0.030539000406861305
1772389339746756600,6.440756591796875,-0.44025498628616333,0.05791600048542023,0.007567999884486198
1772389339766814700,6.460814697265625,-0.2042039930820465,0.05833299830555916,-0.0315449982881546
1772389339786872800,6.480872802734375,0.2326360046863556,-0.04933299869298935,-0.06603600084781647
1772389339806931000,6.500930908203125,0.305308997631073,-0.05306699872016907,-0.0696289986371994
1772389339826989300,6.5209892578125,-0.03015200048685074,-0.00965300016105175,-0.025303000584244728
1772389339847047200,6.541047119140625,-0.3593220114707947,-0.006122000049799681,0.07735700160264969
1772389339867105300,6.561105224609375,-0.15145699679851532,0.060701001435518265,0.09228499978780746
1772389339887163400,6.581163330078125,0.13963299989700317,0.014161000028252602,-0.017371000722050667
1772389339907221500,6.601221435546875,0.22130699455738068,-0.03506999835371971,-0.0962970033288002
1772389339927279600,6.621279541015625,0.16504499316215515,-0.0032550001051276922,-0.03303699940443039
1772389339947338000,6.641337890625,-0.06476300209760666,0.03179499879479408,0.18236899375915527
1772389339967396000,6.66139599609375,0.056988999247550964,0.0662359967827797,0.15709500014781952
1772389339987454000,6.681453857421875,0.16399100422859192,-0.07981099933385849,-0.07912299782037735
1772389340007512000,6.701511962890625,-0.13120600581169128,-0.04464900121092796,-0.14009800553321838
1772389340027570200,6.721570068359375,-0.332165002822876,-0.04131799936294556,-0.0256779994815588
1772389340047628300,6.741628173828125,-0.2849319875240326,0.009344999678432941,-0.10134299844503403
1772389340067686100,6.76168603515625,0.01845400035381317,0.028276000171899796,0.010924999602138996
1772389340087744300,6.781744140625,0.346763014793396,0.013020999729633331,0.05513999983668327
1772389340107802600,6.801802734375,0.18140999972820282,0.008817000314593315,0.00011200000153621659
1772389340127860700,6.82186083984375,-0.09647099673748016,0.020653000101447105,0.060888998210430145
1772389340147918800,6.8419189453125,-0.007577000185847282,0.010122999548912048,0.03751099854707718
1772389340167976700,6.861976806640625,0.06993799656629562,-0.03190099820494652,-0.08918999880552292
1772389340188034800,6.882034912109375,-0.05684899911284447,-0.03672099858522415,0.01664699986577034
1772389340208093000,6.902093017578125,0.00812000036239624,-0.0029770000837743282,0.11491800099611282
1772389340228151000,6.922151123046875,-0.019903000444173813,0.01281800027936697,-0.012865000404417515
1772389340248209200,6.942209228515625,-0.3399220108985901,0.029455000534653664,-0.07029200345277786
1772389340268267000,6.96226708984375,-0.17993800342082977,0.04516400024294853,0.032565999776124954
1772389340288325400,6.982325439453125,0.33444899320602417,-0.02706800028681755,-0.03394699841737747
1772389340308383200,7.00238330078125,0.2795589864253998,-0.04485499858856201,-0.05595700070261955
1772389340328441300,7.02244140625,0.034047000110149384,0.019315000623464584,0.05923299863934517
1772389340348499500,7.04249951171875,0.12243799865245819,-0.010947000235319138,-0.02781200036406517
1772389340368557300,7.062557373046875,0.03714999929070473,-0.09675700217485428,-0.187049999833107
1772389340388615400,7.082615478515625,-0.144678995013237,-0.06780599802732468,-0.09204000234603882
1772389340408673500,7.102673583984375,-0.18294300138950348,0.07215499877929688,0.11276700347661972
1772389340428731400,7.1227314453125,0.1200449988245964,0.09932400286197662,0.20061400532722473
1772389340448789500,7.14278955078125,0.22243599593639374,0.03945999965071678,0.07489100098609924
1772389340468847600,7.16284765625,0.2355480045080185,-0.010831000283360481,0.006312999874353409
1772389340488905700,7.18290576171875,0.0828389972448349,0.004933999851346016,0.0010499999625608325
1772389340508963600,7.202963623046875,-0.10572800040245056,0.05594699829816818,0.09684000164270401
1772389340529021700,7.223021728515625,-0.17338299751281738,0.007957999594509602,0.023072000592947006
1772389340549079800,7.243079833984375,-0.1443060040473938,0.03756599873304367,-0.06954199820756912
1772389340569137700,7.2631376953125,-0.009844999760389328,0.002853000070899725,-0.0708329975605011
1772389340589195800,7.28319580078125,0.1185230016708374,-0.026517000049352646,-0.09826599806547165
1772389340609254000,7.30325390625,-0.03957999870181084,0.0323840007185936,-0.06021299958229065
1772389340629311700,7.323311767578125,-0.19246399402618408,0.01070799957960844,0.021429000422358513
1772389340649369900,7.343369873046875,-0.10597100108861923,-0.012232000008225441,-0.006056000012904406
1772389340669427700,7.363427734375,-0.0543770007789135,0.05101199820637703,0.05835400149226189
1772389340689485800,7.38348583984375,-0.03550099954009056,-0.05118900164961815,0.05788299813866615
1772389340709543700,7.403543701171875,-0.010800999589264393,-0.05215099826455116,-0.037693001329898834
1772389340729601800,7.423601806640625,-0.016641000285744667,0.0022789998911321163,0.136244997382164
1772389340749659600,7.44365966796875,0.026686999946832657,0.007422999944537878,0.16659599542617798
1772389340769717800,7.4637177734375,0.03894900158047676,-0.05086100101470947,-0.05632200092077255
1772389340789776000,7.48377587890625,-0.11444000154733658,0.0065100002102553844,-0.03705799952149391
1772389340809834000,7.503833984375,-0.1475519984960556,-0.0059899999760091305,0.044753000140190125
1772389340829891800,7.523891845703125,0.06835799664258957,-0.03919300064444542,-0.054597001522779465
1772389340849950000,7.543949951171875,0.04668600112199783,-0.03295399993658066,-0.07967700064182281
1772389340870007800,7.5640078125,-0.09305000305175781,0.03843599930405617,0.09705699980258942
1772389340890066000,7.58406591796875,0.09275899827480316,0.06114799901843071,0.07204599678516388
1772389340910123800,7.604123779296875,0.24060699343681335,-0.03508000075817108,-0.08636300265789032
1772389340930182000,7.624181884765625,-0.08111400157213211,-0.07046499848365784,-0.10108999907970428
1772389340950240000,7.644239990234375,-0.21849100291728973,0.014828000217676163,0.05112700164318085
1772389340970297600,7.664297607421875,0.1508059948682785,0.01346299983561039,0.0481019988656044
1772389340990355700,7.684355712890625,0.08224499970674515,-0.01803000085055828,0.01208100002259016
1772389341010413800,7.704413818359375,-0.17900300025939941,0.03357600048184395,-0.001534000039100647
1772389341030472000,7.724471923828125,-0.023202000185847282,0.054058998823165894,-0.013226999901235104
1772389341050529500,7.744529541015625,0.18863700330257416,-0.047150999307632446,0.04861700162291527
1772389341070587600,7.764587646484375,0.03010999970138073,0.031078999862074852,0.023693999275565147
1772389341090645500,7.7846455078125,-0.06791099905967712,0.023262999951839447,0.028555000200867653
1772389341110703600,7.80470361328125,0.13207000494003296,-0.04058900102972984,-0.0723550021648407
1772389341130761500,7.824761474609375,-0.06874299794435501,-0.03647100180387497,-0.11228399723768234
1772389341150819600,7.844819580078125,-0.20459400117397308,0.04362199828028679,0.03497200086712837
1772389341170877400,7.86487744140625,0.035523999482393265,0.02529899962246418,0.02077700011432171
1772389341190935300,7.884935302734375,0.1700190007686615,-0.02616100013256073,-0.058577001094818115
1772389341210993400,7.904993408203125,0.05361500009894371,-0.004927999805659056,0.010737000033259392
1772389341231051000,7.925051025390625,0.00849200040102005,0.07045599818229675,0.09098999947309494
1772389341251109000,7.945109130859375,0.001193000003695488,0.04676499962806702,0.0551920011639595
1772389341271167000,7.9651669921875,-0.1182439997792244,-0.07378699630498886,-0.06464599817991257
1772389341291225000,7.98522509765625,0.005404000170528889,-0.04543000087141991,-0.1397159993648529
1772389341311283000,8.005282958984376,0.09232299774885178,0.013256000354886055,0.058625999838113785
1772389341331340800,8.0253408203125,0.020258000120520592,0.010603999719023705,0.09250099956989288
1772389341351398700,8.045398681640625,-0.10219299793243408,-0.00671500014141202,0.02280000038444996
1772389341371456800,8.065456787109374,-0.08815400302410126,-0.0037720000836998224,-0.05295899882912636
1772389341391514600,8.0855146484375,-0.09692300111055374,-0.004616999998688698,-0.055966999381780624
1772389341411572500,8.105572509765626,-0.029538000002503395,-0.0076939999125897884,0.018425999209284782
1772389341431630600,8.125630615234375,0.12196800112724304,0.0018439999548718333,0.10273999720811844
1772389341451688200,8.145688232421875,0.1223749965429306,0.02787500061094761,0.08619199693202972
1772389341471746000,8.16574609375,-0.03809899836778641,-0.03129899874329567,-0.07424499839544296
1772389341491804200,8.18580419921875,-0.17047999799251556,-0.053839001804590225,-0.040196001529693604
1772389341511862000,8.205862060546876,-0.05238400027155876,0.014527999795973301,0.06544200330972672
1772389341531920000,8.225919921875,0.13249200582504272,0.05002199858427048,0.025154000148177147
1772389341551977700,8.245977783203125,0.22279399633407593,-0.03438099846243858,-0.04067600145936012
1772389341572035600,8.26603564453125,0.01983500085771084,0.03969300165772438,-0.06694100052118301
1772389341592093400,8.286093505859375,-0.2889310121536255,0.0869550034403801,0.04724600166082382
1772389341612151300,8.3061513671875,-0.15114499628543854,0.032763998955488205,0.06899700313806534
1772389341632209200,8.326209228515625,0.1766829937696457,-0.024987999349832535,-0.13840100169181824
1772389341652267000,8.34626708984375,0.08534599840641022,-0.03919000178575516,-0.10512100160121918
1772389341672324900,8.366324951171874,0.0186769999563694,-0.0241519995033741,0.053502000868320465
1772389341692382700,8.3863828125,0.09734199941158295,0.0038769999518990517,-0.06599699705839157
1772389341712440600,8.406440673828126,-0.0157260000705719,-0.05449799820780754,0.01600099913775921
1772389341732498700,8.426498779296875,0.02901799976825714,-0.0027979998849332333,0.20480099320411682
1772389341752556500,8.446556640625,0.09441500157117844,0.05856100097298622,0.06384100019931793
1772389341772614400,8.466614501953124,-0.07006700336933136,0.008449000306427479,0.015072000212967396
1772389341792672300,8.48667236328125,-0.06565400213003159,-0.04843999817967415,-0.015141000039875507
1772389341812730000,8.506730224609376,0.06267599761486053,0.009247000329196453,-0.10971300303936005
1772389341832788000,8.5267880859375,-0.06745799630880356,0.0073979999870061874,0.06902900338172913
1772389341852845800,8.546845703125,-0.01876699924468994,-0.00928100012242794,0.12802299857139587
1772389341872903700,8.566903564453124,0.0593860000371933,0.014973999932408333,-0.0815809965133667
1772389341892961500,8.58696142578125,-0.11168999969959259,0.0007800000021234155,-0.039664000272750854
1772389341913019400,8.607019287109376,-0.06215199828147888,0.002222999930381775,-0.035732001066207886
1772389341933077200,8.6270771484375,0.17827700078487396,0.02097800001502037,-0.022985000163316727
1772389341953135000,8.647135009765625,0.09222199767827988,-0.02321700006723404,0.03921100124716759
1772389341973193000,8.66719287109375,-0.08462200313806534,0.014224999584257603,0.027369000017642975
1772389341993250800,8.687250732421875,-0.019696999341249466,0.008980999700725079,0.0026950000319629908
1772389342013308700,8.70730859375,0.04744099825620651,0.016784999519586563,-0.032242998480796814
1772389342033366500,8.727366455078124,-0.04124600067734718,-0.022570999339222908,0.02780500054359436
1772389342053424400,8.74742431640625,-0.03059699945151806,-0.023655999451875687,-0.0009549999958835542
1772389342073482200,8.767482177734376,-0.057277001440525055,0.007474000100046396,0.003234999952837825
1772389342093540000,8.7875400390625,-0.17222200334072113,-0.0516199991106987,0.01058799959719181
1772389342113598000,8.807597900390626,0.031021999195218086,-0.04129600152373314,-0.10832899808883667
1772389342133655800,8.82765576171875,0.1472170054912567,0.018962999805808067,0.01653599925339222
1772389342153713700,8.847713623046875,-0.012625000439584255,0.08236999809741974,0.158829003572464
1772389342173771300,8.867771240234376,0.03789899870753288,0.0442969985306263,0.22626300156116486
1772389342193829000,8.8878291015625,0.22391900420188904,0.025837000459432602,-0.05258899927139282
1772389342213887000,8.907886962890625,0.05433500185608864,0.034269001334905624,-0.07087100297212601
1772389342233944600,8.927944580078124,-0.0885310024023056,-0.014183999970555305,-0.01989700086414814
1772389342254002400,8.94800244140625,0.0059739998541772366,-0.023346999660134315,-0.10951700061559677
1772389342274060300,8.968060302734376,-0.2536199986934662,-0.03787799924612045,-0.011614000424742699
1772389342294118100,8.9881181640625,-0.333296000957489,0.004097000230103731,0.06910800188779831
1772389342314176000,9.008176025390625,0.01656300015747547,0.030477000400424004,-0.08071299642324448
1772389342334233900,9.02823388671875,0.1132500022649765,-0.06201700121164322,-0.012570000253617764
1772389342354291500,9.04829150390625,0.08420000225305557,0.01758600026369095,0.11074300110340118
1772389342374349300,9.068349365234376,0.15615999698638916,0.004468000028282404,0.032593999058008194
1772389342394407200,9.0884072265625,0.0289280004799366,-0.05002399906516075,0.038075000047683716
1772389342414465000,9.108465087890625,0.0023419999051839113,-0.026419000700116158,0.06645999848842621
1772389342434523000,9.12852294921875,-0.0005249999812804163,0.018864000216126442,0.01716800034046173
1772389342454580500,9.14858056640625,-0.19721999764442444,0.020690999925136566,0.06893400102853775
1772389342474638300,9.168638427734376,-0.11617600172758102,-0.006647000089287758,-0.019252000376582146
1772389342494696200,9.1886962890625,0.09105800092220306,-0.01091699954122305,-0.10340099781751633
1772389342514754000,9.208754150390625,0.20884700119495392,-0.012733999639749527,0.03807799890637398
1772389342534811600,9.228811767578126,0.06387700140476227,-0.0021869998890906572,-0.01753699965775013
1772389342554869500,9.248869384765625,-0.10009700059890747,0.03504899889230728,-0.02602900005877018
1772389342574927400,9.26892724609375,-0.18407799303531647,0.0464400015771389,0.13437600433826447
1772389342594985200,9.288985107421874,-0.07606200128793716,0.09075099974870682,0.03869999945163727
1772389342615042600,9.30904248046875,-0.018449999392032623,0.00940100010484457,-0.05703900009393692
1772389342635100400,9.329100341796876,-0.022760000079870224,-0.08607900142669678,-0.09523099660873413
1772389342655158300,9.349158203125,0.029790999367833138,-0.08006300032138824,-0.047384001314640045
1772389342675216100,9.369216064453125,0.0278329998254776,0.00634900014847517,0.0156909991055727
1772389342695273700,9.389273681640624,-0.09453299641609192,0.08027900010347366,0.07975299656391144
1772389342715331600,9.40933154296875,0.0027729999274015427,0.052223000675439835,0.01580199971795082
1772389342735389200,9.42938916015625,0.1862179934978485,-0.005421000067144632,-0.040957000106573105
1772389342755447000,9.449447021484374,0.08577500283718109,-0.0411360003054142,0.08563300222158432
1772389342775504600,9.469504638671875,0.003019999945536256,-0.019308999180793762,0.08930700272321701
1772389342795562500,9.4895625,-0.06078299880027771,0.035753000527620316,0.016245000064373016
1772389342815620400,9.509620361328125,0.060972001403570175,-0.01859699934720993,-0.01180300023406744
1772389342835678000,9.529677978515625,0.14397799968719482,-0.03247800096869469,-0.11664199829101562
1772389342855735800,9.54973583984375,0.04078200086951256,-0.0179820004850626,-0.053314000368118286
1772389342875793700,9.569793701171875,0.036625999957323074,-0.03918600082397461,0.11254800111055374
1772389342895851300,9.589851318359376,0.002099999925121665,0.04464999958872795,-0.025160999968647957
1772389342915908900,9.609908935546875,-0.1919189989566803,0.049320001155138016,-0.014527999795973301
1772389342935966500,9.629966552734375,-0.17433500289916992,0.009056000038981438,0.07317599654197693
1772389342956024300,9.6500244140625,0.06133100017905235,-0.014353999868035316,0.037741001695394516
1772389342976082200,9.670082275390625,0.07226499915122986,-0.014682999812066555,0.0357929989695549
1772389342996139800,9.690139892578125,-0.04698700085282326,-0.01574699953198433,0.03823399916291237
1772389343016197600,9.71019775390625,-0.09758999943733215,-0.008596999570727348,-0.09021200239658356
1772389343036255200,9.730255126953125,-0.11967200040817261,0.0027209999971091747,-0.05696899816393852
1772389343056313000,9.75031298828125,0.033861998468637466,-0.005822000093758106,0.04482400044798851
1772389343076370700,9.77037060546875,0.00788899976760149,0.0409419983625412,0.023858999833464622
1772389343096428300,9.79042822265625,-0.07368800044059753,0.06555300205945969,0.07108700275421143
1772389343116486100,9.810486083984374,0.01944899931550026,0.010042999871075153,-0.021530000492930412
1772389343136543700,9.830543701171875,0.22835899889469147,-0.11596500128507614,-0.1340239942073822
1772389343156601600,9.8506015625,0.033087000250816345,-0.025570999830961227,-0.050418999046087265
1772389343176659200,9.8706591796875,-0.12312900274991989,0.07714200019836426,0.1268640011548996
1772389343196717000,9.890717041015625,0.15669600665569305,-0.0382860004901886,0.08229099959135056
1772389343216774700,9.910774658203126,0.16935600340366364,-0.0882280021905899,-0.03016600012779236
1772389343236832300,9.930832275390625,-0.18051399290561676,0.04301600158214569,0.08866599947214127
1772389343256890000,9.95089013671875,-0.13081100583076477,0.06881300359964371,0.12293300032615662
1772389343276947700,9.97094775390625,0.057750001549720764,0.0030499999411404133,-0.004852999933063984
1772389343297005600,9.991005615234375,0.021400000900030136,0.032839998602867126,0.007317000068724155
1772389343317063200,10.011063232421876,-0.00047900000936351717,0.05907199904322624,0.03465300053358078
1772389343337120800,10.031120849609374,0.14361600577831268,-0.017541000619530678,0.06372299790382385
1772389343357178600,10.0511787109375,0.16849300265312195,-0.012432999908924103,-0.061820998787879944
1772389343377236000,10.071236083984376,-0.0204050000756979,0.0172520000487566,-0.03985700011253357
1772389343397293800,10.0912939453125,-0.10992400348186493,0.045802000910043716,-0.03748499974608421
1772389343417351400,10.111351318359375,-0.07433900237083435,0.02144099958240986,-0.06678800284862518
1772389343437409300,10.1314091796875,-0.15947100520133972,0.015553000383079052,0.023368999361991882
1772389343457467000,10.151466796875,0.018022000789642334,0.06604199856519699,0.06829500198364258
1772389343477524500,10.1715244140625,0.13521799445152283,-0.03356499969959259,-0.042962998151779175
1772389343497582000,10.19158203125,0.09457399696111679,-0.0460520014166832,0.06002900004386902
1772389343517640000,10.211639892578125,0.1028589978814125,-0.07284200191497803,0.026422999799251556
1772389343537697500,10.231697509765626,0.03988699987530708,-0.05827400088310242,0.04833799973130226
1772389343557755400,10.25175537109375,0.056710001081228256,0.010979999788105488,0.0650700032711029
1772389343577813000,10.27181298828125,-0.0698309987783432,0.004784000106155872,0.02725600078701973
1772389343597870600,10.29187060546875,-0.12226500362157822,0.05502700060606003,0.006604999769479036
1772389343617928400,10.311928466796875,-0.0906120017170906,-0.04797700047492981,0.17168399691581726
1772389343637985800,10.33198583984375,0.11151000112295151,-0.00558099988847971,0.022947000339627266
1772389343658043400,10.35204345703125,0.0796080008149147,0.07953400164842606,0.003157000057399273
1772389343678101200,10.372101318359375,-0.053112998604774475,0.0564269982278347,0.05372599884867668
1772389343698158800,10.392158935546876,0.2119089961051941,-0.07725699990987778,-0.07141900062561035
1772389343718216700,10.412216796875,0.15432700514793396,-0.0330049991607666,-0.14753499627113342
1772389343738274300,10.4322744140625,-0.24613800644874573,0.1511940062046051,0.019571000710129738
1772389343758332000,10.452331787109374,-0.315310001373291,0.006554999854415655,-0.018742000684142113
1772389343778389500,10.472389404296875,-0.08984799683094025,0.0012440000427886844,-0.12379399687051773
1772389343798447000,10.492447021484375,0.0009210000280290842,0.03139499947428703,0.09776400029659271
1772389343818504700,10.512504638671874,0.16953599452972412,-0.018882999196648598,0.15741099417209625
1772389343838562600,10.5325625,0.22762900590896606,-0.03830600157380104,-0.025270000100135803
1772389343858620200,10.5526201171875,0.19570299983024597,-0.04344499856233597,-0.10661599785089493
1772389343878677800,10.572677734375,0.1445620059967041,-0.013956000097095966,-0.006893000099807978
1772389343898735400,10.5927353515625,0.012450000271201134,0.050436001271009445,0.10568500310182571
1772389343918793000,10.61279296875,-0.10683900117874146,-0.04045100137591362,0.015747999772429466
1772389343938850600,10.6328505859375,0.02332800067961216,0.0844390019774437,0.03339799866080284
1772389343958908200,10.652908203125,0.013062000274658203,-0.006849000230431557,-0.07648000121116638
1772389343978966000,10.672966064453124,0.0048500001430511475,-0.07507800310850143,-0.07638400048017502
1772389343999023600,10.693023681640625,0.06547900289297104,0.03433699905872345,-0.00030700000934302807
1772389344019081000,10.7130810546875,-0.07241600006818771,0.04426899924874306,0.030153000727295876
1772389344039138600,10.733138671875,-0.15953199565410614,-0.006184000056236982,0.08732199668884277
1772389344059196400,10.753196533203125,0.01637299917638302,0.03105200082063675,0.01065799966454506
1772389344079253800,10.773253662109376,0.21229900419712067,-0.09035699814558029,-0.02987300045788288
1772389344099311600,10.7933115234375,-0.03336000069975853,0.038913000375032425,0.004900999832898378
1772389344119369000,10.813368896484375,-0.20108799636363983,-0.008868999779224396,-0.0056779999285936356
1772389344139426800,10.8334267578125,0.038329001516103745,0.09610500186681747,0.001057000015862286
1772389344159484400,10.853484375,0.04826299846172333,0.013683999888598919,0.029644999653100967
1772389344179542000,10.8735419921875,0.011409999802708626,-0.07865200191736221,-0.039482999593019485
1772389344199599400,10.893599365234374,0.2043280005455017,-0.018921999260783195,-0.01398599985986948
1772389344219657000,10.913656982421875,-0.0045369998551905155,-0.0015379999531432986,-0.04398899897933006
1772389344239714800,10.93371484375,0.02676999941468239,0.005969000048935413,0.0264079999178648
1772389344259772400,10.9537724609375,0.22221599519252777,0.0703750029206276,0.04752599820494652
1772389344279830000,10.973830078125,0.30657199025154114,-0.09169899672269821,0.09562099725008011
1772389344299887400,10.993887451171876,0.1684579998254776,-0.017358999699354172,-0.030702000483870506
1772389344319945200,11.0139453125,-0.028433000668883324,-0.00828699953854084,-0.22776199877262115
1772389344340001500,11.03400146484375,0.08445300161838531,-0.0834290012717247,0.27939000725746155
1772389344360060400,11.054060302734374,0.21316200494766235,0.09805600345134735,0.28911200165748596
1772389344380118000,11.074117919921875,-0.17426900565624237,0.14324399828910828,0.16808900237083435
1772389344400175400,11.09417529296875,-0.5738149881362915,0.13219599425792694,-0.0015279999934136868
1772389344420233000,11.11423291015625,-0.5454519987106323,0.06735700368881226,-0.2028219997882843
