time,seconds_elapsed,z,y,x
1772389333568730400,0.26273046875,0.08236250281333923,-0.29315000772476196,0.05678749829530716
1772389333588789200,0.282789306640625,0.08442500233650208,-0.28792500495910645,0.16541250050067902
1772389333608848100,0.30284814453125,0.21230000257492065,-0.3059374988079071,0.30277499556541443
1772389333628907000,0.322906982421875,0.18768750131130219,-0.26551249623298645,0.20899999141693115
1772389333648966000,0.3429658203125,0.08552499860525131,-0.2677125036716461,0.03437500074505806
1772389333669025000,0.36302490234375,0.0929500013589859,-0.27403751015663147,0.025849999859929085
1772389333689084000,0.383083984375,0.11742500215768814,-0.2569875121116638,0.05884999781847
1772389333709143000,0.40314306640625,0.11316250264644623,-0.20377500355243683,0.0034374999813735485
1772389333729202000,0.423201904296875,0.1120624989271164,-0.195250004529953,-0.13186250627040863
1772389333749260800,0.4432607421875,0.05884999781847,-0.15372499823570251,-0.13186250627040863
1772389333769319700,0.463319580078125,0.07699999958276749,-0.09831249713897705,0.0013749999925494194
1772389333789378800,0.48337890625,0.06531249731779099,-0.11110000312328339,-0.005087499972432852
1772389333809437700,0.503437744140625,0.018424998968839645,-0.10999999940395355,0.00989999994635582
1772389333829496600,0.52349658203125,0.020487500354647636,-0.0929500013589859,0.09611249715089798
1772389333849555500,0.543555419921875,0.029012499377131462,-0.10889999568462372,0.1163249984383583
1772389333869614300,0.5636142578125,0.023649999871850014,-0.1153625026345253,0.11742500215768814
1772389333889673500,0.583673583984375,0.027912499383091927,-0.07809999585151672,0.13021250069141388
1772389333909732000,0.603732177734375,0.031212499365210533,-0.06421250104904175,0.08758749812841415
1772389333929791200,0.623791259765625,0.006599999964237213,-0.05678749829530716,0.010862499475479126
1772389333949849900,0.643849853515625,0.033275000751018524,-0.014162499457597733,-0.015675000846385956
1772389333969909000,0.663908935546875,0.055687498301267624,-0.010862499475479126,-0.030662499368190765
1772389333989968000,0.6839677734375,0.02694999985396862,-0.0193875003606081,-0.05829999968409538
1772389334010026500,0.704026611328125,0.05252499878406525,-0.004537499975413084,0.006599999964237213
1772389334030085600,0.724085693359375,0.03437500074505806,0.018837500363588333,0.08332499861717224
1772389334050144500,0.74414453125,0.006599999964237213,0.02736249938607216,0.12815000116825104
1772389334070203400,0.764203369140625,0.0002749999985098839,0.04661250114440918,0.14726249873638153
1772389334090262000,0.784261962890625,-0.01993750035762787,0.055137500166893005,0.09501250088214874
1772389334110321200,0.804321044921875,-0.01251249946653843,0.08607500046491623,0.057750001549720764
1772389334130380000,0.824380126953125,0.023649999871850014,0.10312499850988388,0.0193875003606081
1772389334150439000,0.84443896484375,0.015124999918043613,0.045512501150369644,-0.05403750017285347
1772389334170497800,0.864497802734375,0.0034374999813735485,0.02956249937415123,-0.11371249705553055
1772389334190556700,0.884556640625,-0.006187499966472387,0.047712501138448715,-0.10408750176429749
1772389334210615600,0.904615478515625,0.002337499987334013,0.05087500065565109,-0.06998749822378159
1772389334230674400,0.92467431640625,0.016224998980760574,0.03492499887943268,-0.04661250114440918
1772389334250733300,0.9447333984375,-0.005087499972432852,0.01993750035762787,-0.0668250024318695
1772389334270792200,0.964792236328125,-0.005087499972432852,0.03492499887943268,-0.040150001645088196
1772389334290851000,0.98485107421875,0.031212499365210533,0.09556250274181366,0.04922499880194664
1772389334310910000,1.004909912109375,0.029012499377131462,0.1467124968767166,0.04399999976158142
1772389334330968800,1.02496875,0.004537499975413084,0.1424500048160553,-0.011412499472498894
1772389334351027500,1.04502734375,0.0034374999813735485,0.13282500207424164,-0.021037500351667404
1772389334371086600,1.065086669921875,-0.0019249999895691872,0.07108750194311142,-0.055137500166893005
1772389334391145200,1.085145263671875,0.008799999952316284,0.026399999856948853,-0.010449999943375587
1772389334411204000,1.1052041015625,0.050324998795986176,0.0028874999843537807,0.05458749830722809
1772389334431263000,1.125262939453125,0.021587500348687172,0.0028874999843537807,0.05884999781847
1772389334451321900,1.14532177734375,-0.03162499889731407,-0.015124999918043613,0.029012499377131462
1772389334471380700,1.165380615234375,-0.03918749839067459,-0.0002749999985098839,0.033275000751018524
1772389334491439400,1.185439453125,0.002337499987334013,-0.008799999952316284,0.035475000739097595
1772389334511498200,1.205498291015625,0.0056374999694526196,-0.055687498301267624,-0.017875000834465027
1772389334531557000,1.22555712890625,-0.018837500363588333,0.008249999955296516,-0.008249999955296516
1772389334551616000,1.245615966796875,0.010862499475479126,0.05719999969005585,0.05678749829530716
1772389334571675000,1.2656748046875,0.015124999918043613,0.02736249938607216,-0.003987499978393316
1772389334591733500,1.2857333984375,0.010862499475479126,0.05087500065565109,-0.027499999850988388
1772389334611792400,1.30579248046875,0.035475000739097595,0.06792499870061874,-0.011412499472498894
1772389334631851300,1.325851318359375,0.00989999994635582,0.04235000163316727,-0.08387500047683716
1772389334651910000,1.345909912109375,0.016224998980760574,0.052937500178813934,-0.05829999968409538
1772389334671968800,1.36596875,0.031212499365210533,0.07108750194311142,0.002337499987334013
1772389334692028000,1.38602783203125,0.011962499469518661,0.045512501150369644,0.004537499975413084
1772389334712086500,1.40608642578125,0.007699999958276749,0.0668250024318695,0.05458749830722809
1772389334732145400,1.4261455078125,0.016224998980760574,0.08703749626874924,0.11110000312328339
1772389334752204000,1.4462041015625,0.00989999994635582,0.05623750016093254,0.09184999763965607
1772389334772263000,1.466262939453125,0.007699999958276749,0.047712501138448715,0.09075000137090683
1772389334792321800,1.48632177734375,0.022687500342726707,0.09350000321865082,0.1504250019788742
1772389334812380400,1.50638037109375,0.010862499475479126,0.10202500224113464,0.1568875014781952
1772389334832439300,1.526439208984375,0.021587500348687172,0.08923749625682831,0.12911249697208405
1772389334852498000,1.546497802734375,0.031212499365210533,0.07961250096559525,0.09831249713897705
1772389334872556800,1.566556884765625,0.013062499463558197,0.04441250115633011,0.040699999779462814
1772389334892615700,1.58661572265625,0.004537499975413084,0.043449997901916504,0.006599999964237213
1772389334912674300,1.60667431640625,0.031212499365210533,0.07108750194311142,0.04399999976158142
1772389334932733000,1.62673291015625,0.02474999986588955,0.04441250115633011,-0.0028874999843537807
1772389334952792000,1.6467919921875,-0.003987499978393316,0.043449997901916504,-0.05197500064969063
1772389334972850700,1.6668505859375,0.016224998980760574,0.05719999969005585,-0.005087499972432852
1772389334992909300,1.686909423828125,0.031212499365210533,0.05719999969005585,0.03863750025629997
1772389335012968000,1.706968017578125,0.06737499684095383,0.08387500047683716,0.09075000137090683
1772389335033026800,1.72702685546875,0.08442500233650208,0.05719999969005585,0.07699999958276749
1772389335053085400,1.74708544921875,0.03753750026226044,0.028462499380111694,0.006599999964237213
1772389335073144300,1.767144287109375,0.03437500074505806,0.045512501150369644,-0.007149999961256981
1772389335093203200,1.787203125,0.0705375000834465,0.009349999949336052,-0.028462499380111694
1772389335113261800,1.80726171875,0.042899999767541885,-0.025849999859929085,-0.043449997901916504
1772389335133320700,1.82732080078125,0.0471624992787838,-0.013062499463558197,0.025849999859929085
1772389335153379300,1.84737939453125,0.040699999779462814,-0.02474999986588955,0.06311249732971191
1772389335173438200,1.867438232421875,0.010862499475479126,-0.027912499383091927,0.057750001549720764
1772389335193496800,1.887496826171875,0.01732499897480011,-0.01732499897480011,0.06943749636411667
1772389335213555700,1.9075556640625,0.015124999918043613,-0.030112499371170998,0.006599999964237213
1772389335233614300,1.9276142578125,0.004537499975413084,-0.03437500074505806,-0.047712501138448715
1772389335253673000,1.9476728515625,0.013062499463558197,0.010449999943375587,0.0056374999694526196
1772389335273731800,1.96773193359375,0.02474999986588955,0.015675000846385956,0.040699999779462814
1772389335293790500,1.98779052734375,-0.003987499978393316,0.0028874999843537807,0.048262499272823334
1772389335313849300,2.007849365234375,-0.0008249999955296516,0.038087498396635056,0.11852499842643738
1772389335333908000,2.027907958984375,0.013062499463558197,0.017875000834465027,0.13983750343322754
1772389335353966800,2.047966796875,0.0056374999694526196,-0.0193875003606081,0.06531249731779099
1772389335374025500,2.068025390625,0.008799999952316284,-0.025849999859929085,0.0002749999985098839
1772389335394084000,2.088083984375,0.021587500348687172,-0.05142499879002571,-0.023237500339746475
1772389335414142700,2.108142822265625,0.0193875003606081,-0.05142499879002571,-0.01677500084042549
1772389335434201600,2.12820166015625,0.023649999871850014,-0.048262499272823334,0.018424998968839645
1772389335454260500,2.148260498046875,-0.0019249999895691872,-0.05252499878406525,0.04922499880194664
1772389335474318800,2.16831884765625,-0.02213750034570694,-0.06531249731779099,0.06627500057220459
1772389335494377700,2.188377685546875,-0.017875000834465027,-0.05884999781847,0.0812624990940094
1772389335514436400,2.208436279296875,-0.006187499966472387,-0.08332499861717224,0.06104999780654907
1772389335534495200,2.2284951171875,-0.0008249999955296516,-0.06104999780654907,0.08442500233650208
1772389335554553600,2.2485537109375,0.006599999964237213,-0.040699999779462814,0.07590000331401825
1772389335574612500,2.268612548828125,-0.018837500363588333,-0.03437500074505806,0.035475000739097595
1772389335594671000,2.288671142578125,-0.02213750034570694,-0.011962499469518661,0.029012499377131462
1772389335614729700,2.308729736328125,0.0013749999925494194,0.005087499972432852,0.015124999918043613
1772389335634788400,2.328788330078125,0.006599999964237213,-0.014162499457597733,-0.023237500339746475
1772389335654847200,2.34884716796875,-0.006187499966472387,0.01251249946653843,-0.023237500339746475
1772389335674905600,2.368905517578125,0.006599999964237213,0.047712501138448715,0.029012499377131462
1772389335694964500,2.388964599609375,0.02694999985396862,0.023099999874830246,0.02694999985396862
1772389335715023000,2.409023193359375,0.01732499897480011,0.009349999949336052,0.004537499975413084
1772389335735081700,2.429081787109375,0.0056374999694526196,0.01677500084042549,0.002337499987334013
1772389335755140400,2.449140380859375,-0.0008249999955296516,0.003987499978393316,-0.009349999949336052
1772389335775199200,2.46919921875,0.004537499975413084,-0.0013749999925494194,0.0002749999985098839
1772389335795257600,2.489257568359375,0.008799999952316284,-0.0002749999985098839,0.014162499457597733
1772389335815316500,2.50931640625,0.002337499987334013,-0.01732499897480011,0.021587500348687172
1772389335835374800,2.529374755859375,0.0002749999985098839,0.01677500084042549,0.03863750025629997
1772389335855433500,2.54943359375,0.004537499975413084,0.02213750034570694,0.03217500075697899
1772389335875492400,2.569492431640625,-0.008249999955296516,-0.015124999918043613,-0.030662499368190765
1772389335895551000,2.589551025390625,-0.009349999949336052,-0.00989999994635582,-0.03492499887943268
1772389335915609600,2.609609619140625,-0.0147124994546175,-0.014162499457597733,-0.009349999949336052
1772389335935668000,2.62966796875,-0.013612499460577965,-0.022687500342726707,0.00989999994635582
1772389335955726800,2.649726806640625,-0.005087499972432852,-0.0034374999813735485,0.0364375002682209
1772389335975785200,2.66978515625,-0.005087499972432852,0.0019249999895691872,0.0364375002682209
1772389335995844000,2.689843994140625,-0.023099999874830246,-0.02474999986588955,0.008799999952316284
1772389336015902500,2.70990234375,-0.03162499889731407,-0.015124999918043613,0.00989999994635582
1772389336035961000,2.729961181640625,-0.0147124994546175,0.006187499966472387,0.04606249928474426
1772389336056019700,2.750019775390625,0.0002749999985098839,-0.0002749999985098839,0.027912499383091927
1772389336076078000,2.770078125,-0.006187499966472387,0.0008249999955296516,0.0034374999813735485
1772389336096137000,2.790136962890625,-0.018837500363588333,0.018837500363588333,-0.011412499472498894
1772389336116195300,2.8101953125,-0.007149999961256981,0.009349999949336052,-0.025299999862909317
1772389336136254000,2.83025390625,-0.0019249999895691872,-0.0056374999694526196,-0.035887498408555984
1772389336156312600,2.8503125,-0.01251249946653843,-0.018424998968839645,-0.028462499380111694
1772389336176371200,2.87037109375,-0.005087499972432852,-0.04399999976158142,-0.015675000846385956
1772389336196429800,2.890429931640625,-0.0008249999955296516,-0.07479999959468842,-0.003987499978393316
1772389336216488400,2.910488525390625,-0.013612499460577965,-0.08016250282526016,0.05348749831318855
1772389336236547000,2.930547119140625,-0.028462499380111694,-0.055687498301267624,0.12168750166893005
1772389336256605400,2.95060546875,-0.008249999955296516,-0.05142499879002571,0.10037499666213989
1772389336276664300,2.970664306640625,-0.015675000846385956,-0.08758749812841415,0.004537499975413084
1772389336296722700,2.99072265625,-0.02736249938607216,-0.06201250106096268,-0.025299999862909317
1772389336316781300,3.01078125,0.0034374999813735485,-0.05884999781847,-0.009349999949336052
1772389336336840000,3.03083984375,0.031212499365210533,-0.05678749829530716,0.006599999964237213
1772389336356898600,3.050898681640625,0.016224998980760574,-0.03753750026226044,0.030112499371170998
1772389336376957000,3.07095703125,-0.003987499978393316,-0.04399999976158142,0.016224998980760574
1772389336397015600,3.091015625,-0.015675000846385956,-0.016224998980760574,0.010862499475479126
1772389336417074200,3.11107421875,-0.005087499972432852,0.010449999943375587,0.0013749999925494194
1772389336437132500,3.131132568359375,-0.011412499472498894,-0.018424998968839645,-0.018975000828504562
1772389336457191200,3.151191162109375,-0.028462499380111694,-0.021587500348687172,-0.02213750034570694
1772389336477249800,3.171249755859375,-0.03162499889731407,-0.021587500348687172,-0.025299999862909317
1772389336497308400,3.191308349609375,-0.01251249946653843,-0.02474999986588955,-0.006187499966472387
1772389336517366800,3.21136669921875,-0.006187499966472387,-0.035475000739097595,0.00989999994635582
1772389336537425700,3.23142578125,-0.01993750035762787,-0.029012499377131462,0.021587500348687172
1772389336557484000,3.251484130859375,-0.01677500084042549,-0.042899999767541885,0.029012499377131462
1772389336577542400,3.27154248046875,-0.003987499978393316,-0.055687498301267624,0.021587500348687172
1772389336597601000,3.29160107421875,0.002337499987334013,-0.03863750025629997,0.0193875003606081
1772389336617659400,3.311659423828125,0.008799999952316284,-0.04399999976158142,-0.017875000834465027
1772389336637718300,3.33171826171875,-0.010449999943375587,-0.05252499878406525,-0.045512501150369644
1772389336657776600,3.351776611328125,0.002337499987334013,-0.03753750026226044,-0.026399999856948853
1772389336677835000,3.3718349609375,0.022687500342726707,-0.035475000739097595,-0.030662499368190765
1772389336697893600,3.3918935546875,0.0034374999813735485,-0.03753750026226044,-0.04977500066161156
1772389336717952000,3.411951904296875,0.0013749999925494194,-0.030112499371170998,-0.02213750034570694
1772389336738010600,3.4320107421875,-0.021037500351667404,-0.029012499377131462,-0.03492499887943268
1772389336758069200,3.4520693359375,-0.0147124994546175,-0.0013749999925494194,-0.03492499887943268
1772389336778127600,3.472127685546875,-0.006187499966472387,0.007149999961256981,-0.04867500066757202
1772389336798186200,3.492186279296875,-0.01251249946653843,0.008249999955296516,-0.0668250024318695
1772389336818244600,3.51224462890625,-0.0008249999955296516,0.0028874999843537807,-0.07961250096559525
1772389336838303200,3.53230322265625,-0.023099999874830246,0.026399999856948853,-0.055137500166893005
1772389336858361600,3.552361572265625,-0.007149999961256981,0.03272499889135361,0.002337499987334013
1772389336878420200,3.572420166015625,0.016224998980760574,-0.01732499897480011,-0.015675000846385956
1772389336898478600,3.592478515625,-0.0147124994546175,-0.033275000751018524,-0.0317624993622303
1772389336918537000,3.612536865234375,-0.01993750035762787,-0.06311249732971191,-0.02419999986886978
1772389336938595600,3.632595703125,-0.038087498396635056,-0.10889999568462372,-0.043449997901916504
1772389336958654000,3.652654052734375,-0.02956249937415123,-0.1163249984383583,-0.02213750034570694
1772389336978712300,3.67271240234375,-0.03382499888539314,-0.1461624950170517,-0.045512501150369644
1772389336998771000,3.69277099609375,-0.08181250095367432,-0.10573749989271164,-0.03272499889135361
1772389337018829600,3.71282958984375,-0.05197500064969063,-0.05678749829530716,0.023649999871850014
1772389337038887700,3.7328876953125,-0.05939999967813492,-0.04179999977350235,0.014162499457597733
1772389337058946300,3.7529462890625,-0.055137500166893005,-0.042899999767541885,-0.025299999862909317
1772389337079004700,3.773004638671875,-0.021037500351667404,-0.04179999977350235,-0.04235000163316727
1772389337099063300,3.793063232421875,-0.026399999856948853,-0.059950001537799835,-0.0742499977350235
1772389337119121700,3.81312158203125,-0.04441250115633011,-0.03863750025629997,-0.05939999967813492
1772389337139180000,3.833179931640625,-0.0008249999955296516,0.003987499978393316,0.014162499457597733
1772389337159238400,3.85323828125,-0.007149999961256981,0.0028874999843537807,0.0034374999813735485
1772389337179297000,3.873297119140625,-0.015675000846385956,0.0028874999843537807,-0.011412499472498894
1772389337199355400,3.89335546875,0.0056374999694526196,-0.002337499987334013,0.016224998980760574
1772389337219413800,3.913413818359375,0.0002749999985098839,-0.006599999964237213,0.0002749999985098839
1772389337239472400,3.933472412109375,-0.025299999862909317,-0.0364375002682209,-0.06366249918937683
1772389337259530800,3.95353076171875,-0.04661250114440918,-0.0471624992787838,-0.09129999577999115
1772389337279589400,3.97358935546875,-0.023099999874830246,0.003987499978393316,-0.017875000834465027
1772389337299647500,3.9936474609375,-0.011412499472498894,-0.006599999964237213,0.020487500354647636
1772389337319705900,4.013705810546875,-0.04661250114440918,-0.021587500348687172,0.0002749999985098839
1772389337339764500,4.033764404296875,-0.04867500066757202,0.017875000834465027,0.035475000739097595
1772389337359822800,4.05382275390625,-0.017875000834465027,0.01993750035762787,0.042899999767541885
1772389337379881200,4.073881103515625,-0.03162499889731407,-0.013062499463558197,-0.04124999791383743
1772389337399939600,4.093939697265625,-0.017875000834465027,0.0008249999955296516,-0.052937500178813934
1772389337419998200,4.113998291015625,0.0034374999813735485,-0.014162499457597733,-0.015675000846385956
1772389337440056600,4.134056640625,0.006599999964237213,-0.021587500348687172,0.03863750025629997
1772389337460114700,4.15411474609375,0.008799999952316284,-0.018424998968839645,0.08868750184774399
1772389337480173300,4.17417333984375,-0.007149999961256981,-0.0471624992787838,0.08758749812841415
1772389337500231700,4.194231689453125,-0.03918749839067459,-0.08236250281333923,0.0471624992787838
1772389337520290000,4.2142900390625,-0.025299999862909317,-0.06311249732971191,0.06311249732971191
1772389337540348700,4.2343486328125,-0.010449999943375587,-0.05458749830722809,0.048262499272823334
1772389337560406800,4.25440673828125,-0.02956249937415123,-0.05884999781847,0.008799999952316284
1772389337580465200,4.274465087890625,-0.026399999856948853,-0.011962499469518661,0.03437500074505806
1772389337600523800,4.294523681640625,-0.02213750034570694,0.006187499966472387,0.006599999964237213
1772389337620582100,4.31458203125,-0.026399999856948853,-0.013062499463558197,-0.038087498396635056
1772389337640640300,4.33464013671875,-0.018837500363588333,0.017875000834465027,-0.008249999955296516
1772389337660698600,4.35469873046875,-0.003987499978393316,0.02419999986886978,0.01732499897480011
1772389337680757200,4.37475732421875,-0.011412499472498894,-0.015124999918043613,-0.01677500084042549
1772389337700815400,4.3948154296875,-0.010449999943375587,-0.004537499975413084,0.0013749999925494194
1772389337720874000,4.4148740234375,-0.013612499460577965,0.01251249946653843,0.06201250106096268
1772389337740932400,4.434932373046875,-0.010449999943375587,0.003987499978393316,0.082225002348423
1772389337760990700,4.45499072265625,0.0013749999925494194,0.01993750035762787,0.05142499879002571
1772389337781049000,4.475049072265625,0.013062499463558197,0.008249999955296516,0.013062499463558197
1772389337801107500,4.495107421875,-0.010449999943375587,-0.007699999958276749,-0.008249999955296516
1772389337821165800,4.515165771484375,-0.011412499472498894,0.013612499460577965,0.01732499897480011
1772389337841224200,4.53522412109375,-0.013612499460577965,0.013612499460577965,0.048262499272823334
1772389337861282600,4.555282470703125,-0.013612499460577965,-0.0034374999813735485,0.059950001537799835
1772389337881340700,4.575340576171875,-0.030662499368190765,0.007149999961256981,0.050324998795986176
1772389337901399300,4.5953994140625,-0.04661250114440918,-0.011962499469518661,0.055687498301267624
1772389337921457700,4.615457763671875,-0.030662499368190765,-0.020487500354647636,0.05252499878406525
1772389337941515800,4.635515869140625,-0.028462499380111694,-0.01732499897480011,0.03437500074505806
1772389337961574100,4.65557421875,-0.02736249938607216,-0.022687500342726707,0.025849999859929085
1772389337981632500,4.675632568359375,-0.04661250114440918,-0.022687500342726707,0.027912499383091927
1772389338001691000,4.69569091796875,-0.0625625029206276,-0.0056374999694526196,0.06421250104904175
1772389338021749200,4.715749267578125,-0.04977500066161156,0.009349999949336052,0.09927500039339066
1772389338041807400,4.735807373046875,-0.017875000834465027,-0.01732499897480011,0.04606249928474426
1772389338061865700,4.75586572265625,-0.026399999856948853,-0.04399999976158142,-0.03272499889135361
1772389338081924400,4.77592431640625,-0.03918749839067459,-0.010862499475479126,-0.008249999955296516
1772389338101982500,4.795982421875,-0.007149999961256981,0.0668250024318695,0.05348749831318855
1772389338122040600,4.81604052734375,-0.007149999961256981,0.038087498396635056,-0.006187499966472387
1772389338142099200,4.83609912109375,-0.030662499368190765,0.008249999955296516,-0.045512501150369644
1772389338162157300,4.8561572265625,-0.030662499368190765,0.040150001645088196,0.018424998968839645
1772389338182215700,4.876215576171875,-0.010449999943375587,0.03918749839067459,0.06311249732971191
1772389338202274000,4.896274169921875,0.002337499987334013,0.007149999961256981,0.007699999958276749
1772389338222332200,4.916332275390625,0.013062499463558197,0.007149999961256981,-0.038087498396635056
1772389338242390800,4.936390869140625,-0.0028874999843537807,0.0028874999843537807,-0.03698749840259552
1772389338262449000,4.956448974609375,-0.0147124994546175,-0.0056374999694526196,-0.03382499888539314
1772389338282507300,4.97650732421875,0.014162499457597733,-0.0002749999985098839,0.002337499987334013
1772389338302565600,4.996565673828125,0.022687500342726707,0.0008249999955296516,0.015124999918043613
1772389338322623700,5.016623779296875,0.011962499469518661,-0.00989999994635582,0.018424998968839645
1772389338342682000,5.03668212890625,0.0002749999985098839,0.021037500351667404,0.035475000739097595
1772389338362740500,5.056740478515625,-0.0028874999843537807,0.018837500363588333,0.03217500075697899
1772389338382798800,5.076798828125,-0.005087499972432852,0.009349999949336052,0.00989999994635582
1772389338402857000,5.09685693359375,-0.003987499978393316,0.015675000846385956,0.010862499475479126
1772389338422915600,5.11691552734375,0.002337499987334013,0.02956249937415123,0.02694999985396862
1772389338442973700,5.1369736328125,0.01732499897480011,0.01993750035762787,0.0034374999813735485
1772389338463031800,5.15703173828125,0.007699999958276749,-0.0034374999813735485,-0.02213750034570694
1772389338483090200,5.177090087890625,-0.0019249999895691872,0.0028874999843537807,0.015124999918043613
1772389338503148500,5.1971484375,-0.0008249999955296516,0.017875000834465027,0.055687498301267624
1772389338523206700,5.21720654296875,0.0056374999694526196,-0.015124999918043613,0.04496249929070473
1772389338543265000,5.23726513671875,0.0034374999813735485,0.007149999961256981,0.04179999977350235
1772389338563323100,5.2573232421875,-0.0008249999955296516,0.008249999955296516,0.0193875003606081
1772389338583381500,5.277381591796875,-0.010449999943375587,-0.020487500354647636,-0.003987499978393316
1772389338603439900,5.29743994140625,-0.005087499972432852,0.0008249999955296516,0.015124999918043613
1772389338623498000,5.317498046875,-0.0019249999895691872,0.01677500084042549,0.05678749829530716
1772389338643556400,5.337556396484375,0.0034374999813735485,-0.014162499457597733,0.01732499897480011
1772389338663614700,5.35761474609375,-0.003987499978393316,-0.016224998980760574,-0.017875000834465027
1772389338683672800,5.3776728515625,0.006599999964237213,-0.016224998980760574,0.010862499475479126
1772389338703731000,5.39773095703125,-0.003987499978393316,-0.03753750026226044,-0.0008249999955296516
1772389338723789300,5.417789306640625,-0.023099999874830246,-0.030112499371170998,0.023649999871850014
1772389338743847400,5.437847412109375,-0.018837500363588333,-0.027912499383091927,0.06104999780654907
1772389338763905800,5.45790576171875,-0.0147124994546175,-0.04399999976158142,0.042899999767541885
1772389338783964200,5.477964111328125,-0.02419999986886978,-0.04922499880194664,0.029012499377131462
1772389338804022300,5.498022216796875,-0.026399999856948853,-0.04606249928474426,0.031212499365210533
1772389338824080400,5.518080322265625,-0.0147124994546175,-0.018424998968839645,0.06531249731779099
1772389338844138500,5.538138427734375,-0.0147124994546175,-0.01732499897480011,0.06627500057220459
1772389338864197000,5.558197021484375,-0.009349999949336052,-0.01732499897480011,0.023649999871850014
1772389338884255200,5.578255126953125,0.00989999994635582,-0.016224998980760574,0.004537499975413084
1772389338904313300,5.598313232421875,0.0056374999694526196,-0.0034374999813735485,-0.0019249999895691872
1772389338924371500,5.618371337890625,-0.0019249999895691872,0.008249999955296516,-0.007149999961256981
1772389338944429800,5.638429931640625,-0.0028874999843537807,0.023099999874830246,0.013062499463558197
1772389338964488000,5.658488037109375,-0.007149999961256981,0.03272499889135361,0.014162499457597733
1772389338984546300,5.67854638671875,0.0013749999925494194,-0.006599999964237213,-0.0019249999895691872
1772389339004604400,5.6986044921875,-0.0008249999955296516,-0.023649999871850014,-0.015675000846385956
1772389339024662500,5.71866259765625,-0.009349999949336052,-0.0002749999985098839,0.030112499371170998
1772389339044721000,5.738720947265625,-0.018837500363588333,-0.011962499469518661,0.048262499272823334
1772389339064779300,5.758779296875,-0.02419999986886978,-0.0364375002682209,0.030112499371170998
1772389339084837400,5.77883740234375,-0.01993750035762787,-0.042899999767541885,0.033275000751018524
1772389339104895500,5.7988955078125,-0.02956249937415123,-0.0705375000834465,0.0471624992787838
1772389339124953600,5.81895361328125,-0.043449997901916504,-0.029012499377131462,0.07906249910593033
1772389339145012000,5.839011962890625,-0.02736249938607216,0.0147124994546175,0.1120624989271164
1772389339165070000,5.859070068359375,-0.021037500351667404,-0.015124999918043613,0.07590000331401825
1772389339185128200,5.879128173828125,-0.017875000834465027,-0.011962499469518661,-0.009349999949336052
1772389339205186300,5.899186279296875,-0.003987499978393316,-0.03973750025033951,-0.05087500065565109
1772389339225244700,5.91924462890625,0.002337499987334013,-0.023649999871850014,-0.023237500339746475
1772389339245302800,5.939302734375,0.004537499975413084,0.005087499972432852,0.015124999918043613
1772389339265361000,5.95936083984375,-0.01251249946653843,0.0008249999955296516,0.011962499469518661
1772389339285419300,5.979419189453125,-0.01251249946653843,0.030662499368190765,0.023649999871850014
1772389339305477400,5.999477294921875,0.002337499987334013,0.03492499887943268,0.0002749999985098839
1772389339325535500,6.019535400390625,-0.005087499972432852,-0.0056374999694526196,-0.07644999772310257
1772389339345593600,6.039593505859375,-0.008249999955296516,0.011412499472498894,-0.05403750017285347
1772389339365651700,6.059651611328125,0.004537499975413084,0.060499999672174454,0.03217500075697899
1772389339385709800,6.079709716796875,0.0034374999813735485,0.04867500066757202,0.016224998980760574
1772389339405768200,6.099768310546875,-0.013612499460577965,0.038087498396635056,-0.03918749839067459
1772389339425826300,6.119826416015625,0.0002749999985098839,0.052937500178813934,-0.026399999856948853
1772389339445884400,6.139884521484375,0.0013749999925494194,0.045512501150369644,-0.03698749840259552
1772389339465942500,6.159942626953125,-0.0028874999843537807,0.04235000163316727,-0.03272499889135361
1772389339486000600,6.180000732421875,0.00989999994635582,0.047712501138448715,0.0056374999694526196
1772389339506058800,6.200058837890625,0.013062499463558197,0.03162499889731407,0.0034374999813735485
1772389339526117400,6.220117431640625,0.0034374999813735485,0.025299999862909317,-0.01251249946653843
1772389339546175200,6.24017529296875,0.0056374999694526196,0.017875000834465027,-0.025299999862909317
1772389339566233300,6.2602333984375,0.006599999964237213,-0.0034374999813735485,-0.03698749840259552
1772389339586291500,6.28029150390625,0.0056374999694526196,-0.020487500354647636,-0.02956249937415123
1772389339606349600,6.300349609375,-0.0008249999955296516,0.013612499460577965,-0.015675000846385956
1772389339626407700,6.32040771484375,-0.01251249946653843,0.021037500351667404,-0.0317624993622303
1772389339646466000,6.340466064453125,-0.013612499460577965,0.005087499972432852,-0.03698749840259552
1772389339666524200,6.360524169921875,0.0034374999813735485,0.0028874999843537807,-0.021037500351667404
1772389339686582300,6.380582275390625,-0.013612499460577965,-0.03217500075697899,-0.0317624993622303
1772389339706640400,6.400640380859375,-0.026399999856948853,-0.016224998980760574,0.013062499463558197
1772389339726698500,6.420698486328125,-0.0147124994546175,0.03272499889135361,0.08332499861717224
1772389339746756600,6.440756591796875,-0.010449999943375587,0.025299999862909317,0.031212499365210533
1772389339766814700,6.460814697265625,-0.01677500084042549,0.0008249999955296516,-0.07851249724626541
1772389339786872800,6.480872802734375,-0.011412499472498894,-0.0056374999694526196,-0.07851249724626541
1772389339806931000,6.500930908203125,-0.003987499978393316,0.0019249999895691872,0.0013749999925494194
1772389339826989300,6.5209892578125,0.0034374999813735485,0.04867500066757202,0.06847500056028366
1772389339847047200,6.541047119140625,0.00989999994635582,0.03162499889731407,0.03437500074505806
1772389339867105300,6.561105224609375,-0.009349999949336052,0.01251249946653843,-0.05719999969005585
1772389339887163400,6.581163330078125,-0.009349999949336052,0.02213750034570694,-0.04977500066161156
1772389339907221500,6.601221435546875,0.0034374999813735485,0.0028874999843537807,-0.023237500339746475
1772389339927279600,6.621279541015625,0.027912499383091927,0.005087499972432852,0.027912499383091927
1772389339947338000,6.641337890625,0.022687500342726707,-0.004537499975413084,0.040699999779462814
1772389339967396000,6.66139599609375,-0.02956249937415123,0.009349999949336052,0.006599999964237213
1772389339987454000,6.681453857421875,-0.04124999791383743,0.03698749840259552,0.06201250106096268
1772389340007512000,6.701511962890625,-0.018837500363588333,0.05719999969005585,0.10573749989271164
1772389340027570200,6.721570068359375,-0.007149999961256981,0.040150001645088196,0.06531249731779099
1772389340047628300,6.741628173828125,0.006599999964237213,-0.023649999871850014,-0.01251249946653843
1772389340067686100,6.76168603515625,0.011962499469518661,-0.035475000739097595,-0.0849749967455864
1772389340087744300,6.781744140625,-0.0028874999843537807,-0.0002749999985098839,-0.05403750017285347
1772389340107802600,6.801802734375,0.004537499975413084,0.04124999791383743,0.0471624992787838
1772389340127860700,6.82186083984375,0.0034374999813735485,0.03272499889135361,0.050324998795986176
1772389340147918800,6.8419189453125,-0.018837500363588333,-0.0013749999925494194,-0.0019249999895691872
1772389340167976700,6.861976806640625,-0.003987499978393316,-0.010862499475479126,0.027912499383091927
1772389340188034800,6.882034912109375,0.011962499469518661,-0.0056374999694526196,0.03973750025033951
1772389340208093000,6.902093017578125,-0.009349999949336052,0.010449999943375587,0.015124999918043613
1772389340228151000,6.922151123046875,-0.01993750035762787,0.04441250115633011,0.04179999977350235
1772389340248209200,6.942209228515625,0.0002749999985098839,0.045512501150369644,0.027912499383091927
1772389340268267000,6.96226708984375,0.004537499975413084,0.013612499460577965,-0.08703749626874924
1772389340288325400,6.982325439453125,-0.010449999943375587,0.017875000834465027,-0.09239999949932098
1772389340308383200,7.00238330078125,0.006599999964237213,0.03272499889135361,0.010862499475479126
1772389340328441300,7.02244140625,-0.0028874999843537807,0.01677500084042549,0.021587500348687172
1772389340348499500,7.04249951171875,-0.01993750035762787,-0.002337499987334013,0.0193875003606081
1772389340368557300,7.062557373046875,0.0013749999925494194,-0.006599999964237213,0.07590000331401825
1772389340388615400,7.082615478515625,0.03437500074505806,-0.004537499975413084,0.082225002348423
1772389340408673500,7.102673583984375,0.040699999779462814,-0.014162499457597733,0.030112499371170998
1772389340428731400,7.1227314453125,0.006599999964237213,-0.048262499272823334,-0.007149999961256981
1772389340448789500,7.14278955078125,-0.02419999986886978,-0.0695749968290329,0.01732499897480011
1772389340468847600,7.16284765625,-0.018837500363588333,-0.08758749812841415,0.057750001549720764
1772389340488905700,7.18290576171875,-0.011412499472498894,-0.09184999763965607,0.10999999940395355
1772389340508963600,7.202963623046875,-0.030662499368190765,-0.09404999762773514,0.11316250264644623
1772389340529021700,7.223021728515625,-0.060499999672174454,-0.10779999941587448,0.06311249732971191
1772389340549079800,7.243079833984375,-0.04235000163316727,-0.1344749927520752,0.027912499383091927
1772389340569137700,7.2631376953125,-0.02956249937415123,-0.15798750519752502,0.0034374999813735485
1772389340589195800,7.28319580078125,-0.026399999856948853,-0.16005000472068787,0.014162499457597733
1772389340609254000,7.30325390625,-0.003987499978393316,-0.12388750165700912,0.055687498301267624
1772389340629311700,7.323311767578125,0.0002749999985098839,-0.08648750185966492,0.050324998795986176
1772389340649369900,7.343369873046875,0.0034374999813735485,-0.07809999585151672,0.0034374999813735485
1772389340669427700,7.363427734375,0.013062499463558197,-0.0471624992787838,-0.010449999943375587
1772389340689485800,7.38348583984375,0.004537499975413084,-0.059950001537799835,-0.025299999862909317
1772389340709543700,7.403543701171875,0.01732499897480011,-0.05678749829530716,-0.03382499888539314
1772389340729601800,7.423601806640625,0.031212499365210533,-0.029012499377131462,-0.035887498408555984
1772389340749659600,7.44365966796875,-0.0028874999843537807,0.005087499972432852,-0.04867500066757202
1772389340769717800,7.4637177734375,-0.01251249946653843,0.01251249946653843,-0.026399999856948853
1772389340789776000,7.48377587890625,0.010862499475479126,0.02213750034570694,-0.011412499472498894
1772389340809834000,7.503833984375,0.004537499975413084,0.011412499472498894,-0.0625625029206276
1772389340829891800,7.523891845703125,-0.008249999955296516,0.015675000846385956,-0.08277499675750732
1772389340849950000,7.543949951171875,0.016224998980760574,0.05197500064969063,-0.03698749840259552
1772389340870007800,7.5640078125,0.016224998980760574,0.040150001645088196,-0.03382499888539314
1772389340890066000,7.58406591796875,-0.010449999943375587,0.003987499978393316,-0.07535000145435333
1772389340910123800,7.604123779296875,-0.02736249938607216,0.02736249938607216,-0.03272499889135361
1772389340930182000,7.624181884765625,-0.0019249999895691872,0.05829999968409538,0.033275000751018524
1772389340950240000,7.644239990234375,0.004537499975413084,0.021037500351667404,-0.021037500351667404
1772389340970297600,7.664297607421875,-0.02213750034570694,0.011412499472498894,-0.05197500064969063
1772389340990355700,7.684355712890625,-0.015675000846385956,0.05197500064969063,0.016224998980760574
1772389341010413800,7.704413818359375,-0.005087499972432852,0.025299999862909317,0.002337499987334013
1772389341030472000,7.724471923828125,-0.0019249999895691872,0.008249999955296516,-0.04977500066161156
1772389341050529500,7.744529541015625,-0.003987499978393316,0.01677500084042549,-0.021037500351667404
1772389341070587600,7.764587646484375,-0.006187499966472387,0.025299999862909317,0.030112499371170998
1772389341090645500,7.7846455078125,-0.01677500084042549,0.01993750035762787,-0.010449999943375587
1772389341110703600,7.80470361328125,-0.02736249938607216,0.013612499460577965,-0.008249999955296516
1772389341130761500,7.824761474609375,-0.005087499972432852,0.03382499888539314,0.04496249929070473
1772389341150819600,7.844819580078125,0.004537499975413084,0.01251249946653843,0.006599999964237213
1772389341170877400,7.86487744140625,-0.013612499460577965,-0.020487500354647636,-0.045512501150369644
1772389341190935300,7.884935302734375,-0.010449999943375587,-0.018424998968839645,-0.005087499972432852
1772389341210993400,7.904993408203125,0.010862499475479126,-0.008799999952316284,0.05142499879002571
1772389341231051000,7.925051025390625,0.006599999964237213,-0.022687500342726707,0.057750001549720764
1772389341251109000,7.945109130859375,-0.003987499978393316,-0.014162499457597733,0.08442500233650208
1772389341271167000,7.9651669921875,-0.003987499978393316,-0.018424998968839645,0.06627500057220459
1772389341291225000,7.98522509765625,0.016224998980760574,-0.050324998795986176,0.0364375002682209
1772389341311283000,8.005282958984376,0.02694999985396862,-0.05678749829530716,0.04606249928474426
1772389341331340800,8.0253408203125,0.004537499975413084,-0.05458749830722809,0.06627500057220459
1772389341351398700,8.045398681640625,-0.010449999943375587,-0.04922499880194664,0.05458749830722809
1772389341371456800,8.065456787109374,-0.005087499972432852,-0.04606249928474426,0.03437500074505806
1772389341391514600,8.0855146484375,0.0056374999694526196,-0.04922499880194664,0.022687500342726707
1772389341411572500,8.105572509765626,0.004537499975413084,-0.0705375000834465,-0.0147124994546175
1772389341431630600,8.125630615234375,-0.005087499972432852,-0.06737499684095383,-0.023237500339746475
1772389341451688200,8.145688232421875,-0.025299999862909317,-0.05142499879002571,0.011962499469518661
1772389341471746000,8.16574609375,-0.023099999874830246,-0.004537499975413084,0.05252499878406525
1772389341491804200,8.18580419921875,-0.010449999943375587,0.005087499972432852,0.03437500074505806
1772389341511862000,8.205862060546876,-0.018837500363588333,-0.02694999985396862,-0.013612499460577965
1772389341531920000,8.225919921875,-0.03272499889135361,-0.029012499377131462,-0.02213750034570694
1772389341551977700,8.245977783203125,-0.02736249938607216,-0.006599999964237213,0.014162499457597733
1772389341572035600,8.26603564453125,-0.01677500084042549,0.003987499978393316,0.06627500057220459
1772389341592093400,8.286093505859375,0.006599999964237213,0.028462499380111694,0.05458749830722809
1772389341612151300,8.3061513671875,-0.011412499472498894,-0.0056374999694526196,-0.03918749839067459
1772389341632209200,8.326209228515625,-0.015675000846385956,-0.0034374999813735485,-0.05939999967813492
1772389341652267000,8.34626708984375,0.021587500348687172,0.03382499888539314,-0.005087499972432852
1772389341672324900,8.366324951171874,0.02474999986588955,-0.0002749999985098839,-0.023237500339746475
1772389341692382700,8.3863828125,0.010862499475479126,-0.00989999994635582,-0.0317624993622303
1772389341712440600,8.406440673828126,0.033275000751018524,-0.018424998968839645,-0.006187499966472387
1772389341732498700,8.426498779296875,0.0193875003606081,-0.040699999779462814,-0.026399999856948853
1772389341752556500,8.446556640625,-0.013612499460577965,-0.0002749999985098839,0.0034374999813735485
1772389341772614400,8.466614501953124,-0.010449999943375587,0.04124999791383743,0.040699999779462814
1772389341792672300,8.48667236328125,-0.013612499460577965,-0.0002749999985098839,0.0002749999985098839
1772389341812730000,8.506730224609376,-0.010449999943375587,-0.0056374999694526196,-0.0028874999843537807
1772389341832788000,8.5267880859375,0.011962499469518661,0.0028874999843537807,0.03217500075697899
1772389341852845800,8.546845703125,-0.01993750035762787,-0.022687500342726707,-0.010449999943375587
1772389341872903700,8.566903564453124,-0.02956249937415123,0.006187499966472387,0.011962499469518661
1772389341892961500,8.58696142578125,-0.006187499966472387,0.03492499887943268,0.04399999976158142
1772389341913019400,8.607019287109376,-0.008249999955296516,-0.016224998980760574,-0.015675000846385956
1772389341933077200,8.6270771484375,-0.009349999949336052,-0.02694999985396862,-0.01993750035762787
1772389341953135000,8.647135009765625,-0.01251249946653843,0.007149999961256981,0.031212499365210533
1772389341973193000,8.66719287109375,-0.009349999949336052,-0.018424998968839645,0.03217500075697899
1772389341993250800,8.687250732421875,-0.030662499368190765,-0.05348749831318855,-0.017875000834465027
1772389342013308700,8.70730859375,-0.018837500363588333,-0.03753750026226044,0.004537499975413084
1772389342033366500,8.727366455078124,-0.003987499978393316,-0.03753750026226044,0.03217500075697899
1772389342053424400,8.74742431640625,-0.01251249946653843,-0.042899999767541885,0.014162499457597733
1772389342073482200,8.767482177734376,-0.0147124994546175,-0.0364375002682209,0.025849999859929085
1772389342093540000,8.7875400390625,-0.018837500363588333,-0.04606249928474426,-0.0019249999895691872
1772389342113598000,8.807597900390626,-0.008249999955296516,-0.08442500233650208,-0.04977500066161156
1772389342133655800,8.82765576171875,0.014162499457597733,-0.08016250282526016,-0.021037500351667404
1772389342153713700,8.847713623046875,0.0193875003606081,-0.06531249731779099,0.016224998980760574
1772389342173771300,8.867771240234376,-0.018837500363588333,-0.08758749812841415,-0.02956249937415123
1772389342193829000,8.8878291015625,-0.040150001645088196,-0.0812624990940094,-0.01677500084042549
1772389342213887000,8.907886962890625,-0.009349999949336052,-0.048262499272823334,0.06104999780654907
1772389342233944600,8.927944580078124,-0.011412499472498894,-0.07906249910593033,0.04496249929070473
1772389342254002400,8.94800244140625,-0.02419999986886978,-0.06531249731779099,0.04496249929070473
1772389342274060300,8.968060302734376,0.01732499897480011,-0.00989999994635582,0.0929500013589859
1772389342294118100,8.9881181640625,-0.0019249999895691872,-0.05142499879002571,-0.015675000846385956
1772389342314176000,9.008176025390625,-0.01251249946653843,-0.031212499365210533,-0.06902500241994858
1772389342334233900,9.02823388671875,0.016224998980760574,-0.002337499987334013,-0.01993750035762787
1772389342354291500,9.04829150390625,0.014162499457597733,-0.030112499371170998,-0.01251249946653843
1772389342374349300,9.068349365234376,-0.005087499972432852,-0.021587500348687172,0.0002749999985098839
1772389342394407200,9.0884072265625,0.0056374999694526196,-0.015124999918043613,0.04399999976158142
1772389342414465000,9.108465087890625,-0.008249999955296516,-0.05348749831318855,0.035475000739097595
1772389342434523000,9.12852294921875,-0.01993750035762787,-0.04399999976158142,0.048262499272823334
1772389342454580500,9.14858056640625,-0.01677500084042549,-0.021587500348687172,0.04922499880194664
1772389342474638300,9.168638427734376,-0.03382499888539314,-0.05678749829530716,-0.01677500084042549
1772389342494696200,9.1886962890625,-0.04235000163316727,-0.0705375000834465,-0.045512501150369644
1772389342514754000,9.208754150390625,-0.018837500363588333,-0.04496249929070473,0.0056374999694526196
1772389342534811600,9.228811767578126,-0.026399999856948853,-0.05252499878406525,0.04922499880194664
1772389342554869500,9.248869384765625,-0.017875000834465027,-0.03973750025033951,0.05458749830722809
1772389342574927400,9.26892724609375,-0.018837500363588333,-0.018424998968839645,0.025849999859929085
1772389342594985200,9.288985107421874,-0.03162499889731407,-0.0193875003606081,-0.01251249946653843
1772389342615042600,9.30904248046875,-0.02736249938607216,-0.015124999918043613,-0.0147124994546175
1772389342635100400,9.329100341796876,-0.01677500084042549,0.009349999949336052,-0.018975000828504562
1772389342655158300,9.349158203125,-0.006187499966472387,0.015675000846385956,-0.026399999856948853
1772389342675216100,9.369216064453125,0.00989999994635582,0.025299999862909317,0.004537499975413084
1772389342695273700,9.389273681640624,0.0056374999694526196,0.03272499889135361,-0.011412499472498894
1772389342715331600,9.40933154296875,0.0002749999985098839,0.018837500363588333,-0.06366249918937683
1772389342735389200,9.42938916015625,0.014162499457597733,0.0028874999843537807,-0.04441250115633011
1772389342755447000,9.449447021484374,0.018424998968839645,0.026399999856948853,0.0013749999925494194
1772389342775504600,9.469504638671875,0.0056374999694526196,0.025299999862909317,0.0056374999694526196
1772389342795562500,9.4895625,0.0034374999813735485,0.01251249946653843,0.0013749999925494194
1772389342815620400,9.509620361328125,-0.008249999955296516,0.003987499978393316,-0.023237500339746475
1772389342835678000,9.529677978515625,-0.0019249999895691872,-0.030112499371170998,0.004537499975413084
1772389342855735800,9.54973583984375,0.008799999952316284,-0.03753750026226044,0.040699999779462814
1772389342875793700,9.569793701171875,-0.008249999955296516,-0.06737499684095383,0.03753750026226044
1772389342895851300,9.589851318359376,-0.023099999874830246,-0.08016250282526016,0.048262499272823334
1772389342915908900,9.609908935546875,-0.0019249999895691872,-0.057750001549720764,0.05884999781847
1772389342935966500,9.629966552734375,0.0002749999985098839,-0.07479999959468842,0.014162499457597733
1772389342956024300,9.6500244140625,-0.01251249946653843,-0.07906249910593033,-0.011412499472498894
1772389342976082200,9.670082275390625,-0.013612499460577965,-0.033275000751018524,0.033275000751018524
1772389342996139800,9.690139892578125,-0.025299999862909317,-0.023649999871850014,0.04922499880194664
1772389343016197600,9.71019775390625,-0.02736249938607216,-0.015124999918043613,0.03753750026226044
1772389343036255200,9.730255126953125,-0.006187499966472387,0.0008249999955296516,0.025849999859929085
1772389343056313000,9.75031298828125,-0.008249999955296516,-0.014162499457597733,0.00989999994635582
1772389343076370700,9.77037060546875,-0.010449999943375587,0.013612499460577965,0.01732499897480011
1772389343096428300,9.79042822265625,-0.01251249946653843,0.047712501138448715,0.016224998980760574
1772389343116486100,9.810486083984374,-0.023099999874830246,0.04867500066757202,-0.003987499978393316
1772389343136543700,9.830543701171875,-0.025299999862909317,0.04235000163316727,0.015124999918043613
1772389343156601600,9.8506015625,-0.0008249999955296516,0.05197500064969063,0.06104999780654907
1772389343176659200,9.8706591796875,-0.008249999955296516,0.008249999955296516,0.00989999994635582
1772389343196717000,9.890717041015625,-0.04867500066757202,-0.013062499463558197,-0.01677500084042549
1772389343216774700,9.910774658203126,-0.047712501138448715,0.009349999949336052,0.057750001549720764
1772389343236832300,9.930832275390625,-0.03272499889135361,0.017875000834465027,0.07369999587535858
1772389343256890000,9.95089013671875,-0.05197500064969063,-0.020487500354647636,-0.008249999955296516
1772389343276947700,9.97094775390625,-0.06366249918937683,-0.029012499377131462,-0.028462499380111694
1772389343297005600,9.991005615234375,-0.04124999791383743,-0.01732499897480011,-0.021037500351667404
1772389343317063200,10.011063232421876,-0.03162499889731407,-0.03973750025033951,-0.03492499887943268
1772389343337120800,10.031120849609374,-0.0625625029206276,-0.04179999977350235,-0.03918749839067459
1772389343357178600,10.0511787109375,-0.055137500166893005,-0.0056374999694526196,0.008799999952316284
1772389343377236000,10.071236083984376,-0.04124999791383743,-0.014162499457597733,0.048262499272823334
1772389343397293800,10.0912939453125,-0.038087498396635056,-0.008799999952316284,0.01732499897480011
1772389343417351400,10.111351318359375,-0.011412499472498894,0.021037500351667404,0.02474999986588955
1772389343437409300,10.1314091796875,0.0034374999813735485,0.013612499460577965,-0.0019249999895691872
1772389343457467000,10.151466796875,-0.003987499978393316,0.011412499472498894,-0.04124999791383743
1772389343477524500,10.1715244140625,-0.0008249999955296516,0.025299999862909317,-0.01251249946653843
1772389343497582000,10.19158203125,0.007699999958276749,0.028462499380111694,0.016224998980760574
1772389343517640000,10.211639892578125,-0.003987499978393316,0.003987499978393316,0.03753750026226044
1772389343537697500,10.231697509765626,0.0056374999694526196,-0.004537499975413084,0.05458749830722809
1772389343557755400,10.25175537109375,-0.013612499460577965,-0.02694999985396862,0.06201250106096268
1772389343577813000,10.27181298828125,-0.015675000846385956,-0.03973750025033951,0.07273750007152557
1772389343597870600,10.29187060546875,-0.006187499966472387,-0.030112499371170998,0.09075000137090683
1772389343617928400,10.311928466796875,-0.017875000834465027,-0.025849999859929085,0.03753750026226044
1772389343637985800,10.33198583984375,-0.04441250115633011,-0.057750001549720764,-0.0028874999843537807
1772389343658043400,10.35204345703125,-0.02213750034570694,-0.002337499987334013,0.029012499377131462
1772389343678101200,10.372101318359375,-0.026399999856948853,-0.002337499987334013,0.035475000739097595
1772389343698158800,10.392158935546876,-0.06572499871253967,-0.014162499457597733,0.04399999976158142
1772389343718216700,10.412216796875,-0.025299999862909317,0.03382499888539314,0.13557499647140503
1772389343738274300,10.4322744140625,-0.0028874999843537807,0.03918749839067459,0.15468749403953552
1772389343758332000,10.452331787109374,-0.01251249946653843,-0.0013749999925494194,0.03973750025033951
1772389343778389500,10.472389404296875,0.007699999958276749,0.0019249999895691872,-0.026399999856948853
1772389343798447000,10.492447021484375,0.033275000751018524,0.01677500084042549,-0.04441250115633011
1772389343818504700,10.512504638671874,0.007699999958276749,0.021037500351667404,-0.04977500066161156
1772389343838562600,10.5325625,-0.008249999955296516,-0.0034374999813735485,-0.01677500084042549
1772389343858620200,10.5526201171875,-0.0028874999843537807,-0.021587500348687172,0.010862499475479126
1772389343878677800,10.572677734375,0.014162499457597733,-0.025849999859929085,0.0364375002682209
1772389343898735400,10.5927353515625,0.0013749999925494194,-0.011962499469518661,0.06943749636411667
1772389343918793000,10.61279296875,-0.005087499972432852,-0.021587500348687172,0.05348749831318855
1772389343938850600,10.6328505859375,-0.008249999955296516,-0.03437500074505806,0.025849999859929085
1772389343958908200,10.652908203125,-0.017875000834465027,-0.00989999994635582,0.04179999977350235
1772389343978966000,10.672966064453124,0.0002749999985098839,-0.01732499897480011,0.040699999779462814
1772389343999023600,10.693023681640625,0.010862499475479126,-0.025849999859929085,0.05252499878406525
1772389344019081000,10.7130810546875,0.006599999964237213,0.007149999961256981,0.07369999587535858
1772389344039138600,10.733138671875,0.0056374999694526196,-0.007699999958276749,0.031212499365210533
1772389344059196400,10.753196533203125,-0.011412499472498894,-0.031212499365210533,-0.013612499460577965
1772389344079253800,10.773253662109376,-0.010449999943375587,-0.010862499475479126,0.006599999964237213
1772389344099311600,10.7933115234375,0.002337499987334013,0.006187499966472387,0.07796250283718109
1772389344119369000,10.813368896484375,0.0002749999985098839,-0.010862499475479126,0.020487500354647636
1772389344139426800,10.8334267578125,0.004537499975413084,-0.00989999994635582,-0.023237500339746475
1772389344159484400,10.853484375,-0.003987499978393316,0.013612499460577965,0.006599999964237213
1772389344179542000,10.8735419921875,0.0013749999925494194,0.01251249946653843,-0.006187499966472387
1772389344199599400,10.893599365234374,0.002337499987334013,0.006187499966472387,0.0034374999813735485
1772389344219657000,10.913656982421875,0.0002749999985098839,0.026399999856948853,0.04179999977350235
1772389344239714800,10.93371484375,0.002337499987334013,-0.004537499975413084,-0.009349999949336052
1772389344259772400,10.9537724609375,-0.003987499978393316,-0.023649999871850014,0.014162499457597733
1772389344279830000,10.973830078125,-0.025299999862909317,-0.02474999986588955,0.06201250106096268
1772389344299887400,10.993887451171876,-0.026399999856948853,-0.011962499469518661,0.15895000100135803
1772389344319945200,11.0139453125,-0.03382499888539314,-0.07809999585151672,0.3123999834060669
1772389344340001500,11.03400146484375,0.010862499475479126,-0.0812624990940094,0.2143625020980835
1772389344360060400,11.054060302734374,-0.06792499870061874,-0.11426249891519547,0.20473749935626984
1772389344380118000,11.074117919921875,-0.07851249724626541,-0.04496249929070473,0.17916250228881836
1772389344400175400,11.09417529296875,-0.08607500046491623,-0.035475000739097595,0.0705375000834465
1772389344420233000,11.11423291015625,-0.05087500065565109,-0.023649999871850014,-0.07535000145435333
