time,seconds_elapsed,z,y,x
1772593662003095000,0.223094970703125,0.05491161346435547,-0.07471609115600586,0.045098304748535156
1772593662023389000,0.243388916015625,0.12074899673461914,-0.15617895126342773,0.0967106819152832
1772593662043653000,0.263653076171875,0.13648509979248047,-0.17795419692993164,0.11014795303344727
1772593662063916000,0.283916015625,0.1286015510559082,-0.1680927276611328,0.10441303253173828
1772593662084180000,0.304179931640625,0.1257176399230957,-0.16455602645874023,0.10274362564086914
1772593662104444000,0.32444384765625,0.11783790588378906,-0.15507078170776367,0.09707260131835938
1772593662124707000,0.34470703125,0.0988302230834961,-0.1311640739440918,0.08168220520019531
1772593662144971000,0.364970947265625,0.0970916748046875,-0.12882518768310547,0.08001136779785156
1772593662165235000,0.38523486328125,0.0847158432006836,-0.11297273635864258,0.06990623474121094
1772593662185498000,0.405498046875,0.07661819458007812,-0.10362577438354492,0.06379032135009766
1772593662205762000,0.425761962890625,0.1046295166015625,-0.13844060897827148,0.08577919006347656
1772593662226026000,0.44602587890625,0.07865762710571289,-0.10453176498413086,0.06334686279296875
1772593662246289000,0.466288818359375,0.04896879196166992,-0.06521892547607422,0.03864574432373047
1772593662266553000,0.486552978515625,-0.051724910736083984,0.06790637969970703,-0.03914642333984375
1772593662286817000,0.506817138671875,-0.22747039794921875,0.2975502014160156,-0.1684572696685791
1772593662307081000,0.5270810546875,-0.49425601959228516,0.6973633766174316,-0.3874027729034424
1772593662327344000,0.54734423828125,-0.7193045616149902,1.1068968772888184,-0.6032345294952393
1772593662347608000,0.567608154296875,-0.8947503566741943,1.4684524536132812,-0.784191370010376
1772593662367872000,0.5878720703125,-0.9282259941101074,1.6980957984924316,-0.8804059028625488
1772593662388135000,0.608135009765625,-0.6871170997619629,1.5032110214233398,-0.7226908206939697
1772593662408399000,0.628399169921875,-0.33235907554626465,0.9422369003295898,-0.4229140281677246
1772593662428663000,0.6486630859375,-0.060094594955444336,0.22225475311279297,-0.09869933128356934
1772593662448926000,0.668926025390625,0.08970487117767334,-0.4315910339355469,0.1933765411376953
1772593662469190000,0.68918994140625,0.15539145469665527,-0.9781160354614258,0.4594392776489258
1772593662489454000,0.7094541015625,0.19751226902008057,-1.5501022338867188,0.759394645690918
1772593662509717000,0.729717041015625,0.29132091999053955,-2.1589698791503906,1.0972180366516113
1772593662529981000,0.74998095703125,0.3905233144760132,-2.7631187438964844,1.4504642486572266
1772593662550245000,0.7702451171875,0.4527757167816162,-3.355592727661133,1.813136100769043
1772593662570508000,0.790508056640625,0.46753180027008057,-3.741983413696289,2.0852932929992676
1772593662590772000,0.81077197265625,0.3791532516479492,-3.6178855895996094,2.1297922134399414
1772593662611036000,0.831035888671875,0.2905149459838867,-3.1182308197021484,1.9247593879699707
1772593662631299000,0.851299072265625,0.2285897135734558,-2.608316421508789,1.6707024574279785
1772593662651563000,0.87156298828125,0.17670965194702148,-2.201719284057617,1.425187110900879
1772593662671827000,0.891826904296875,0.1552060842514038,-2.019315719604492,1.2647051811218262
1772593662692090000,0.912090087890625,0.13397103548049927,-1.8274402618408203,1.1047630310058594
1772593662712354000,0.93235400390625,0.11297476291656494,-1.625889778137207,0.9457817077636719
1772593662732618000,0.952617919921875,0.09268295764923096,-1.4160566329956055,0.789848804473877
1772593662752881000,0.972880859375,0.07410341501235962,-1.2044620513916016,0.6419763565063477
1772593662773145000,0.99314501953125,0.06585484743118286,-1.0071296691894531,0.5111041069030762
1772593662793409000,1.013408935546875,0.0631941556930542,-0.885584831237793,0.42369556427001953
1772593662813672000,1.033671875,0.06230360269546509,-0.809112548828125,0.3733201026916504
1772593662833936000,1.053935791015625,0.053348422050476074,-0.724705696105957,0.3225412368774414
1772593662854200000,1.074199951171875,0.041806817054748535,-0.6014261245727539,0.2651028633117676
1772593662874463000,1.094462890625,0.02702772617340088,-0.4752378463745117,0.20786142349243164
1772593662894727000,1.114726806640625,0.012533903121948242,-0.3517646789550781,0.1524953842163086
1772593662914991000,1.1349912109375,0.00186079740524292,-0.12999629974365234,0.05512094497680664
1772593662935254000,1.15525390625,0.0006715655326843262,0.09087944030761719,-0.03762006759643555
1772593662955518000,1.17551806640625,0.012603521347045898,0.4249429702758789,-0.16976237297058105
1772593662975782000,1.195781982421875,0.04078426957130432,0.770503044128418,-0.29563307762145996
1772593662996045000,1.216045166015625,0.08726948499679565,1.2649297714233398,-0.4727602005004883
1772593663016309000,1.23630908203125,0.15251076221466064,1.759474754333496,-0.6386001110076904
1772593663036573000,1.256572998046875,0.22034281492233276,2.087946891784668,-0.7869582176208496
1772593663056836000,1.276836181640625,0.2757420539855957,2.062835216522217,-0.8703043460845947
1772593663077100000,1.29710009765625,0.2951401472091675,1.665452480316162,-0.8560504913330078
1772593663097364000,1.317364013671875,0.2363114356994629,1.0827436447143555,-0.6770792007446289
1772593663117627000,1.337626953125,0.10571205615997314,0.41487789154052734,-0.3053889274597168
1772593663137891000,1.35789111328125,-0.04083609580993652,-0.14168977737426758,0.11565923690795898
1772593663158155000,1.378155029296875,-0.24199962615966797,-0.7801227569580078,0.6744003295898438
1772593663178418000,1.39841796875,-0.3586618900299072,-1.2436347007751465,1.0881214141845703
1772593663198682000,1.41868212890625,-0.4155285358428955,-1.5986900329589844,1.3762850761413574
1772593663218946000,1.438946044921875,-0.43074488639831543,-1.8044672012329102,1.5332880020141602
1772593663239209000,1.459208984375,-0.387967586517334,-1.7438640594482422,1.4287304878234863
1772593663259473000,1.479472900390625,-0.27032172679901123,-1.4129877090454102,1.0771303176879883
1772593663279737000,1.499737060546875,-0.1309826374053955,-0.9965190887451172,0.6581296920776367
1772593663300000000,1.52,-0.038483262062072754,-0.6165742874145508,0.32625389099121094
1772593663320264000,1.540263916015625,-0.002253066748380661,-0.37764930725097656,0.1506052017211914
1772593663340528000,1.560528076171875,0.013866603374481201,-0.29659175872802734,0.08699917793273926
1772593663360791000,1.580791015625,0.019695937633514404,-0.22113990783691406,0.04555845260620117
1772593663381055000,1.601054931640625,0.010444998741149902,-0.10798168182373047,0.017040729522705078
1772593663401319000,1.62131884765625,0.0047332048416137695,-0.049073219299316406,0.006520628929138184
1772593663421582000,1.64158203125,0.019538521766662598,-0.18800067901611328,0.023702144622802734
1772593663441846000,1.661845947265625,0.04974162578582764,-0.45548439025878906,0.06033587455749512
1772593663462110000,1.68210986328125,0.07517874240875244,-0.7138643264770508,0.10470986366271973
1772593663482373000,1.702373046875,0.0645073652267456,-0.6880054473876953,0.11312365531921387
1772593663502637000,1.722636962890625,0.04455244541168213,-0.5332250595092773,0.0984499454498291
1772593663522901000,1.74290087890625,0.026691436767578125,-0.3196430206298828,0.06591343879699707
1772593663543164000,1.763163818359375,0.009656548500061035,-0.11551284790039062,0.026316404342651367
1772593663563428000,1.783427978515625,-0.00588071346282959,0.0722951889038086,-0.0180056095123291
1772593663583692000,1.803692138671875,-0.011292636394500732,0.1458759307861328,-0.03779292106628418
1772593663603956000,1.8239560546875,-0.0036745071411132812,0.05164813995361328,-0.013632059097290039
1772593663624219000,1.844218994140625,0.0028923749923706055,-0.052308082580566406,0.014173746109008789
1772593663644483000,1.864483154296875,0.006779730319976807,-0.16843318939208984,0.04679727554321289
1772593663664747000,1.8847470703125,0.008580207824707031,-0.31546592712402344,0.09242415428161621
1772593663685010000,1.905010009765625,0.013325497508049011,-0.5602788925170898,0.17581820487976074
1772593663705274000,1.925274169921875,0.019272953271865845,-0.9304876327514648,0.32029008865356445
1772593663725538000,1.9455380859375,0.012957260012626648,-1.3348979949951172,0.5088143348693848
1772593663745801000,1.965801025390625,-0.0010205386206507683,-1.7202014923095703,0.7025513648986816
1772593663766065000,1.98606494140625,-0.002076682634651661,-2.1295061111450195,0.8980727195739746
1772593663786329000,2.0063291015625,-0.001216965727508068,-2.493000030517578,1.0534932613372803
1772593663806592000,2.026592041015625,0.016928240656852722,-2.742055892944336,1.141592025756836
1772593663826856000,2.04685595703125,0.03776255249977112,-2.85427188873291,1.1572208404541016
1772593663847120000,2.067119873046875,0.05864429473876953,-2.8502883911132812,1.1141605377197266
1772593663867383000,2.087383056640625,0.07547086477279663,-2.742879867553711,1.0202317237854004
1772593663887647000,2.10764697265625,0.06847301125526428,-2.5377464294433594,0.8835992813110352
1772593663907911000,2.127910888671875,0.040264129638671875,-2.146495819091797,0.6798603534698486
1772593663928174000,2.148174072265625,0.031798988580703735,-1.7392854690551758,0.4804258346557617
1772593663948438000,2.16843798828125,0.0363917350769043,-1.4152460098266602,0.33925962448120117
1772593663968702000,2.188701904296875,0.03472501039505005,-1.0250139236450195,0.20937740802764893
1772593663988965000,2.208965087890625,0.022790342569351196,-0.5380916595458984,0.09765875339508057
1772593664009229000,2.22922900390625,-0.0013934969902038574,0.031531333923339844,-0.005125641822814941
1772593664029493000,2.249492919921875,-0.02550429105758667,0.5673389434814453,-0.08049392700195312
1772593664049756000,2.269755859375,-0.03541401028633118,1.0039339065551758,-0.12719571590423584
1772593664070020000,2.29002001953125,-0.034629106521606445,1.4282951354980469,-0.15640604496002197
1772593664090284000,2.310283935546875,-0.023051783442497253,1.8491020202636719,-0.16629421710968018
1772593664110547000,2.330546875,-0.02563832700252533,2.201371192932129,-0.14769458770751953
1772593664130811000,2.350810791015625,-0.02520095556974411,2.6222786903381348,-0.1115691065788269
1772593664151075000,2.371074951171875,0.0664699375629425,2.9323415756225586,-0.10308665037155151
1772593664171338000,2.391337890625,0.24425792694091797,2.891023635864258,-0.23402756452560425
1772593664191602000,2.411601806640625,0.37668371200561523,2.283073902130127,-0.36316704750061035
1772593664211866000,2.4318662109375,0.32429707050323486,1.4002423286437988,-0.3409230709075928
1772593664232129000,2.45212890625,0.15096235275268555,0.5083980560302734,-0.16083335876464844
1772593664252393000,2.47239306640625,-0.040485382080078125,-0.12378597259521484,0.04560041427612305
1772593664272657000,2.492656982421875,-0.25093793869018555,-0.7348852157592773,0.28854990005493164
1772593664292920000,2.512920166015625,-0.4296562671661377,-1.3880834579467773,0.5510153770446777
1772593664313184000,2.53318408203125,-0.5593979358673096,-1.9751195907592773,0.7976956367492676
1772593664333448000,2.553447998046875,-0.6504664421081543,-2.4876670837402344,0.9989333152770996
1772593664353711000,2.573711181640625,-0.6373584270477295,-2.6926612854003906,1.0521111488342285
1772593664373975000,2.59397509765625,-0.4877445697784424,-2.526392936706543,0.9081223011016846
1772593664394239000,2.614239013671875,-0.26491713523864746,-2.0765581130981445,0.6417725086212158
1772593664414502000,2.634501953125,-0.092418372631073,-1.5591545104980469,0.39045023918151855
1772593664434766000,2.65476611328125,0.01430763304233551,-1.2135086059570312,0.22636401653289795
1772593664455030000,2.675030029296875,0.06393754482269287,-1.1137351989746094,0.1493617296218872
1772593664475293000,2.69529296875,0.10102486610412598,-1.0643892288208008,0.11454403400421143
1772593664495557000,2.71555712890625,0.07468068599700928,-0.7481288909912109,0.07612884044647217
1772593664515821000,2.735821044921875,0.0540163516998291,-0.5208539962768555,0.050207436084747314
1772593664536084000,2.756083984375,0.03979992866516113,-0.3663606643676758,0.04106438159942627
1772593664556348000,2.776347900390625,0.03709816932678223,-0.33159542083740234,0.04478025436401367
1772593664576612000,2.796612060546875,0.0281866192817688,-0.2918977737426758,0.048287272453308105
1772593664596875000,2.816875,0.011109709739685059,-0.1532888412475586,0.02908337116241455
1772593664617139000,2.837138916015625,0.0011833608150482178,-0.024903297424316406,0.005348682403564453
1772593664637413000,2.8574130859375,-0.002677828073501587,0.09026432037353516,-0.021698713302612305
1772593664657677000,2.877677001953125,-0.0037060528993606567,0.1921405792236328,-0.051082611083984375
1772593664677941000,2.89794091796875,-0.002634204924106598,0.3044872283935547,-0.08572721481323242
1772593664698204000,2.918203857421875,0.000660652294754982,0.3710298538208008,-0.1056053638458252
1772593664718468000,2.938468017578125,0.005326032638549805,0.4326133728027344,-0.12390375137329102
1772593664738732000,2.95873193359375,0.010146498680114746,0.44553470611572266,-0.12251067161560059
1772593664758995000,2.978994873046875,0.012400299310684204,0.38471412658691406,-0.10048127174377441
1772593664779259000,2.9992587890625,0.009765446186065674,0.31289005279541016,-0.07789301872253418
1772593664799523000,3.019523193359375,0.004187226295471191,0.19217681884765625,-0.04939556121826172
1772593664819786000,3.039785888671875,0.0005880594253540039,0.04842948913574219,-0.013307809829711914
1772593664840050000,3.0600498046875,-0.0004981458187103271,-0.1915912628173828,0.05763721466064453
1772593664860314000,3.080314208984375,-0.0006259260699152946,-0.46593666076660156,0.15804338455200195
1772593664880577000,3.100576904296875,-0.0066828057169914246,-0.77459716796875,0.2976093292236328
1772593664900841000,3.120841064453125,-0.01976625621318817,-1.1773414611816406,0.49886178970336914
1772593664921105000,3.14110498046875,-0.040607750415802,-1.6443147659301758,0.739260196685791
1772593664941368000,3.1613681640625,-0.0527285635471344,-2.1381168365478516,0.9734601974487305
1772593664961632000,3.181632080078125,-0.040520429611206055,-2.5346288681030273,1.151853084564209
1772593664981896000,3.20189599609375,-0.022102192044258118,-2.8284902572631836,1.2919912338256836
1772593665002159000,3.2221591796875,-0.016403891146183014,-2.9668102264404297,1.352175235748291
1772593665022423000,3.242423095703125,-0.009176444262266159,-2.9605417251586914,1.3400278091430664
1772593665042687000,3.26268701171875,-0.0012004198506474495,-2.850933074951172,1.2668075561523438
1772593665062950000,3.282949951171875,0.02445356547832489,-2.6332836151123047,1.1278712749481201
1772593665083214000,3.303214111328125,0.06346094608306885,-2.388822555541992,0.9663667678833008
1772593665103478000,3.32347802734375,0.09282779693603516,-2.037212371826172,0.7646365165710449
1772593665123741000,3.343740966796875,0.10794275999069214,-1.6172943115234375,0.5734860897064209
1772593665144005000,3.364005126953125,0.1025320291519165,-1.1455202102661133,0.4013218879699707
1772593665164269000,3.38426904296875,0.06226968765258789,-0.5918798446655273,0.20725440979003906
1772593665184532000,3.404531982421875,0.016481399536132812,-0.1363515853881836,0.04723477363586426
1772593665204796000,3.4247958984375,-0.02559530735015869,0.18847084045410156,-0.06353163719177246
1772593665225060000,3.44506005859375,-0.058344244956970215,0.3898019790649414,-0.12525439262390137
1772593665245323000,3.465322998046875,-0.09887063503265381,0.5998401641845703,-0.17646455764770508
1772593665265587000,3.4855869140625,-0.1331040859222412,0.7130250930786133,-0.18726658821105957
1772593665285851000,3.505850830078125,-0.16884613037109375,0.8118247985839844,-0.18694567680358887
1772593665306114000,3.526114013671875,-0.1895296573638916,0.8368463516235352,-0.16439616680145264
1772593665326378000,3.5463779296875,-0.20322227478027344,0.8630495071411133,-0.14042365550994873
1772593665346642000,3.566641845703125,-0.20882439613342285,0.8886194229125977,-0.11438560485839844
1772593665366905000,3.586905029296875,-0.18900561332702637,0.8173751831054688,-0.07730716466903687
1772593665387169000,3.6071689453125,-0.16554701328277588,0.7307987213134766,-0.04454749822616577
1772593665407433000,3.627432861328125,-0.13930153846740723,0.6609659194946289,-0.011594057083129883
1772593665427696000,3.647696044921875,-0.11267316341400146,0.5799779891967773,0.014516472816467285
1772593665447960000,3.6679599609375,-0.08628487586975098,0.4871349334716797,0.03425788879394531
1772593665468224000,3.68822412109375,-0.04615950584411621,0.3033781051635742,0.037177443504333496
1772593665488487000,3.70848681640625,-0.0021729469299316406,0.016912460327148438,0.0029027462005615234
1772593665508751000,3.728751220703125,0.051499009132385254,-0.4512786865234375,-0.0926206111907959
1772593665529015000,3.74901513671875,0.10942339897155762,-1.1514406204223633,-0.2319927215576172
1772593665549278000,3.76927783203125,0.07410946488380432,-1.7266788482666016,-0.320987343788147
1772593665569542000,3.7895419921875,-0.005820728838443756,-2.182485580444336,-0.3029963970184326
1772593665589806000,3.80980615234375,-0.07606905698776245,-2.574826240539551,-0.2291930913925171
1772593665610069000,3.830069091796875,-0.10175371170043945,-2.8990097045898438,-0.10164108872413635
1772593665630333000,3.8503330078125,-0.09596502780914307,-3.1573562622070312,0.05157214403152466
1772593665650597000,3.87059716796875,-0.08824214339256287,-3.4345359802246094,0.23193931579589844
1772593665670860000,3.890860107421875,-0.09963637590408325,-3.5677976608276367,0.4111870527267456
1772593665691124000,3.9111240234375,-0.11077994108200073,-3.623659133911133,0.5643010139465332
1772593665711388000,3.931387939453125,-0.118936687707901,-3.3630599975585938,0.6734603643417358
1772593665731651000,3.951651123046875,-0.09155789017677307,-2.770066261291504,0.6348092555999756
1772593665751915000,3.9719150390625,0.011090181767940521,-2.234304428100586,0.5506865978240967
1772593665772179000,3.992178955078125,0.07953131198883057,-1.7316274642944336,0.39409661293029785
1772593665792442000,4.012442138671875,0.09510266780853271,-1.3031644821166992,0.25665926933288574
1772593665812706000,4.0327060546875,0.08310878276824951,-0.9594802856445312,0.1566016674041748
1772593665832970000,4.052969970703125,0.06300866603851318,-0.7163734436035156,0.09713363647460938
1772593665853233000,4.07323291015625,0.04446542263031006,-0.49689579010009766,0.05774116516113281
1772593665873497000,4.0934970703125,0.03781622648239136,-0.3821992874145508,0.041103482246398926
1772593665893761000,4.113760986328125,0.030415892601013184,-0.2797832489013672,0.0307464599609375
1772593665914024000,4.13402392578125,0.02787947654724121,-0.2520465850830078,0.028177618980407715
1772593665934288000,4.154287841796875,0.025836706161499023,-0.2294473648071289,0.02604377269744873
1772593665954552000,4.174552001953125,0.023975849151611328,-0.20989513397216797,0.024208903312683105
1772593665974816000,4.19481591796875,0.022918224334716797,-0.1987323760986328,0.024793267250061035
1772593665995079000,4.215078857421875,0.021921396255493164,-0.18822193145751953,0.02537858486175537
1772593666015343000,4.235343017578125,0.020642876625061035,-0.1750326156616211,0.025271892547607422
1772593666035607000,4.25560693359375,0.017366528511047363,-0.14509201049804688,0.02100193500518799
1772593666055870000,4.275869873046875,0.014001965522766113,-0.11501312255859375,0.01669442653656006
1772593666076134000,4.2961337890625,0.011003732681274414,-0.08861732482910156,0.012912273406982422
1772593666096398000,4.316398193359375,0.010456323623657227,-0.07777595520019531,0.011387228965759277
1772593666116661000,4.336660888671875,0.01348567008972168,-0.08831024169921875,0.01302027702331543
1772593666136925000,4.356925048828125,0.03925919532775879,-0.23236370086669922,0.035846590995788574
1772593666157189000,4.377189208984375,0.08559298515319824,-0.4681272506713867,0.07490074634552002
1772593666177452000,4.3974521484375,0.1410360336303711,-0.7216129302978516,0.12480878829956055
1772593666197716000,4.417716064453125,0.20860528945922852,-1.0473918914794922,0.19257497787475586
1772593666217980000,4.43797998046875,0.27802181243896484,-1.3749160766601562,0.2664947509765625
1772593666238243000,4.4582431640625,0.3305697441101074,-1.6773872375488281,0.32927393913269043
1772593666258507000,4.478507080078125,0.3582789897918701,-1.9529247283935547,0.37295711040496826
1772593666278771000,4.49877099609375,0.3557131290435791,-2.2126922607421875,0.41028738021850586
1772593666299034000,4.5190341796875,0.3248302936553955,-2.4655723571777344,0.4424675703048706
1772593666319298000,4.539298095703125,0.26280784606933594,-2.7142152786254883,0.47089552879333496
1772593666339562000,4.55956201171875,0.17758023738861084,-2.7463111877441406,0.45366203784942627
1772593666359825000,4.579824951171875,0.08953866362571716,-2.6187963485717773,0.4169842004776001
1772593666380089000,4.600089111328125,0.04363279044628143,-2.40891170501709,0.356259822845459
1772593666400353000,4.62035302734375,0.0346018522977829,-2.112982749938965,0.28900229930877686
1772593666420616000,4.640615966796875,0.026718243956565857,-1.7417688369750977,0.21877694129943848
1772593666440880000,4.660880126953125,0.030472666025161743,-1.3784255981445312,0.16545546054840088
1772593666461144000,4.68114404296875,0.03184285759925842,-1.0255708694458008,0.12462306022644043
1772593666481407000,4.701406982421875,0.028572142124176025,-0.6819124221801758,0.08399105072021484
1772593666501671000,4.7216708984375,0.018763244152069092,-0.3505382537841797,0.04382336139678955
1772593666521935000,4.74193505859375,0.006324648857116699,-0.09633159637451172,0.012102842330932617
1772593666542198000,4.762197998046875,-0.003979742527008057,0.05152416229248047,-0.006404757499694824
1772593666562462000,4.7824619140625,-0.010215282440185547,0.11711597442626953,-0.014156222343444824
1772593666582726000,4.802725830078125,-0.010370790958404541,0.1328449249267578,-0.014109969139099121
1772593666602989000,4.822989013671875,-0.012957215309143066,0.22306060791015625,-0.020576298236846924
1772593666623253000,4.8432529296875,-0.011530697345733643,0.3123645782470703,-0.02440565824508667
1772593666643517000,4.863516845703125,-0.006962031126022339,0.4710102081298828,-0.030353844165802002
1772593666663780000,4.883780029296875,0.00007584987906739116,0.7023992538452148,-0.03583553433418274
1772593666684044000,4.9040439453125,0.005857568234205246,1.0175018310546875,-0.03760582208633423
1772593666704308000,4.924307861328125,0.015466935932636261,1.342930793762207,-0.029330983757972717
1772593666724571000,4.94457080078125,0.031570881605148315,1.7394542694091797,-0.01050104945898056
1772593666744835000,4.9648349609375,0.07392504811286926,2.1312174797058105,-0.003946002572774887
1772593666765099000,4.98509912109375,0.12433353066444397,2.3905839920043945,-0.02929896116256714
1772593666785362000,5.00536181640625,0.1924680471420288,2.3325109481811523,-0.16950923204421997
1772593666805626000,5.025626220703125,0.2312137484550476,1.8883857727050781,-0.2968217134475708
1772593666825890000,5.04589013671875,0.217765212059021,1.2950458526611328,-0.3036000728607178
1772593666846153000,5.066153076171875,0.1216423511505127,0.6251688003540039,-0.18847155570983887
1772593666866417000,5.0864169921875,-0.02820277214050293,-0.14300823211669922,0.04807114601135254
1772593666886681000,5.10668115234375,-0.20037376880645752,-1.0273933410644531,0.35252952575683594
1772593666906944000,5.126944091796875,-0.36153292655944824,-1.8809518814086914,0.6383213996887207
1772593666927208000,5.1472080078125,-0.4898700714111328,-2.555929183959961,0.853334903717041
1772593666947472000,5.167471923828125,-0.5319821834564209,-2.8895788192749023,0.9325361251831055
1772593666967735000,5.187735107421875,-0.5293519496917725,-2.9341564178466797,0.8874988555908203
1772593666987999000,5.2079990234375,-0.4115025997161865,-2.508234977722168,0.6372597217559814
1772593667008263000,5.228262939453125,-0.23438096046447754,-1.812739372253418,0.32446813583374023
1772593667028526000,5.248526123046875,-0.07982373237609863,-1.221205711364746,0.11729419231414795
1772593667048790000,5.2687900390625,-0.004520893096923828,-0.8201665878295898,0.014785215258598328
1772593667069054000,5.289053955078125,0.01687103509902954,-0.38475513458251953,-0.0146045982837677
1772593667089317000,5.309317138671875,-0.004926562309265137,0.05920219421386719,0.004142105579376221
1772593667109581000,5.3295810546875,-0.05566966533660889,0.5004281997680664,0.03942406177520752
1772593667129845000,5.349844970703125,-0.10175681114196777,0.7797212600708008,0.0530320405960083
1772593667150108000,5.37010791015625,-0.10645532608032227,0.7709512710571289,0.03493940830230713
1772593667170372000,5.3903720703125,-0.1031116247177124,0.7093963623046875,0.008266009390354156
1772593667190636000,5.410635986328125,-0.0780186653137207,0.5303792953491211,-0.021168947219848633
1772593667210899000,5.43089892578125,-0.04705810546875,0.34502696990966797,-0.034287989139556885
1772593667231163000,5.451162841796875,-0.025648832321166992,0.2388448715209961,-0.03558063507080078
1772593667251427000,5.471427001953125,-0.010356545448303223,0.13253116607666016,-0.024558186531066895
1772593667271691000,5.49169091796875,-0.00162467360496521,0.032507896423339844,-0.006800413131713867
1772593667291954000,5.511953857421875,-0.00046381354331970215,0.012317657470703125,-0.0027463436126708984
1772593667312218000,5.532218017578125,0.0006985962390899658,-0.01753520965576172,0.004231452941894531
1772593667332482000,5.55248193359375,0.0016894936561584473,-0.033591270446777344,0.008477210998535156
1772593667352745000,5.572744873046875,0.005115866661071777,-0.08324718475341797,0.022716045379638672
1772593667373009000,5.5930087890625,0.024095654487609863,-0.34058284759521484,0.10052800178527832
1772593667393273000,5.613273193359375,0.0489811897277832,-0.6853370666503906,0.2156829833984375
1772593667413536000,5.633535888671875,0.07123386859893799,-1.1268644332885742,0.38008952140808105
1772593667433800000,5.653800048828125,0.07390403747558594,-1.5545310974121094,0.5527329444885254
1772593667454064000,5.674064208984375,0.06234651803970337,-1.8872156143188477,0.6944279670715332
1772593667474327000,5.6943271484375,0.04362478852272034,-2.2154006958007812,0.8400816917419434
1772593667494591000,5.714591064453125,0.03383748233318329,-2.5132741928100586,0.9532990455627441
1772593667514855000,5.73485498046875,0.019742272794246674,-2.755697250366211,0.9859151840209961
1772593667535118000,5.7551181640625,0.0010491283610463142,-3.062549591064453,1.0235254764556885
1772593667555382000,5.775382080078125,-0.022498294711112976,-3.176302909851074,0.9594683647155762
1772593667575646000,5.79564599609375,-0.04389062523841858,-3.0225563049316406,0.8185243606567383
1772593667595909000,5.8159091796875,-0.05790841579437256,-2.6613006591796875,0.6471717357635498
1772593667616173000,5.836173095703125,-0.03532807528972626,-2.1194210052490234,0.46625423431396484
1772593667636437000,5.85643701171875,-0.006477642804384232,-1.600907325744629,0.3381941318511963
1772593667656700000,5.876699951171875,0.01043323427438736,-1.094111442565918,0.22965168952941895
1772593667676964000,5.896964111328125,0.013886958360671997,-0.5909862518310547,0.12347531318664551
1772593667697228000,5.91722802734375,0.002104252576828003,-0.10387706756591797,0.022811412811279297
1772593667717491000,5.937490966796875,-0.006364554166793823,0.3923654556274414,-0.09107542037963867
1772593667737755000,5.9577548828125,-0.0121966153383255,1.0211668014526367,-0.2559683322906494
1772593667758019000,5.97801904296875,-0.010324131697416306,1.45979642868042,-0.40398335456848145
1772593667778282000,5.998281982421875,-0.0012994171120226383,1.7392020225524902,-0.5204293727874756
1772593667798546000,6.0185458984375,0.014137625694274902,1.9014825820922852,-0.6029856204986572
1772593667818810000,6.03881005859375,0.05148331820964813,2.003884792327881,-0.6375651359558105
1772593667839073000,6.059072998046875,0.09388220310211182,2.122343063354492,-0.6579513549804688
1772593667859337000,6.0793369140625,0.15947216749191284,2.17110013961792,-0.6963105201721191
1772593667879601000,6.099600830078125,0.19947516918182373,1.9802136421203613,-0.7148880958557129
1772593667899864000,6.119864013671875,0.19821405410766602,1.6097640991210938,-0.6646616458892822
1772593667920128000,6.1401279296875,0.16175627708435059,1.035140037536621,-0.5078411102294922
1772593667940392000,6.160391845703125,0.06585347652435303,0.33772945404052734,-0.19333791732788086
1772593667960655000,6.180655029296875,-0.09066271781921387,-0.40033626556396484,0.25620079040527344
1772593667980919000,6.2009189453125,-0.26442909240722656,-1.1318626403808594,0.7646479606628418
1772593668001183000,6.221182861328125,-0.3941631317138672,-1.7067852020263672,1.145747184753418
1772593668021446000,6.24144580078125,-0.4949636459350586,-2.147146224975586,1.4243817329406738
1772593668041710000,6.2617099609375,-0.5472378730773926,-2.464383125305176,1.6030640602111816
1772593668061974000,6.28197412109375,-0.5504839420318604,-2.636791229248047,1.6440367698669434
1772593668082237000,6.30223681640625,-0.5110690593719482,-2.55157470703125,1.4942221641540527
1772593668102501000,6.322501220703125,-0.3909447193145752,-2.198080062866211,1.1820344924926758
1772593668122765000,6.34276513671875,-0.20466828346252441,-1.6504325866699219,0.7705326080322266
1772593668143028000,6.363028076171875,-0.053998589515686035,-1.0699806213378906,0.4074256420135498
1772593668163292000,6.3832919921875,0.012414932250976562,-0.47167301177978516,0.13875460624694824
1772593668183556000,6.40355615234375,-0.01126033067703247,0.12176322937011719,-0.02783346176147461
1772593668203819000,6.423819091796875,-0.08200931549072266,0.5814571380615234,-0.11959588527679443
1772593668224083000,6.4440830078125,-0.16104698181152344,0.8460874557495117,-0.17273366451263428
1772593668244347000,6.464346923828125,-0.22433114051818848,0.9818525314331055,-0.21892917156219482
1772593668264610000,6.484610107421875,-0.268282413482666,1.0052776336669922,-0.25102686882019043
1772593668284874000,6.5048740234375,-0.2857627868652344,0.9381036758422852,-0.25894856452941895
1772593668305138000,6.525137939453125,-0.25776219367980957,0.7906522750854492,-0.24570798873901367
1772593668325401000,6.545401123046875,-0.2144758701324463,0.6722583770751953,-0.23891115188598633
1772593668345665000,6.5656650390625,-0.16972613334655762,0.5636739730834961,-0.22485661506652832
1772593668365929000,6.585928955078125,-0.13341808319091797,0.4700584411621094,-0.20291829109191895
1772593668386192000,6.60619189453125,-0.10768461227416992,0.40193939208984375,-0.18185114860534668
1772593668406456000,6.6264560546875,-0.09076857566833496,0.33936595916748047,-0.15652871131896973
1772593668426720000,6.646719970703125,-0.0852670669555664,0.3299140930175781,-0.15108370780944824
1772593668446983000,6.66698291015625,-0.07727622985839844,0.3099184036254883,-0.14157819747924805
1772593668467247000,6.6872470703125,-0.04625749588012695,0.19414710998535156,-0.09021472930908203
1772593668487511000,6.707510986328125,-0.01754307746887207,0.07711410522460938,-0.036481380462646484
1772593668507774000,6.72777392578125,0.015307307243347168,-0.07023811340332031,0.03440427780151367
1772593668528038000,6.748037841796875,0.06464123725891113,-0.3136720657348633,0.15693187713623047
1772593668548302000,6.768302001953125,0.12034380435943604,-0.6569938659667969,0.3409132957458496
1772593668568566000,6.78856591796875,0.17388510704040527,-1.0939140319824219,0.5917530059814453
1772593668588829000,6.808828857421875,0.1943577527999878,-1.5272130966186523,0.8575444221496582
1772593668609093000,6.829093017578125,0.18889129161834717,-1.919271469116211,1.0916495323181152
1772593668629357000,6.849357177734375,0.17855894565582275,-2.2623329162597656,1.2693743705749512
1772593668649620000,6.869619873046875,0.15478450059890747,-2.52835750579834,1.3477935791015625
1772593668669884000,6.8898837890625,0.1193205714225769,-2.6712799072265625,1.3118019104003906
1772593668690148000,6.910148193359375,0.08068063855171204,-2.8148441314697266,1.2670245170593262
1772593668710411000,6.930410888671875,0.0373397171497345,-2.9249753952026367,1.1693115234375
1772593668730675000,6.950675048828125,-0.007699582725763321,-2.971332550048828,1.086623191833496
1772593668750939000,6.97093896484375,-0.030072450637817383,-2.9183692932128906,0.9512412548065186
1772593668771202000,6.9912021484375,-0.0475693941116333,-2.7129430770874023,0.7882533073425293
1772593668791466000,7.011466064453125,-0.042842790484428406,-2.501254081726074,0.6373815536499023
1772593668811730000,7.03172998046875,-0.03810560703277588,-2.2396059036254883,0.5156412124633789
1772593668831993000,7.0519931640625,-0.03368823230266571,-1.9332895278930664,0.4238269329071045
1772593668852257000,7.072257080078125,-0.029132604598999023,-1.5615777969360352,0.34566426277160645
1772593668872521000,7.09252099609375,-0.022827625274658203,-1.107518196105957,0.2540309429168701
1772593668892784000,7.1127841796875,-0.015092611312866211,-0.6567859649658203,0.1566915512084961
1772593668913048000,7.133048095703125,-0.0056868791580200195,-0.22166728973388672,0.05655336380004883
1772593668933312000,7.15331201171875,0.006948292255401611,0.24345970153808594,-0.06308102607727051
1772593668953575000,7.173574951171875,0.022555887699127197,0.7055425643920898,-0.18537545204162598
1772593668973839000,7.193839111328125,0.03758963942527771,1.0505094528198242,-0.2865450382232666
1772593668994103000,7.21410302734375,0.04667791724205017,1.1772499084472656,-0.34528350830078125
1772593669014366000,7.234365966796875,0.05875295400619507,1.0446643829345703,-0.34073972702026367
1772593669034630000,7.2546298828125,0.052595555782318115,0.6578845977783203,-0.25292348861694336
1772593669054894000,7.27489404296875,0.006946206092834473,0.068572998046875,-0.030558109283447266
1772593669075157000,7.295156982421875,-0.08213317394256592,-0.6855783462524414,0.35657691955566406
1772593669095421000,7.3154208984375,-0.18943917751312256,-1.5106515884399414,0.8916420936584473
1772593669115685000,7.33568505859375,-0.2964491844177246,-2.294170379638672,1.4798460006713867
1772593669135948000,7.355947998046875,-0.3986527919769287,-3.018660545349121,2.052903652191162
1772593669156212000,7.3762119140625,-0.4575016498565674,-3.673177719116211,2.560441493988037
1772593669176476000,7.396475830078125,-0.47281432151794434,-4.263629913330078,2.978201389312744
1772593669196739000,7.416739013671875,-0.4634193181991577,-4.642955780029297,3.2150864601135254
1772593669217003000,7.4370029296875,-0.3910263776779175,-4.772848129272461,3.232903480529785
1772593669237267000,7.457266845703125,-0.2798253297805786,-4.674945831298828,3.043241024017334
1772593669257530000,7.477530029296875,-0.16779357194900513,-4.418912887573242,2.7952656745910645
1772593669277794000,7.4977939453125,-0.06246475875377655,-4.08884334564209,2.585325241088867
1772593669298058000,7.51805810546875,0.002238720655441284,-3.6202497482299805,2.3490476608276367
1772593669318321000,7.53832080078125,0.055094972252845764,-3.148098945617676,2.1676764488220215
1772593669338585000,7.558585205078125,0.09819874167442322,-2.6713314056396484,2.0114593505859375
1772593669358849000,7.57884912109375,0.10329747200012207,-2.1705732345581055,1.7669672966003418
1772593669379112000,7.59911181640625,0.08407583832740784,-1.5936307907104492,1.4202871322631836
1772593669399376000,7.6193759765625,0.0676848292350769,-0.9428157806396484,0.9337482452392578
1772593669419640000,7.63964013671875,0.038127899169921875,-0.34889698028564453,0.3874831199645996
1772593669439903000,7.659903076171875,-0.029248833656311035,0.16895151138305664,-0.2080249786376953
1772593669460167000,7.6801669921875,-0.17026233673095703,0.6636719703674316,-0.8814244270324707
1772593669480431000,7.70043115234375,-0.48381638526916504,1.2608141899108887,-1.709324836730957
1772593669500694000,7.720694091796875,-1.100498914718628,1.886937141418457,-2.480565071105957
1772593669520958000,7.7409580078125,-2.156235694885254,2.3894429206848145,-2.8977837562561035
1772593669541222000,7.761221923828125,-3.5317540168762207,2.5194520950317383,-2.632664442062378
1772593669561485000,7.781485107421875,-4.5421295166015625,1.933837890625,-1.7810766696929932
1772593669581749000,7.8017490234375,-4.723143100738525,1.1459473371505737,-0.8048642873764038
1772593669602013000,7.822012939453125,-4.359900951385498,0.6057432293891907,-0.29167062044143677
1772593669622276000,7.842276123046875,-3.875455379486084,0.2818334102630615,-0.1077992171049118
1772593669642540000,7.8625400390625,-3.423727035522461,0.06545533239841461,-0.052672795951366425
1772593669662804000,7.882803955078125,-3.035673141479492,-0.0836469978094101,-0.02071516215801239
1772593669683067000,7.90306689453125,-2.794826030731201,-0.20821630954742432,-0.029182322323322296
1772593669703331000,7.9233310546875,-2.6511406898498535,-0.29253649711608887,-0.06688675284385681
1772593669723595000,7.943594970703125,-2.5630040168762207,-0.37848830223083496,-0.102393239736557
1772593669743858000,7.96385791015625,-2.4842262268066406,-0.4350847005844116,-0.09812739491462708
1772593669764122000,7.9841220703125,-2.3642935752868652,-0.5035452842712402,-0.08901959657669067
1772593669784386000,8.004385986328124,-2.2415804862976074,-0.563040018081665,-0.07597455382347107
1772593669804649000,8.02464892578125,-2.0062832832336426,-0.5732340812683105,-0.006507089361548424
1772593669824913000,8.044912841796876,-1.6722707748413086,-0.5297870635986328,0.06179341673851013
1772593669845177000,8.065177001953124,-1.327563762664795,-0.4600396156311035,0.0986708402633667
1772593669865441000,8.08544091796875,-1.0014982223510742,-0.3754403591156006,0.09969103336334229
1772593669885704000,8.105703857421876,-0.6355829238891602,-0.2454204559326172,0.07754886150360107
1772593669905968000,8.125968017578124,-0.2393817901611328,-0.0969994068145752,0.03394627571105957
1772593669926232000,8.146232177734374,0.09767532348632812,0.04049229621887207,-0.014592289924621582
1772593669946495000,8.166494873046876,0.4124298095703125,0.17432665824890137,-0.05938553810119629
1772593669966759000,8.186759033203124,0.6022233963012695,0.2562246322631836,-0.07886910438537598
1772593669987023000,8.207023193359374,0.6884555816650391,0.2899618148803711,-0.07626432180404663
1772593670007286000,8.2272861328125,0.6700944900512695,0.2819850444793701,-0.056066811084747314
1772593670027550000,8.247550048828124,0.5763282775878906,0.24386954307556152,-0.03264915943145752
1772593670047814000,8.26781396484375,0.4882354736328125,0.20727014541625977,-0.014183461666107178
1772593670068077000,8.2880771484375,0.49318981170654297,0.20747995376586914,-0.00044343993067741394
1772593670088341000,8.308341064453124,0.5044660568237305,0.20965981483459473,0.0136604905128479
1772593670108605000,8.32860498046875,0.48975181579589844,0.19638633728027344,0.02658933401107788
1772593670128868000,8.3488681640625,0.4703645706176758,0.1816098690032959,0.033629775047302246
1772593670149132000,8.369132080078124,0.4482288360595703,0.16644740104675293,0.039404869079589844
1772593670169396000,8.38939599609375,0.4159727096557617,0.1485280990600586,0.03974258899688721
1772593670189659000,8.409658935546876,0.39812374114990234,0.14028620719909668,0.037887513637542725
1772593670209923000,8.429923095703124,0.37042808532714844,0.12915825843811035,0.03505593538284302
1772593670230187000,8.45018701171875,0.3344850540161133,0.1158287525177002,0.03157663345336914
1772593670250450000,8.470449951171876,0.23154830932617188,0.08044648170471191,0.0221441388130188
1772593670270714000,8.490714111328124,0.1329517364501953,0.046422719955444336,0.01295769214630127
1772593670290978000,8.51097802734375,0.039198875427246094,0.013788700103759766,0.003917574882507324
1772593670311241000,8.531240966796876,-0.044857025146484375,-0.015918254852294922,-0.004609048366546631
1772593670331505000,8.5515048828125,-0.1180276870727539,-0.0422673225402832,-0.01248091459274292
1772593670351769000,8.57176904296875,-0.18213844299316406,-0.06582117080688477,-0.019915401935577393
1772593670372032000,8.592031982421876,-0.24005413055419922,-0.08757734298706055,-0.027202725410461426
1772593670392296000,8.6122958984375,-0.2904672622680664,-0.10717606544494629,-0.03419625759124756
1772593670412560000,8.632559814453124,-0.33699989318847656,-0.12572193145751953,-0.04129970073699951
1772593670432823000,8.652822998046876,-0.3806581497192383,-0.1434190273284912,-0.048568129539489746
1772593670453087000,8.6730869140625,-0.35895633697509766,-0.1356191635131836,-0.04723525047302246
1772593670473351000,8.693350830078124,-0.33742237091064453,-0.12790656089782715,-0.04578983783721924
1772593670493614000,8.713614013671876,-0.31632041931152344,-0.12025570869445801,-0.04439365863800049
1772593670513878000,8.7338779296875,-0.28276824951171875,-0.10786962509155273,-0.04359018802642822
1772593670534142000,8.754141845703124,-0.24707603454589844,-0.09459543228149414,-0.04136967658996582
1772593670554405000,8.774405029296876,-0.15163898468017578,-0.05782270431518555,-0.027001142501831055
1772593670574669000,8.7946689453125,-0.05946922302246094,-0.02263045310974121,-0.01115107536315918
1772593670594933000,8.81493310546875,0.02518939971923828,0.009572982788085938,0.004933595657348633
1772593670615196000,8.83519580078125,0.10813045501708984,0.04110097885131836,0.021937847137451172
1772593670635460000,8.855460205078124,0.19519519805908203,0.07424283027648926,0.04077887535095215
1772593670655724000,8.87572412109375,0.28052520751953125,0.10667920112609863,0.060038208961486816
1772593670675987000,8.895987060546876,0.3629007339477539,0.1380138397216797,0.07928133010864258
1772593670696251000,8.9162509765625,0.44235706329345703,0.16817688941955566,0.09824550151824951
1772593670716515000,8.93651513671875,0.49733829498291016,0.18906068801879883,0.1080474853515625
1772593670736778000,8.956778076171876,0.5412006378173828,0.20584988594055176,0.11492252349853516
1772593670757042000,8.9770419921875,0.5166826248168945,0.1981663703918457,0.10821211338043213
1772593670777306000,8.99730615234375,0.49379539489746094,0.19084739685058594,0.10195958614349365
1772593670797569000,9.017569091796876,0.4764585494995117,0.18542146682739258,0.09691691398620605
1772593670817833000,9.0378330078125,0.45005130767822266,0.1761317253112793,0.08689475059509277
1772593670838097000,9.058096923828124,0.4207134246826172,0.16550707817077637,0.07669222354888916
1772593670858360000,9.078360107421876,0.3912477493286133,0.15467166900634766,0.06686770915985107
1772593670878624000,9.0986240234375,0.3527374267578125,0.14012718200683594,0.05359172821044922
1772593670898888000,9.118887939453124,0.3157176971435547,0.1261003017425537,0.04193556308746338
1772593670919151000,9.139151123046876,0.28310489654541016,0.11372137069702148,0.03212380409240723
1772593670939415000,9.1594150390625,0.2559938430786133,0.10345625877380371,0.024021506309509277
1772593670959679000,9.179678955078124,0.23516082763671875,0.09557366371154785,0.015454471111297607
1772593670979942000,9.19994189453125,0.22708415985107422,0.09268951416015625,0.008569985628128052
1772593671000206000,9.2202060546875,0.2966156005859375,0.12047004699707031,0.0028858408331871033
1772593671020470000,9.240469970703124,0.3694925308227539,0.14946317672729492,-0.0037601813673973083
1772593671040733000,9.26073291015625,0.44304752349853516,0.17869997024536133,-0.01301652193069458
1772593671060997000,9.2809970703125,0.5178585052490234,0.20840692520141602,-0.02481067180633545
1772593671081261000,9.301260986328124,0.5902938842773438,0.2371373176574707,-0.03475409746170044
1772593671101524000,9.32152392578125,0.6608953475952148,0.26509809494018555,-0.04623943567276001
1772593671121788000,9.341787841796876,0.6588735580444336,0.266223669052124,-0.053600311279296875
1772593671142052000,9.362052001953124,0.6550369262695312,0.266772985458374,-0.06025803089141846
1772593671162316000,9.38231591796875,0.637730598449707,0.2621195316314697,-0.06014496088027954
1772593671182579000,9.402578857421876,0.6094675064086914,0.25323033332824707,-0.05875205993652344
1772593671202843000,9.4228427734375,0.5037736892700195,0.21349310874938965,-0.049759089946746826
1772593671223107000,9.443107177734374,0.3977470397949219,0.1719200611114502,-0.04009270668029785
1772593671243370000,9.463369873046876,0.2910308837890625,0.12823820114135742,-0.029737412929534912
1772593671263634000,9.483634033203124,0.18358802795410156,0.08246707916259766,-0.018904447555541992
1772593671283898000,9.503898193359374,0.07628059387207031,0.03495311737060547,-0.007869184017181396
1772593671304161000,9.5241611328125,-0.028985023498535156,-0.013556480407714844,0.0029619336128234863
1772593671324425000,9.544425048828124,-0.06348133087158203,-0.03003406524658203,0.006311655044555664
1772593671344689000,9.56468896484375,-0.09624004364013672,-0.04601335525512695,0.009237229824066162
1772593671364952000,9.5849521484375,-0.13022136688232422,-0.06285238265991211,0.01092064380645752
1772593671385216000,9.605216064453124,-0.15760326385498047,-0.0767202377319336,0.011242985725402832
1772593671405480000,9.62547998046875,-0.17734336853027344,-0.08706998825073242,0.010445952415466309
1772593671425743000,9.6457431640625,-0.19202804565429688,-0.09516620635986328,0.009015977382659912
1772593671446007000,9.666007080078124,-0.20045948028564453,-0.10039377212524414,0.00725632905960083
1772593671466271000,9.68627099609375,-0.17127227783203125,-0.08835840225219727,0.004468768835067749
1772593671486534000,9.706533935546876,-0.13909244537353516,-0.0737919807434082,0.002281278371810913
1772593671506798000,9.726798095703124,-0.10058212280273438,-0.05474233627319336,0.0007070079445838928
1772593671527062000,9.74706201171875,-0.05586051940917969,-0.031108856201171875,-0.00009175948798656464
1772593671547325000,9.767324951171876,-0.0068206787109375,-0.0038814544677734375,-0.00006395578384399414
1772593671567589000,9.787589111328124,0.04439258575439453,0.025809288024902344,0.000363275408744812
1772593671587853000,9.80785302734375,0.0939016342163086,0.055718421936035156,0.000661022961139679
1772593671608116000,9.828115966796876,0.1438121795654297,0.08692407608032227,0.0009426772594451904
1772593671628380000,9.8483798828125,0.25534820556640625,0.15522098541259766,0.0018372312188148499
1772593671648644000,9.86864404296875,0.36686229705810547,0.22341299057006836,0.006373584270477295
1772593671668907000,9.888906982421876,0.41465282440185547,0.24466943740844727,0.011609196662902832
1772593671689171000,9.9091708984375,0.47188758850097656,0.2692880630493164,0.01821884512901306
1772593671709435000,9.929434814453124,0.5306148529052734,0.292633056640625,0.02585887908935547
1772593671729698000,9.949697998046876,0.5845794677734375,0.31151676177978516,0.03414881229400635
1772593671749962000,9.9699619140625,0.6319646835327148,0.3255910873413086,0.04297745227813721
1772593671770226000,9.990225830078124,0.6047019958496094,0.3039360046386719,0.04720097780227661
1772593671790489000,10.010489013671876,0.5732641220092773,0.2811856269836426,0.05038851499557495
1772593671810753000,10.0307529296875,0.5349464416503906,0.25630855560302734,0.051829993724823
1772593671831017000,10.051016845703124,0.42220115661621094,0.19970035552978516,0.044622600078582764
1772593671851280000,10.07127978515625,0.29782772064208984,0.13938665390014648,0.031638503074645996
1772593671871544000,10.0915439453125,0.19993019104003906,0.09444856643676758,0.021228671073913574
1772593671891808000,10.11180810546875,0.10011672973632812,0.04773759841918945,0.010608673095703125
1772593671912071000,10.13207080078125,0.003231048583984375,0.0015554428100585938,0.00034099817276000977
1772593671932335000,10.152335205078124,-0.09203529357910156,-0.04476356506347656,-0.00965660810470581
1772593671952599000,10.17259912109375,-0.18284034729003906,-0.0899052619934082,-0.018978893756866455
1772593671972862000,10.192862060546876,-0.26470375061035156,-0.1316056251525879,-0.027024447917938232
1772593671993126000,10.2131259765625,-0.344757080078125,-0.17344427108764648,-0.03442215919494629
1772593672013390000,10.23339013671875,-0.42063045501708984,-0.21450233459472656,-0.04121661186218262
1772593672033653000,10.253653076171876,-0.4864816665649414,-0.25138139724731445,-0.046864867210388184
1772593672053917000,10.2739169921875,-0.48651599884033203,-0.2526569366455078,-0.04550337791442871
1772593672074181000,10.29418115234375,-0.48447227478027344,-0.25328874588012695,-0.043642282485961914
1772593672094444000,10.314444091796876,-0.45975303649902344,-0.2466878890991211,-0.03528451919555664
