time,seconds_elapsed,z,y,x
1772593662043653000,0.263653076171875,5.368099689483643,-7.240963935852051,4.121318817138672
1772593662063916000,0.283916015625,5.34744930267334,-7.231686115264893,4.131195068359375
1772593662084180000,0.304179931640625,5.333683013916016,-7.223905086517334,4.14915132522583
1772593662104444000,0.32444384765625,5.303156852722168,-7.221810340881348,4.159626007080078
1772593662124707000,0.34470703125,5.257667064666748,-7.222408771514893,4.136881351470947
1772593662144971000,0.364970947265625,5.259761810302734,-7.223306655883789,4.125508785247803
1772593662165235000,0.38523486328125,5.232228755950928,-7.222707748413086,4.1087493896484375
1772593662185498000,0.405498046875,5.176862716674805,-7.249044418334961,4.102165222167969
1772593662205762000,0.425761962890625,5.140650272369385,-7.2667012214660645,4.060565948486328
1772593662226026000,0.44602587890625,5.185841083526611,-7.25413179397583,3.1582512855529785
1772593662246289000,0.466288818359375,5.211578369140625,-7.189488410949707,3.1286230087280273
1772593662266553000,0.486552978515625,5.143942356109619,-5.944204330444336,2.2385785579681396
1772593662286817000,0.506817138671875,3.8798038959503174,-5.067926406860352,2.205059766769409
1772593662307081000,0.5270810546875,-0.032022446393966675,-5.043385982513428,2.22660756111145
1772593662327344000,0.54734423828125,-0.038007952272892,-5.042787551879883,2.2544400691986084
1772593662347608000,0.567608154296875,1.3323732614517212,-5.012261390686035,2.2472574710845947
1772593662367872000,0.5878720703125,1.2874820232391357,-7.054215908050537,3.0651767253875732
1772593662388135000,0.608135009765625,2.1308395862579346,-12.590508460998535,4.359242916107178
1772593662408399000,0.628399169921875,1.380257248878479,-16.320674896240234,5.997176170349121
1772593662428663000,0.6486630859375,1.3973159790039062,-16.295536041259766,6.813000202178955
1772593662448926000,0.668926025390625,1.4628572463989258,-14.644433975219727,6.8052191734313965
1772593662469190000,0.68918994140625,1.4865000247955322,-11.341632843017578,6.7708024978637695
1772593662489454000,0.7094541015625,1.4933832883834839,-10.424653053283691,6.798934459686279
1772593662509717000,0.729717041015625,1.469441294670105,-10.4357271194458,6.852504730224609
1772593662529981000,0.74998095703125,1.4185645580291748,-10.444405555725098,6.901585578918457
1772593662550245000,0.7702451171875,1.338358759880066,-10.454880714416504,6.938994884490967
1772593662570508000,0.790508056640625,0.5150526165962219,-10.400412559509277,6.948272705078125
1772593662590772000,0.81077197265625,-0.5707178115844727,-10.360309600830078,6.89530086517334
1772593662611036000,0.831035888671875,-0.5758054852485657,-10.345345497131348,5.746084213256836
1772593662631299000,0.851299072265625,0.24570494890213013,-10.363601684570312,5.673360347747803
1772593662651563000,0.87156298828125,0.31932663917541504,-10.36180591583252,4.767753601074219
1772593662671827000,0.891826904296875,1.0534487962722778,-10.314519882202148,3.941155195236206
1772593662692090000,0.912090087890625,1.047163963317871,-9.327810287475586,3.8926727771759033
1772593662712354000,0.93235400390625,0.998681366443634,-9.276932716369629,3.8492777347564697
1772593662732618000,0.952617919921875,0.9328408241271973,-9.234735488891602,3.815459728240967
1772593662752881000,0.972880859375,0.8729857802391052,-9.247604370117188,3.8268320560455322
1772593662773145000,0.99314501953125,0.8242039084434509,-9.314043045043945,3.886387825012207
1772593662793409000,1.013408935546875,-0.0065840547904372215,-10.122983932495117,3.9549219608306885
1772593662813672000,1.033671875,-0.044592007994651794,-10.128071784973145,3.9917328357696533
1772593662833936000,1.053935791015625,-0.1032499447464943,-10.082283020019531,3.9665937423706055
1772593662854200000,1.074199951171875,-0.15113398432731628,-9.29189682006836,3.8830959796905518
1772593662874463000,1.094462890625,-0.2157774269580841,-9.224559783935547,3.1390976905822754
1772593662894727000,1.114726806640625,-0.9950900673866272,-8.293813705444336,3.079242706298828
1772593662914991000,1.1349912109375,-1.0187327861785889,-7.4094557762146,2.1703438758850098
1772593662935254000,1.15525390625,-1.0396820306777954,-7.3558855056762695,2.1164743900299072
1772593662955518000,1.17551806640625,-1.0360907316207886,-6.332663536071777,1.3661913871765137
1772593662975782000,1.195781982421875,-1.0330979824066162,-6.271012783050537,1.34823477268219
1772593662996045000,1.216045166015625,-1.0247182846069336,-5.40101957321167,1.3581109046936035
1772593663016309000,1.23630908203125,-1.0307037830352783,-5.391442775726318,1.4200608730316162
1772593663036573000,1.256572998046875,-1.0968436002731323,-6.2404866218566895,3.5544917583465576
1772593663056836000,1.276836181640625,-1.9455881118774414,-7.900267124176025,6.462548732757568
1772593663077100000,1.29710009765625,-3.3004069328308105,-9.679757118225098,9.72734260559082
1772593663097364000,1.317364013671875,-4.157830715179443,-9.727641105651855,11.707047462463379
1772593663117627000,1.337626953125,-4.19224739074707,-9.696816444396973,11.704054832458496
1772593663137891000,1.35789111328125,-4.160224914550781,-9.70310115814209,9.899425506591797
1772593663158155000,1.378155029296875,-4.083011627197266,-10.79964542388916,8.867524147033691
1772593663178418000,1.39841796875,-0.596754789352417,-10.805331230163574,6.1530985832214355
1772593663198682000,1.41868212890625,0.25318682193756104,-9.744999885559082,3.908534288406372
1772593663218946000,1.438946044921875,0.218171626329422,-8.054693222045898,2.6907835006713867
1772593663239209000,1.459208984375,0.24929624795913696,-6.868366241455078,1.2841899394989014
1772593663259473000,1.479472900390625,1.1109095811843872,-6.933608055114746,0.47465047240257263
1772593663279737000,1.499737060546875,2.149095296859741,-9.75278091430664,0.48632222414016724
1772593663300000000,1.52,2.0533273220062256,-11.129446983337402,0.46836569905281067
1772593663320264000,1.540263916015625,1.02561616897583,-11.845013618469238,0.4836287498474121
1772593663340528000,1.560528076171875,0.9358335733413696,-11.808801651000977,0.5183446407318115
1772593663360791000,1.580791015625,0.10025719553232193,-11.722908973693848,0.5958569645881653
1772593663381055000,1.601054931640625,0.11641805619001389,-10.415675163269043,1.3754688501358032
1772593663401319000,1.62131884765625,0.20111294090747833,-9.49809741973877,1.4446014165878296
1772593663421582000,1.64158203125,1.0902595520019531,-9.456198692321777,2.2077531814575195
1772593663441846000,1.661845947265625,1.0477625131607056,-9.412505149841309,2.251148223876953
1772593663462110000,1.68210986328125,0.9735422730445862,-9.370606422424316,2.270002603530884
1772593663482373000,1.702373046875,0.9139865040779114,-9.34397029876709,2.2568342685699463
1772593663502637000,1.722636962890625,0.8508394360542297,-9.338883399963379,2.222717046737671
1772593663522901000,1.74290087890625,0.8101379871368408,-9.32302188873291,2.151489496231079
1772593663543164000,1.763163818359375,0.7386112213134766,-9.342175483703613,2.0931308269500732
1772593663563428000,1.783427978515625,-0.30555999279022217,-9.408913612365723,2.067093849182129
1772593663583692000,1.803692138671875,-0.32531216740608215,-9.482535362243652,2.0754735469818115
1772593663603956000,1.8239560546875,-0.320523738861084,-10.369287490844727,2.128145933151245
1772593663624219000,1.844218994140625,-0.34685996174812317,-10.418967247009277,3.12772536277771
1772593663644483000,1.864483154296875,-0.3381809890270233,-10.47134017944336,3.1989526748657227
1772593663664747000,1.8847470703125,-0.24929624795913696,-10.503362655639648,4.055777549743652
1772593663685010000,1.905010009765625,0.6278793811798096,-11.257535934448242,4.881178855895996
1772593663705274000,1.925274169921875,0.6060323119163513,-12.207137107849121,6.223428249359131
1772593663725538000,1.9455380859375,-0.28311434388160706,-12.290334701538086,7.049128532409668
1772593663745801000,1.965801025390625,-0.3438672125339508,-12.350789070129395,6.180631637573242
1772593663766065000,1.98606494140625,-0.35045126080513,-13.075333595275879,5.05026912689209
1772593663786329000,2.0063291015625,-0.2726397216320038,-13.089998245239258,3.6951510906219482
1772593663806592000,2.026592041015625,0.4635773003101349,-13.059771537780762,2.527977705001831
1772593663826856000,2.04685595703125,0.5042787194252014,-11.882721900939941,2.436998128890991
1772593663847120000,2.067119873046875,0.5467758178710938,-10.876559257507324,1.622071623802185
1772593663867383000,2.087383056640625,0.5677250623703003,-9.992799758911133,1.5978304147720337
1772593663887647000,2.10764697265625,0.5279214978218079,-9.905410766601562,1.5753847360610962
1772593663907911000,2.127910888671875,-0.42048168182373047,-9.18505573272705,1.5580267906188965
1772593663928174000,2.148174072265625,-0.3932476341724396,-9.255385398864746,1.55712890625
1772593663948438000,2.16843798828125,0.424970805644989,-9.932644844055176,1.5185223817825317
1772593663968702000,2.188701904296875,0.43424832820892334,-9.867103576660156,0.5159504413604736
1772593663988965000,2.208965087890625,0.43754035234451294,-8.597278594970703,0.4605845510959625
1772593664009229000,2.22922900390625,0.4100070297718048,-7.660846710205078,-0.2753331959247589
1772593664029493000,2.249492919921875,0.3522469103336334,-6.818686485290527,-0.2735375463962555
1772593664049756000,2.269755859375,-0.48243165016174316,-6.741473197937012,-0.28730419278144836
1772593664070020000,2.29002001953125,-0.4908113479614258,-5.9753289222717285,-0.3396773636341095
1772593664090284000,2.310283935546875,-0.5006874203681946,-5.906495571136475,-0.4109048545360565
1772593664110547000,2.330546875,-0.524330198764801,-5.837363243103027,-0.4734533727169037
1772593664130811000,2.350810791015625,-0.586579442024231,-5.179555892944336,-0.47584760189056396
1772593664151075000,2.371074951171875,-1.8186954259872437,-6.839635848999023,0.8798691034317017
1772593664171338000,2.391337890625,-3.792116165161133,-9.701904296875,3.6436758041381836
1772593664191602000,2.411601806640625,-5.774814605712891,-12.864344596862793,6.4846954345703125
1772593664211866000,2.4318662109375,-5.867888927459717,-13.861230850219727,7.369652271270752
1772593664232129000,2.45212890625,-6.5622076988220215,-12.744036674499512,7.350797653198242
1772593664252393000,2.47239306640625,-4.454113006591797,-11.07258415222168,5.7212443351745605
1772593664272657000,2.492656982421875,-3.5278561115264893,-11.109095573425293,3.8388030529022217
1772593664292920000,2.512920166015625,0.30226796865463257,-13.039121627807617,2.8272528648376465
1772593664313184000,2.53318408203125,0.3809773325920105,-12.061090469360352,2.7410616874694824
1772593664333448000,2.553447998046875,0.2861070930957794,-10.793660163879395,1.5292962789535522
1772593664353711000,2.573711181640625,0.32172083854675293,-9.650728225708008,0.7529764175415039
1772593664373975000,2.59397509765625,1.2853870391845703,-9.638157844543457,-0.009576806798577309
1772593664394239000,2.614239013671875,2.1140801906585693,-10.570999145507812,-0.07032967358827591
1772593664414502000,2.634501953125,2.08864164352417,-10.6524019241333,-0.10055647045373917
1772593664434766000,2.65476611328125,1.2665326595306396,-10.711658477783203,-0.08798690885305405
1772593664455030000,2.675030029296875,0.4734533727169037,-10.71674633026123,-0.013168109580874443
1772593664475293000,2.69529296875,0.48303020000457764,-10.648510932922363,0.9250596761703491
1772593664495557000,2.71555712890625,0.5162497162818909,-9.889549255371094,1.876455545425415
1772593664515821000,2.735821044921875,0.5527613162994385,-9.801262855529785,1.9626468420028687
1772593664536084000,2.756083984375,0.5997475385665894,-9.044096946716309,2.9373862743377686
1772593664556348000,2.776347900390625,0.5755062103271484,-9.002497673034668,2.9724013805389404
1772593664576612000,2.796612060546875,-0.30885201692581177,-8.964190483093262,2.9122471809387207
1772593664596875000,2.816875,-0.38965633511543274,-8.973767280578613,2.036867141723633
1772593664617139000,2.837138916015625,-0.43095630407333374,-9.041104316711426,1.998859167098999
1772593664637413000,2.8574130859375,-0.4869207739830017,-9.094375610351562,1.9794062376022339
1772593664657677000,2.877677001953125,-0.5363011956214905,-9.145551681518555,1.9722236394882202
1772593664677941000,2.89794091796875,-0.5168482661247253,-9.16081428527832,1.9611504077911377
1772593664698204000,2.918203857421875,-0.4345476031303406,-9.150938034057617,1.9473837614059448
1772593664718468000,2.938468017578125,-0.39234980940818787,-9.134777069091797,1.932719349861145
1772593664738732000,2.95873193359375,-0.3438672125339508,-9.17936897277832,1.9470845460891724
1772593664758995000,2.978994873046875,-0.30526071786880493,-9.914090156555176,1.9692308902740479
1772593664779259000,2.9992587890625,-0.2472013235092163,-9.963470458984375,2.047940254211426
1772593664799523000,3.019523193359375,0.4540005028247833,-10.020631790161133,3.0493152141571045
1772593664819786000,3.039785888671875,0.4528034031391144,-10.075698852539062,3.9339725971221924
1772593664840050000,3.0600498046875,0.40611645579338074,-10.848726272583008,4.955698013305664
1772593664860314000,3.080314208984375,-0.41868603229522705,-10.85022258758545,6.224325656890869
1772593664880577000,3.100576904296875,-1.2419921159744263,-10.918158531188965,7.023989200592041
1772593664900841000,3.120841064453125,-1.2910733222961426,-11.924321174621582,7.042544364929199
1772593664921105000,3.14110498046875,-1.292868971824646,-12.94066047668457,6.282385349273682
1772593664941368000,3.1613681640625,-0.4572925269603729,-13.926472663879395,4.711789131164551
1772593664961632000,3.181632080078125,0.5895721912384033,-13.920487403869629,3.6966474056243896
1772593664981896000,3.20189599609375,0.6664859056472778,-12.830825805664062,3.624821424484253
1772593665002159000,3.2221591796875,0.7146692276000977,-11.439196586608887,3.576937437057495
1772593665022423000,3.242423095703125,0.7413046956062317,-10.119093894958496,3.580528736114502
1772593665042687000,3.26268701171875,0.7248445749282837,-10.029610633850098,3.607164144515991
1772593665062950000,3.282949951171875,0.7122750282287598,-9.198522567749023,3.623624324798584
1772593665083214000,3.303214111328125,0.7242460250854492,-9.212589263916016,3.5661635398864746
1772593665103478000,3.32347802734375,0.7670423984527588,-9.254786491394043,2.6907835006713867
1772593665123741000,3.343740966796875,0.8337807655334473,-9.25748062133789,2.652775526046753
1772593665144005000,3.364005126953125,1.5852607488632202,-9.185953140258789,2.5899276733398438
1772593665164269000,3.38426904296875,1.6211738586425781,-8.26478385925293,1.6980875730514526
1772593665184532000,3.404531982421875,1.646312952041626,-8.237549781799316,1.66696298122406
1772593665204796000,3.4247958984375,1.6816273927688599,-8.294113159179688,1.6457144021987915
1772593665225060000,3.44506005859375,1.7310078144073486,-8.368034362792969,1.5960347652435303
1772593665245323000,3.465322998046875,1.800439715385437,-8.423100471496582,0.7332242727279663
1772593665265587000,3.4855869140625,2.476203203201294,-8.481459617614746,0.6949170231819153
1772593665285851000,3.505850830078125,2.420837163925171,-8.544905662536621,0.6248866319656372
1772593665306114000,3.526114013671875,2.3535003662109375,-9.279027938842773,-0.19632454216480255
1772593665326378000,3.5463779296875,1.622071623802185,-9.34037971496582,-0.21877017617225647
1772593665346642000,3.566641845703125,1.589151382446289,-9.374197006225586,-0.2944868206977844
1772593665366905000,3.586905029296875,1.559523105621338,-9.394248962402344,-1.1237784624099731
1772593665387169000,3.6071689453125,1.5089455842971802,-9.435548782348633,-1.181837797164917
1772593665407433000,3.627432861328125,0.5377975702285767,-9.461885452270508,-2.1586720943450928
1772593665427696000,3.647696044921875,0.4737526476383209,-9.470863342285156,-2.2316951751708984
1772593665447960000,3.6679599609375,0.4321534037590027,-9.446621894836426,-3.432387351989746
1772593665468224000,3.68822412109375,0.4602852761745453,-10.233416557312012,-4.29250431060791
1772593665488487000,3.70848681640625,0.5366004705429077,-11.050138473510742,-4.380790710449219
1772593665508751000,3.728751220703125,1.4673463106155396,-13.543400764465332,-4.282927513122559
1772593665529015000,3.74901513671875,0.4043208062648773,-16.592416763305664,-1.304241418838501
1772593665549278000,3.76927783203125,-3.722684383392334,-15.734992980957031,0.19303251802921295
1772593665569542000,3.7895419921875,-3.630507707595825,-14.7572603225708,3.4751837253570557
1772593665589806000,3.80980615234375,-1.8171991109848022,-13.862128257751465,4.346972465515137
1772593665610069000,3.830069091796875,-0.2717418968677521,-13.011588096618652,4.370016574859619
1772593665630333000,3.8503330078125,0.9903016686439514,-12.116456031799316,4.3320088386535645
1772593665650597000,3.87059716796875,0.9750386476516724,-12.02188491821289,3.372532367706299
1772593665670860000,3.890860107421875,0.1397615224123001,-11.139023780822754,2.1149778366088867
1772593665691124000,3.9111240234375,0.18405425548553467,-11.079168319702148,1.0070611238479614
1772593665711388000,3.931387939453125,0.9484031200408936,-10.183138847351074,0.9672574996948242
1772593665731651000,3.951651123046875,0.9187749028205872,-10.102334022521973,0.9576807022094727
1772593665751915000,3.9719150390625,0.9316437244415283,-10.054450035095215,0.9241618514060974
1772593665772179000,3.992178955078125,0.9660604000091553,-10.039785385131836,0.18285715579986572
1772593665792442000,4.012442138671875,0.9531915783882141,-10.023923873901367,0.13617022335529327
1772593665812706000,4.0327060546875,0.9564836025238037,-10.03619384765625,0.20949265360832214
1772593665832970000,4.052969970703125,0.9510966539382935,-10.061333656311035,1.126172661781311
1772593665853233000,4.07323291015625,0.9573814272880554,-10.045172691345215,1.128267526626587
1772593665873497000,4.0934970703125,0.9909002184867859,-9.999382972717285,1.1097124814987183
1772593665893761000,4.113760986328125,1.0441712141036987,-9.93474006652832,1.1180921792984009
1772593665914024000,4.13402392578125,1.103128433227539,-9.866206169128418,1.1210849285125732
1772593665934288000,4.154287841796875,1.0860697031021118,-9.837176322937012,1.0980406999588013
1772593665954552000,4.174552001953125,1.0663175582885742,-9.82191276550293,1.0785878896713257
1772593665974816000,4.19481591796875,1.047163963317871,-9.81024169921875,1.0854711532592773
1772593665995079000,4.215078857421875,1.038185715675354,-9.783605575561523,1.0968436002731323
1772593666015343000,4.235343017578125,1.068711757659912,-9.763854026794434,1.1097124814987183
1772593666035607000,4.25560693359375,1.083974838256836,-9.737517356872559,1.1150994300842285
1772593666055870000,4.275869873046875,1.1186907291412354,-9.715670585632324,1.1195886135101318
1772593666076134000,4.2961337890625,1.1893197298049927,-9.700407028198242,1.1204863786697388
1772593666096398000,4.316398193359375,2.009333848953247,-9.69382381439209,1.1513117551803589
1772593666116661000,4.336660888671875,2.8505964279174805,-9.715970039367676,1.1982979774475098
1772593666136925000,4.356925048828125,2.8452093601226807,-10.945093154907227,1.9297266006469727
1772593666157189000,4.377189208984375,2.801215887069702,-11.87763500213623,1.968033790588379
1772593666177452000,4.3974521484375,2.722805976867676,-11.939285278320312,2.748244285583496
1772593666197716000,4.417716064453125,2.0195090770721436,-12.804490089416504,2.7650036811828613
1772593666217980000,4.43797998046875,2.0066401958465576,-12.820052146911621,2.748842716217041
1772593666238243000,4.4582431640625,1.1342530250549316,-12.809876441955566,1.985990285873413
1772593666258507000,4.478507080078125,0.16849194467067719,-12.790124893188477,1.1142016649246216
1772593666278771000,4.49877099609375,-0.9154828786849976,-12.739248275756836,1.049857497215271
1772593666299034000,4.5190341796875,-0.9974842667579651,-12.70483112335205,0.9920973181724548
1772593666319298000,4.539298095703125,-1.0651204586029053,-12.665626525878906,0.9920973181724548
1772593666339562000,4.55956201171875,-1.0746972560882568,-11.638513565063477,1.0208277702331543
1772593666359825000,4.579824951171875,-1.0115501880645752,-10.834660530090332,1.0630255937576294
1772593666380089000,4.600089111328125,0.712574303150177,-10.044573783874512,1.0749965906143188
1772593666400353000,4.62035302734375,1.7630302906036377,-9.998485565185547,1.0357915163040161
1772593666420616000,4.640615966796875,1.8294693231582642,-9.24940013885498,0.9801263213157654
1772593666440880000,4.660880126953125,1.8309657573699951,-9.229647636413574,0.9169792532920837
1772593666461144000,4.68114404296875,1.050755262374878,-9.221866607666016,0.8454524874687195
1772593666481407000,4.701406982421875,0.10474632680416107,-9.245509147644043,0.7972691655158997
1772593666501671000,4.7216708984375,0.030226796865463257,-9.31613826751709,0.760757565498352
1772593666521935000,4.74193505859375,-0.016160860657691956,-10.047266960144043,0.7251438498497009
1772593666542198000,4.762197998046875,-0.058059390634298325,-10.096946716308594,0.6988075971603394
1772593666562462000,4.7824619140625,-0.11013327538967133,-10.14094066619873,0.6479308605194092
1772593666582726000,4.802725830078125,-0.15891513228416443,-10.117597579956055,-0.3208230137825012
1772593666602989000,4.822989013671875,-0.18794482946395874,-9.359533309936523,-0.3618237376213074
1772593666623253000,4.8432529296875,-0.21128830313682556,-8.569746017456055,-0.41629183292388916
1772593666643517000,4.863516845703125,-0.2819172441959381,-7.79372501373291,-0.46896424889564514
1772593666663780000,4.883780029296875,-0.3348889648914337,-6.9940619468688965,-0.517746090888977
1772593666684044000,4.9040439453125,-0.39055415987968445,-6.153397560119629,-0.5943605899810791
1772593666704308000,4.924307861328125,-0.43843817710876465,-6.100425720214844,-0.6362590789794922
1772593666724571000,4.94457080078125,-0.5051765441894531,-6.093842029571533,-0.634762704372406
1772593666744835000,4.9648349609375,-1.2536638975143433,-6.138134479522705,0.35434186458587646
1772593666765099000,4.98509912109375,-1.2982559204101562,-7.466617107391357,1.412279725074768
1772593666785362000,5.00536181640625,-2.425924777984619,-10.251073837280273,4.156932830810547
1772593666805626000,5.025626220703125,-3.530250310897827,-12.498929977416992,6.392817974090576
1772593666825890000,5.04589013671875,-4.411316394805908,-12.551901817321777,6.4828996658325195
1772593666846153000,5.066153076171875,-3.3581671714782715,-12.574646949768066,6.4164605140686035
1772593666866417000,5.0864169921875,-1.8926163911819458,-13.744812965393066,4.732738018035889
1772593666886681000,5.10668115234375,-1.8836381435394287,-14.843452453613281,3.0352492332458496
1772593666906944000,5.126944091796875,-1.820491075515747,-14.780903816223145,1.9273324012756348
1772593666927208000,5.1472080078125,-1.768417239189148,-12.999018669128418,1.0654197931289673
1772593666947472000,5.167471923828125,-1.058536410331726,-9.881768226623535,0.2585737705230713
1772593666967735000,5.187735107421875,-1.0357915163040161,-8.482955932617188,-0.7260416746139526
1772593666987999000,5.2079990234375,0.039205051958560944,-7.360673904418945,-2.4717140197753906
1772593667008263000,5.228262939453125,1.2575544118881226,-7.43489408493042,-3.438971519470215
1772593667028526000,5.248526123046875,3.144484758377075,-8.286931037902832,-3.367743968963623
1772593667048790000,5.2687900390625,3.2178070545196533,-9.201516151428223,-2.191891670227051
1772593667069054000,5.289053955078125,3.151667356491089,-9.24371337890625,-1.0411784648895264
1772593667089317000,5.309317138671875,1.7151461839675903,-9.993996620178223,0.12000936269760132
1772593667109581000,5.3295810546875,0.3669114112854004,-10.044873237609863,1.4469956159591675
1772593667129845000,5.349844970703125,-0.37798458337783813,-10.059837341308594,2.257133722305298
1772593667150108000,5.37010791015625,-0.3672106862068176,-9.994894027709961,2.276885747909546
1772593667170372000,5.3903720703125,-0.29867666959762573,-9.091980934143066,2.272696018218994
1772593667190636000,5.410635986328125,0.44592007994651794,-9.057564735412598,2.2304980754852295
1772593667210899000,5.43089892578125,0.49559974670410156,-9.041104316711426,2.1664533615112305
1772593667231163000,5.451162841796875,0.5300164222717285,-9.103353500366211,1.3748703002929688
1772593667251427000,5.471427001953125,0.5273229479789734,-9.952995300292969,1.3623007535934448
1772593667271691000,5.49169091796875,0.5204395651817322,-9.976339340209961,1.3754688501358032
1772593667291954000,5.511953857421875,0.5380968451499939,-9.973944664001465,1.4287399053573608
1772593667312218000,5.532218017578125,0.5689221620559692,-9.950302124023438,3.1786019802093506
1772593667332482000,5.55248193359375,0.618302583694458,-9.934440612792969,3.277362823486328
1772593667352745000,5.572744873046875,0.6898293495178223,-9.961075782775879,4.222474098205566
1772593667373009000,5.5930087890625,0.7269394993782043,-11.063007354736328,4.976348400115967
1772593667393273000,5.613273193359375,0.7257423996925354,-11.993154525756836,5.054159641265869
1772593667413536000,5.633535888671875,-0.08798690885305405,-12.886491775512695,5.724835395812988
1772593667433800000,5.653800048828125,-0.9175778031349182,-12.930484771728516,4.634575843811035
1772593667454064000,5.674064208984375,-0.9367313981056213,-12.962507247924805,3.8067808151245117
1772593667474327000,5.6943271484375,-0.899621307849884,-12.94874095916748,3.747823476791382
1772593667494591000,5.714591064453125,-0.13018471002578735,-12.95801830291748,2.572270393371582
1772593667514855000,5.73485498046875,-0.1445499211549759,-13.022063255310059,1.7636288404464722
1772593667535118000,5.7551181640625,-0.19782091677188873,-13.679571151733398,1.7052701711654663
1772593667555382000,5.775382080078125,-0.2421136498451233,-11.963227272033691,0.8559271097183228
1772593667575646000,5.79564599609375,-0.19602526724338531,-10.298060417175293,0.8430582880973816
1772593667595909000,5.8159091796875,-0.11282675713300705,-9.000701904296875,0.8780734539031982
1772593667616173000,5.836173095703125,0.6141127347946167,-7.962815761566162,1.8171991109848022
1772593667636437000,5.85643701171875,0.5781996846199036,-7.929895401000977,2.5564088821411133
1772593667656700000,5.876699951171875,0.5348048210144043,-7.917325973510742,2.596212387084961
1772593667676964000,5.896964111328125,0.4737526476383209,-7.914931774139404,2.592621088027954
1772593667697228000,5.91722802734375,-0.56233811378479,-7.884106159210205,2.544437885284424
1772593667717491000,5.937490966796875,-0.6197989583015442,-7.8092875480651855,1.764526605606079
1772593667737755000,5.9577548828125,-0.6694786548614502,-6.9940619468688965,1.7265187501907349
1772593667758019000,5.97801904296875,-0.690727174282074,-6.971915245056152,1.6870143413543701
1772593667778282000,5.998281982421875,-0.7035959959030151,-6.942885875701904,1.6352397203445435
1772593667798546000,6.0185458984375,-0.7230489253997803,-6.9042792320251465,1.581070899963379
1772593667818810000,6.03881005859375,-0.7164648771286011,-6.884826183319092,1.5523405075073242
1772593667839073000,6.059072998046875,-0.7362170219421387,-6.907571315765381,1.6418237686157227
1772593667859337000,6.0793369140625,-1.5101426839828491,-6.998850345611572,3.0756514072418213
1772593667879601000,6.099600830078125,-1.5325883626937866,-8.499116897583008,5.680243492126465
1772593667899864000,6.119864013671875,-2.4130561351776123,-9.823708534240723,7.078457355499268
1772593667920128000,6.1401279296875,-3.5176808834075928,-10.682928085327148,8.917503356933594
1772593667940392000,6.160391845703125,-4.364330291748047,-10.696694374084473,10.131962776184082
1772593667960655000,6.180655029296875,-4.266766548156738,-11.577162742614746,10.066421508789062
1772593667980919000,6.2009189453125,-2.7048494815826416,-12.901754379272461,8.690353393554688
1772593668001183000,6.221182861328125,-1.8492215871810913,-12.838906288146973,5.175665378570557
1772593668021446000,6.24144580078125,-1.7573440074920654,-11.575366973876953,3.897461175918579
1772593668041710000,6.2617099609375,-0.7053917050361633,-10.643424034118652,2.7614123821258545
1772593668061974000,6.28197412109375,-0.7038952708244324,-9.84615421295166,2.0054430961608887
1772593668082237000,6.30223681640625,-0.734122097492218,-9.093177795410156,1.9261353015899658
1772593668102501000,6.322501220703125,0.31274259090423584,-8.229470252990723,1.0130466222763062
1772593668122765000,6.34276513671875,2.5680806636810303,-8.178592681884766,0.14514847099781036
1772593668143028000,6.363028076171875,3.468599796295166,-8.131906509399414,0.13766659796237946
1772593668163292000,6.3832919921875,3.487753391265869,-8.096890449523926,0.1933317929506302
1772593668183556000,6.40355615234375,3.383007049560547,-8.13100814819336,1.126172661781311
1772593668203819000,6.423819091796875,2.0563199520111084,-8.17949104309082,2.0655975341796875
1772593668224083000,6.4440830078125,2.0078372955322266,-8.233659744262695,3.078644037246704
1772593668244347000,6.464346923828125,2.0248961448669434,-8.251914978027344,3.8453872203826904
1772593668264610000,6.484610107421875,2.091035842895508,-8.298901557922363,3.852569818496704
1772593668284874000,6.5048740234375,2.137423515319824,-8.359953880310059,3.8821980953216553
1772593668305138000,6.525137939453125,2.1128830909729004,-8.418611526489258,3.8938698768615723
1772593668325401000,6.545401123046875,2.0835540294647217,-8.440159797668457,3.8723220825195312
1772593668345665000,6.5656650390625,2.097919225692749,-8.446444511413574,3.819350242614746
1772593668365929000,6.585928955078125,2.167949676513672,-8.43896198272705,3.029263734817505
1772593668386192000,6.60619189453125,2.166752576828003,-8.485649108886719,2.995445489883423
1772593668406456000,6.6264560546875,2.1161749362945557,-8.541314125061035,2.961029052734375
1772593668426720000,6.646719970703125,1.3512276411056519,-8.59069538116455,2.9688100814819336
1772593668446983000,6.66698291015625,1.3626000881195068,-8.644564628601074,3.9309799671173096
1772593668467247000,6.6872470703125,1.4227544069290161,-9.394248962402344,5.019443988800049
1772593668487511000,6.707510986328125,1.4685434103012085,-9.43255615234375,5.103240966796875
1772593668507774000,6.72777392578125,1.523011565208435,-9.4915132522583,5.860107898712158
1772593668528038000,6.748037841796875,1.5164275169372559,-10.695497512817383,5.913079738616943
1772593668548302000,6.768302001953125,0.6197989583015442,-11.546935081481934,7.089231014251709
1772593668568566000,6.78856591796875,0.5461772680282593,-12.31517505645752,7.164050102233887
1772593668588829000,6.808828857421875,-0.38995561003685,-12.381613731384277,7.16315221786499
1772593668609093000,6.829093017578125,-0.3935469090938568,-12.40735149383545,5.888838291168213
1772593668629357000,6.849357177734375,-0.37559038400650024,-12.410643577575684,4.311657905578613
1772593668649620000,6.869619873046875,-0.3181295394897461,-12.394782066345215,2.9071593284606934
1772593668669884000,6.8898837890625,-0.29239189624786377,-12.364255905151367,1.789965033531189
1772593668690148000,6.910148193359375,-0.2834136188030243,-12.306795120239258,1.703474521636963
1772593668710411000,6.930410888671875,-0.30945056676864624,-12.25083065032959,1.047163963317871
1772593668730675000,6.950675048828125,-0.333991140127182,-12.205639839172363,2.3693618774414062
1772593668750939000,6.97093896484375,-0.3256114423274994,-12.149974822998047,2.4459762573242188
1772593668771202000,6.9912021484375,-0.31872808933258057,-11.185111999511719,2.5049335956573486
1772593668791466000,7.011466064453125,-0.3190273642539978,-11.121964454650879,2.5109190940856934
1772593668811730000,7.03172998046875,-0.3444657623767853,-10.327089309692383,2.4600422382354736
1772593668831993000,7.0519931640625,-0.37469255924224854,-9.57201862335205,2.3912088871002197
1772593668852257000,7.072257080078125,-0.38965633511543274,-8.632892608642578,2.319382905960083
1772593668872521000,7.09252099609375,-0.4129997789859772,-7.656058311462402,1.601720929145813
1772593668892784000,7.1127841796875,-0.42766427993774414,-7.600093841552734,1.5613187551498413
1772593668913048000,7.133048095703125,-0.4605845510959625,-7.527669429779053,1.5286977291107178
1772593668933312000,7.15331201171875,-0.47884035110473633,-7.4567413330078125,1.5248072147369385
1772593668953575000,7.173574951171875,-0.4917091727256775,-7.435492515563965,1.5436615943908691
1772593668973839000,7.193839111328125,-0.5207388401031494,-7.48726749420166,2.375347375869751
1772593668994103000,7.21410302734375,-0.5731120109558105,-9.335591316223145,3.711012601852417
1772593669014366000,7.234365966796875,-1.7301100492477417,-10.718542098999023,5.2899885177612305
1772593669034630000,7.2546298828125,-2.4962544441223145,-11.62295150756836,7.993042469024658
1772593669054894000,7.27489404296875,-2.583343744277954,-12.439972877502441,9.19433307647705
1772593669075157000,7.295156982421875,-2.631227731704712,-12.520478248596191,10.719738960266113
1772593669095421000,7.3154208984375,-1.6651673316955566,-13.30218505859375,11.470620155334473
1772593669115685000,7.33568505859375,-1.5879542827606201,-13.327323913574219,10.696394920349121
1772593669135948000,7.355947998046875,-1.5601216554641724,-13.386580467224121,9.228450775146484
1772593669156212000,7.3762119140625,-0.4031237065792084,-13.402741432189941,7.585130214691162
1772593669176476000,7.396475830078125,0.414795458316803,-13.423391342163086,6.690896034240723
1772593669196739000,7.416739013671875,0.37888240814208984,-13.417106628417969,5.795763969421387
1772593669217003000,7.4370029296875,0.37648820877075195,-12.671012878417969,4.697423934936523
1772593669237267000,7.457266845703125,0.3378817141056061,-11.719318389892578,4.660313606262207
1772593669257530000,7.477530029296875,0.3034650683403015,-10.629956245422363,5.679944038391113
1772593669277794000,7.4977939453125,0.3001730442047119,-9.266159057617188,8.62630844116211
1772593669298058000,7.51805810546875,0.297778844833374,-8.002020835876465,10.08198356628418
1772593669318321000,7.53832080078125,0.30226796865463257,-7.102997779846191,11.112088203430176
1772593669338585000,7.558585205078125,0.33518823981285095,-6.16566801071167,11.017816543579102
1772593669358849000,7.57884912109375,0.38576576113700867,-6.090549945831299,8.043620109558105
1772593669379112000,7.59911181640625,0.46507367491722107,-4.809053421020508,6.549637794494629
1772593669399376000,7.6193759765625,1.3503297567367554,-3.3446998596191406,4.6489410400390625
1772593669419640000,7.63964013671875,2.235585927963257,-2.592621088027954,2.997241258621216
1772593669439903000,7.659903076171875,3.1495723724365234,-2.558204412460327,1.6941969394683838
1772593669460167000,7.6801669921875,3.2067339420318604,-2.522890090942383,0.6964133977890015
1772593669480431000,7.70043115234375,3.9839515686035156,-1.7561469078063965,-0.1289876103401184
1772593669500694000,7.720694091796875,4.995202541351318,-0.9678560495376587,-0.9795277714729309
1772593669520958000,7.7409580078125,5.907991886138916,-0.2008136659860611,-1.0351929664611816
1772593669541222000,7.761221923828125,5.991788864135742,0.5488707423210144,-1.062427043914795
1772593669561485000,7.781485107421875,6.89410400390625,0.5973533391952515,-1.0235211849212646
1772593669581749000,7.8017490234375,7.795520782470703,0.6269815564155579,-0.9358335733413696
1772593669602013000,7.822012939453125,7.880814075469971,0.5931634902954102,0.24929624795913696
1772593669622276000,7.842276123046875,7.929296970367432,0.5195417404174805,1.0740987062454224
1772593669642540000,7.8625400390625,7.932888031005859,0.5102642178535461,1.0348936319351196
1772593669662804000,7.882803955078125,7.0772600173950195,0.558447539806366,0.17717093229293823
1772593669683067000,7.90306689453125,6.155492782592773,1.5792752504348755,0.13826514780521393
1772593669703331000,7.9233310546875,6.086359977722168,1.653794765472412,0.07990647852420807
1772593669723595000,7.943594970703125,6.284181118011475,2.500145196914673,0.023044191300868988
1772593669743858000,7.96385791015625,6.364386558532715,2.5707740783691406,-1.0797849893569946
1772593669764122000,7.9841220703125,7.4211273193359375,3.41951847076416,-1.136048674583435
1772593669784386000,8.004385986328124,8.233659744262695,3.4928410053253174,-1.192013144493103
1772593669804649000,8.02464892578125,9.46607494354248,3.552995204925537,-1.9704279899597168
1772593669824913000,8.044912841796876,10.406397819519043,3.610156774520874,-1.998559832572937
1772593669845177000,8.065177001953124,10.384551048278809,3.637690305709839,-2.011728048324585
1772593669865441000,8.08544091796875,9.335591316223145,3.6472671031951904,-2.041954755783081
1772593669885704000,8.105703857421876,9.281721115112305,3.7020344734191895,-2.0712838172912598
1772593669905968000,8.125968017578124,9.265859603881836,4.553173065185547,-2.04315185546875
1772593669926232000,8.146232177734374,9.28142261505127,4.562749862670898,-1.0899603366851807
1772593669946495000,8.166494873046876,9.317035675048828,4.55496883392334,-1.0145429372787476
1772593669966759000,8.186759033203124,9.364620208740234,4.507084846496582,-0.1711854189634323
1772593669987023000,8.207023193359374,9.415497779846191,3.581127166748047,0.6060323119163513
1772593670007286000,8.2272861328125,9.493907928466797,3.5293526649475098,0.6494272351264954
1772593670027550000,8.247550048828124,9.538200378417969,3.468001127243042,0.6652888059616089
1772593670047814000,8.26781396484375,9.54897403717041,3.4159271717071533,0.6593033075332642
1772593670068077000,8.2880771484375,9.541492462158203,3.368941068649292,0.6338648796081543
1772593670088341000,8.308341064453124,9.529520988464355,3.321057081222534,0.6009446382522583
1772593670108605000,8.32860498046875,9.495702743530273,3.24953031539917,0.5683236122131348
1772593670128868000,8.3488681640625,9.462782859802246,3.207631826400757,0.5704185366630554
1772593670149132000,8.369132080078124,9.435848236083984,3.1833903789520264,0.5704185366630554
1772593670169396000,8.38939599609375,9.403825759887695,3.149273157119751,0.5653308629989624
1772593670189659000,8.409658935546876,9.374795913696289,3.1157541275024414,0.5659294128417969
1772593670209923000,8.429923095703124,9.32661247253418,3.116053581237793,0.5826888680458069
1772593670230187000,8.45018701171875,9.248202323913574,3.1390976905822754,0.6156091094017029
1772593670250450000,8.470449951171876,8.47786808013916,3.1525650024414062,0.6745663285255432
1772593670270714000,8.490714111328124,8.4916353225708,3.167229652404785,0.7041945457458496
1772593670290978000,8.51097802734375,8.498817443847656,3.1989526748657227,0.7299322485923767
1772593670311241000,8.531240966796876,8.543109893798828,3.1989526748657227,0.7296329736709595
1772593670331505000,8.5515048828125,8.612242698669434,3.2007484436035156,0.7544727921485901
1772593670351769000,8.57176904296875,8.669105529785156,3.202244758605957,0.8125321865081787
1772593670372032000,8.592031982421876,8.689156532287598,3.1980550289154053,0.8415619134902954
1772593670392296000,8.6122958984375,8.708609580993652,3.240252733230591,0.8807669281959534
1772593670412560000,8.632559814453124,8.695141792297363,3.2420482635498047,0.9319429993629456
1772593670432823000,8.652822998046876,8.652345657348633,3.240252733230591,0.982221245765686
1772593670453087000,8.6730869140625,8.623315811157227,3.298910617828369,1.0423755645751953
1772593670473351000,8.693350830078124,8.626907348632812,3.3279404640197754,1.0821791887283325
1772593670493614000,8.713614013671876,8.627206802368164,3.3441011905670166,1.1537059545516968
1772593670513878000,8.7338779296875,8.68167495727539,3.366546869277954,1.9617490768432617
1772593670534142000,8.754141845703124,8.76337718963623,3.3797149658203125,1.9458874464035034
1772593670554405000,8.774405029296876,9.527725219726562,3.39408016204834,1.9000983238220215
1772593670574669000,8.7946689453125,9.501389503479004,3.437774419784546,1.8324620723724365
1772593670594933000,8.81493310546875,9.44752025604248,3.476680040359497,1.7741034030914307
1772593670615196000,8.83519580078125,9.41639518737793,3.521571397781372,1.713350534439087
1772593670635460000,8.855460205078124,9.421782493591309,3.5556888580322266,1.691802740097046
1772593670655724000,8.87572412109375,9.396942138671875,3.5865142345428467,1.677138328552246
1772593670675987000,8.895987060546876,9.37748908996582,3.6158430576324463,1.657685399055481
1772593670696251000,8.9162509765625,9.365219116210938,3.613149642944336,1.656787633895874
1772593670716515000,8.93651513671875,9.312846183776855,3.602674961090088,1.6427216529846191
1772593670736778000,8.956778076171876,9.275436401367188,3.5948939323425293,1.590049147605896
1772593670757042000,8.9770419921875,9.237129211425781,3.5853171348571777,1.5622166395187378
1772593670777306000,8.99730615234375,9.23323917388916,3.6146459579467773,1.4963760375976562
1772593670797569000,9.017569091796876,9.243413925170898,3.6505589485168457,1.4419080018997192
1772593670817833000,9.0378330078125,9.241917610168457,3.6607344150543213,0.7029974460601807
1772593670838097000,9.058096923828124,9.220968246459961,3.6688148975372314,0.6377554535865784
1772593670858360000,9.078360107421876,9.197026252746582,3.689464807510376,0.5719149112701416
1772593670878624000,9.0986240234375,9.167398452758789,3.713406801223755,-0.15652093291282654
1772593670898888000,9.118887939453124,9.137471199035645,3.723881483078003,-0.1637035459280014
1772593670919151000,9.139151123046876,9.099462509155273,3.730764865875244,-0.1909375786781311
1772593670939415000,9.1594150390625,9.085097312927246,3.746027946472168,-0.2588730454444885
1772593670959679000,9.179678955078124,9.130887031555176,3.754108190536499,-1.062127709388733
1772593670979942000,9.19994189453125,9.209297180175781,3.768174171447754,-1.105821967124939
1772593671000206000,9.2202060546875,10.054450035095215,3.7918169498443604,-1.1537059545516968
1772593671020470000,9.240469970703124,10.022128105163574,3.8226423263549805,-1.1713632345199585
1772593671040733000,9.26073291015625,9.963769912719727,3.857956647872925,-1.1994950771331787
1772593671060997000,9.2809970703125,9.91738224029541,3.8935704231262207,-1.2282254695892334
1772593671081261000,9.301260986328124,9.868599891662598,3.9264907836914062,-1.250671148300171
1772593671101524000,9.32152392578125,9.806949615478516,3.93367338180542,-1.2829928398132324
1772593671121788000,9.341787841796876,8.920495986938477,3.9444472789764404,-1.2850877046585083
1772593671142052000,9.362052001953124,8.875306129455566,3.971980571746826,-1.2737152576446533
1772593671162316000,9.38231591796875,8.82323169708252,3.992032051086426,-1.2578537464141846
1772593671182579000,9.402578857421876,8.769960403442383,4.018368244171143,-1.2650363445281982
1772593671202843000,9.4228427734375,8.715791702270508,4.022558212280273,-1.2497732639312744
1772593671223107000,9.443107177734374,8.675090789794922,4.04201078414917,-1.227926254272461
1772593671243370000,9.463369873046876,8.613141059875488,4.048594951629639,-1.1905168294906616
1772593671263634000,9.483634033203124,8.555978775024414,4.071340084075928,-1.161187767982483
1772593671283898000,9.503898193359374,8.494627952575684,4.117129325866699,-1.126172661781311
1772593671304161000,9.5241611328125,8.443750381469727,4.145560264587402,-1.0570400953292847
1772593671324425000,9.544425048828124,8.41352367401123,4.179976940155029,-0.9903016686439514
1772593671344689000,9.56468896484375,8.40185260772705,4.183867454528809,-0.9268553256988525
1772593671364952000,9.5849521484375,8.405742645263672,4.1862616539001465,-0.166995570063591
1772593671385216000,9.605216064453124,8.422801971435547,4.2078094482421875,-0.15442600846290588
1772593671405480000,9.62547998046875,8.431480407714844,4.243722438812256,-0.15921440720558167
1772593671425743000,9.6457431640625,8.41232681274414,4.308964729309082,-0.1867477297782898
1772593671446007000,9.666007080078124,8.377311706542969,4.379892826080322,-0.25917232036590576
1772593671466271000,9.68627099609375,8.33840560913086,5.248688697814941,-0.2908954918384552
1772593671486534000,9.706533935546876,8.308777809143066,5.268141746520996,-0.2959831953048706
1772593671506798000,9.726798095703124,8.341997146606445,5.259462356567383,-0.2579752206802368
1772593671527062000,9.74706201171875,8.403648376464844,5.250185012817383,-0.2522889971733093
1772593671547325000,9.767324951171876,8.44434928894043,5.245396614074707,-0.2669534981250763
1772593671567589000,9.787589111328124,8.467693328857422,5.2672438621521,-0.27144262194633484
1772593671587853000,9.80785302734375,8.476072311401367,5.260659694671631,-0.25019407272338867
1772593671608116000,9.828115966796876,8.520963668823242,5.239710330963135,-0.20051439106464386
1772593671628380000,9.8483798828125,9.399336814880371,5.2031989097595215,-0.12509703636169434
1772593671648644000,9.86864404296875,9.443629264831543,5.1244893074035645,0.6374561786651611
1772593671668907000,9.888906982421876,9.502586364746094,4.282329082489014,0.6697779297828674
1772593671689171000,9.9091708984375,9.571419715881348,4.271554946899414,0.6919242739677429
1772593671709435000,9.929434814453124,9.598054885864258,4.231452465057373,0.712574303150177
1772593671729698000,9.949697998046876,9.578303337097168,4.182371139526367,0.6979097723960876
1772593671749962000,9.9699619140625,9.505280494689941,4.1611223220825195,0.6898293495178223
1772593671770226000,9.990225830078124,8.585906982421875,4.153042316436768,0.6754641532897949
1772593671790489000,10.010489013671876,8.52485466003418,4.1524434089660645,0.673069953918457
1772593671810753000,10.0307529296875,8.46859073638916,4.1524434089660645,0.6344634294509888
1772593671831017000,10.051016845703124,8.416217803955078,4.165611743927002,0.5931634902954102
1772593671851280000,10.07127978515625,8.36384391784668,4.158129692077637,0.5728127360343933
1772593671871544000,10.0915439453125,8.375815391540527,4.1518449783325195,0.545877993106842
1772593671891808000,10.11180810546875,8.426094055175781,4.123114585876465,0.5509656667709351
1772593671912071000,10.13207080078125,8.478466987609863,4.0964789390563965,0.5545569658279419
1772593671932335000,10.152335205078124,8.458714485168457,4.079121112823486,0.5282207727432251
1772593671952599000,10.17259912109375,8.422203063964844,4.092289447784424,0.47973817586898804
1772593671972862000,10.192862060546876,7.591414928436279,4.126706123352051,0.4273650050163269
1772593671993126000,10.2131259765625,7.535450458526611,4.155735492706299,0.383670836687088
1772593672013390000,10.23339013671875,7.483376502990723,4.224868297576904,0.3824737071990967
1772593672033653000,10.253653076171876,7.5312604904174805,4.269460201263428,0.3711012601852417
1772593672053917000,10.2739169921875,8.290821075439453,4.3320088386535645,0.33608606457710266
1772593672074181000,10.29418115234375,8.294412612915039,4.395155906677246,0.25647884607315063
1772593672094444000,10.314444091796876,8.259098052978516,5.15740966796875,-0.5515642166137695
1772593672114708000,10.3347080078125,8.217199325561523,5.175665378570557,-0.5841852426528931
