time,seconds_elapsed,z,y,x
1772593662003095000,0.223094970703125,0.004389929119497538,0.0023945067077875137,-0.004256900865584612
1772593662023389000,0.243388916015625,-0.0005321126081980765,-0.003325703786686063,0.002128450432792306
1772593662043653000,0.263653076171875,0.004256900865584612,-0.0027935912366956472,-0.00013302815204951912
1772593662063916000,0.283916015625,-0.0011972533538937569,0.0019954221788793802,-0.0035917600616812706
1772593662084180000,0.304179931640625,0.0047890134155750275,-0.003325703786686063,0
1772593662104444000,0.32444384765625,-0.004655985161662102,-0.0039908443577587605,-0.0007981689414009452
1772593662124707000,0.34470703125,-0.0026605629827827215,0.0047890134155750275,0.0011972533538937569
1772593662144971000,0.364970947265625,-0.0003990844707004726,-0.0014633096288889647,-0.003325703786686063
1772593662165235000,0.38523486328125,-0.0037247883155941963,0.004123872611671686,0.0007981689414009452
1772593662185498000,0.405498046875,-0.0017293660202994943,0.003059647511690855,-0.0035917600616812706
1772593662205762000,0.425761962890625,0.0023945067077875137,-0.0019954221788793802,0.00013302815204951912
1772593662226026000,0.44602587890625,0.0027935912366956472,-0.0009311970788985491,0.0037247883155941963
1772593662246289000,0.466288818359375,0.0015963378828018904,-0.004522957373410463,0.003325703786686063
1772593662266553000,0.486552978515625,0.0007981689414009452,0.0017293660202994943,0.004655985161662102
1772593662286817000,0.506817138671875,1.357818365097046,-0.5100299119949341,0.9876009821891785
1772593662307081000,0.5270810546875,1.8130407333374023,-1.3081988096237183,1.3026117086410522
1772593662327344000,0.54734423828125,1.6278655529022217,-2.337038516998291,-0.4625388979911804
1772593662347608000,0.567608154296875,0.8998024463653564,-2.737985372543335,-2.932206630706787
1772593662367872000,0.5878720703125,0.27151045203208923,-1.667773962020874,-3.1083357334136963
1772593662388135000,0.608135009765625,0.15391357243061066,-0.42356163263320923,-2.8559813499450684
1772593662408399000,0.628399169921875,0.5253281593322754,0.11972533911466599,-3.533892869949341
1772593662428663000,0.6486630859375,0.7911184430122375,0.2431754618883133,-3.480149507522583
1772593662448926000,0.668926025390625,0.3331024944782257,0.1223858967423439,-2.824852705001831
1772593662469190000,0.68918994140625,-0.28068938851356506,-0.13209696114063263,-1.6812098026275635
1772593662489454000,0.7094541015625,-0.9093804359436035,-0.45908015966415405,-0.6280258893966675
1772593662509717000,0.729717041015625,-1.421006679534912,-0.6751178503036499,0.04150478169322014
1772593662529981000,0.74998095703125,-1.4570573568344116,-0.6906821727752686,0.27683159708976746
1772593662550245000,0.7702451171875,-1.2289140224456787,-0.6088698506355286,0.2770976424217224
1772593662570508000,0.790508056640625,-0.9430365562438965,-0.7619852423667908,0.30716201663017273
1772593662590772000,0.81077197265625,-0.7075767517089844,-0.9995735287666321,0.07050491869449615
1772593662611036000,0.831035888671875,-0.533176839351654,-1.204969048500061,-0.33616214990615845
1772593662631299000,0.851299072265625,-0.22534969449043274,-1.003697395324707,-0.9385136365890503
1772593662651563000,0.87156298828125,0.3346988260746002,-0.1799870878458023,-1.1991157531738281
1772593662671827000,0.891826904296875,0.8245084881782532,0.7297924160957336,-0.941440224647522
1772593662692090000,0.912090087890625,1.1765010356903076,1.3572862148284912,-0.5200070738792419
1772593662712354000,0.93235400390625,1.2835886478424072,1.4456169605255127,-0.11307393014431
1772593662732618000,0.952617919921875,0.9821468591690063,0.9962478280067444,0.15870258212089539
1772593662752881000,0.972880859375,0.7329851388931274,0.44803881645202637,0.30210694670677185
1772593662773145000,0.99314501953125,0.5784063935279846,0.04735802114009857,0.32126298546791077
1772593662793409000,1.013408935546875,0.4479057788848877,-0.21750102937221527,0.29159772396087646
1772593662813672000,1.033671875,0.3907036781311035,-0.3320382535457611,-0.007183520123362541
1772593662833936000,1.053935791015625,0.4302130341529846,-0.39442846179008484,-0.562309980392456
1772593662854200000,1.074199951171875,0.3809926211833954,-0.44497916102409363,-0.6761820912361145
1772593662874463000,1.094462890625,0.2810884714126587,-0.5098969340324402,-0.5371676683425903
1772593662894727000,1.114726806640625,0.3687540292739868,-0.5705577731132507,-0.37793296575546265
1772593662914991000,1.1349912109375,0.3831210732460022,-0.703718900680542,-0.43287360668182373
1772593662935254000,1.15525390625,0.34321263432502747,-0.8544397950172424,-0.7791458964347839
1772593662955518000,1.17551806640625,0.5883834958076477,-0.9262750148773193,-0.844994843006134
1772593662975782000,1.195781982421875,0.7516090869903564,-0.941839337348938,-0.7353796362876892
1772593662996045000,1.216045166015625,0.9079171419143677,-0.9907937049865723,-0.6121955513954163
1772593663016309000,1.23630908203125,0.759989857673645,-1.1256842613220215,-0.4710526764392853
1772593663036573000,1.256572998046875,0.28015729784965515,-1.2444783449172974,-0.3683549463748932
1772593663056836000,1.276836181640625,-0.6576911807060242,-1.101872205734253,-0.29891425371170044
1772593663077100000,1.29710009765625,-3.0057711601257324,-1.0887024402618408,-0.5017821788787842
1772593663097364000,1.317364013671875,-5.134753704071045,-1.2198681831359863,-0.5286538600921631
1772593663117627000,1.337626953125,-5.7156877517700195,-1.2902400493621826,-0.67458575963974
1772593663137891000,1.35789111328125,-4.6522603034973145,-1.0711426734924316,-0.7836688160896301
1772593663158155000,1.378155029296875,-2.824453830718994,-0.7071776390075684,-0.7062464356422424
1772593663178418000,1.39841796875,-0.8116047382354736,-0.4749104976654053,-0.47624078392982483
1772593663198682000,1.41868212890625,1.1363264322280884,0.0911242812871933,0.5914431810379028
1772593663218946000,1.438946044921875,2.4345481395721436,0.6475810408592224,1.728700876235962
1772593663239209000,1.459208984375,2.9272844791412354,0.7509438991546631,1.9615000486373901
1772593663259473000,1.479472900390625,3.0874502658843994,0.5768100619316101,1.8603986501693726
1772593663279737000,1.499737060546875,3.3946123123168945,0.3655613660812378,2.271721839904785
1772593663300000000,1.52,4.239075183868408,0.19195961952209473,3.221808910369873
1772593663320264000,1.540263916015625,4.62272834777832,-0.38511648774147034,3.277547597885132
1772593663340528000,1.560528076171875,3.948408603668213,-0.8698710799217224,1.9021695852279663
1772593663360791000,1.580791015625,2.894958734512329,-1.0200598239898682,0.6603517532348633
1772593663381055000,1.601054931640625,1.922921895980835,-1.1647944450378418,-0.1388813853263855
1772593663401319000,1.62131884765625,0.8390085697174072,-1.3308136463165283,-0.4749104976654053
1772593663421582000,1.64158203125,-0.0007981689414009452,-1.3217676877975464,-0.3011757433414459
1772593663441846000,1.661845947265625,-0.6462507843971252,-1.2523269653320312,0.3225932717323303
1772593663462110000,1.68210986328125,-0.9886652231216431,-1.0671517848968506,0.7700999975204468
1772593663482373000,1.702373046875,-0.9201557040214539,-0.8678756356239319,0.7123657464981079
1772593663502637000,1.722636962890625,-0.7325860261917114,-0.8307608366012573,0.5483420491218567
1772593663522901000,1.74290087890625,-0.522268533706665,-0.8842381238937378,0.4110569953918457
1772593663543164000,1.763163818359375,-0.32738229632377625,-0.8283662796020508,0.28029030561447144
1772593663563428000,1.783427978515625,-0.1652209609746933,-0.6737875938415527,0.08939491957426071
1772593663583692000,1.803692138671875,-0.06438562273979187,-0.5454154014587402,-0.5484750866889954
1772593663603956000,1.8239560546875,-0.00013302815204951912,-0.4296809434890747,-1.0307021141052246
1772593663624219000,1.844218994140625,0.05241309106349945,-0.22534969449043274,-0.9993074536323547
1772593663644483000,1.864483154296875,-0.3539879024028778,-0.2614003121852875,-0.7685036063194275
1772593663664747000,1.8847470703125,-0.7892560362815857,-0.39150184392929077,-0.5112271904945374
1772593663685010000,1.905010009765625,-1.1610697507858276,-0.7613201141357422,-0.13036759197711945
1772593663705274000,1.925274169921875,-1.5649431943893433,-1.3622082471847534,0.6771132946014404
1772593663725538000,1.9455380859375,-1.8883346319198608,-0.8076139092445374,0.681902289390564
1772593663745801000,1.965801025390625,-2.0656611919403076,-0.9661834836006165,-0.1399456113576889
1772593663766065000,1.98606494140625,-1.6560674905776978,-1.121028184890747,-0.07768844068050385
1772593663786329000,2.0063291015625,-0.5885165333747864,-0.42130014300346375,-0.35372185707092285
1772593663806592000,2.026592041015625,0.6458516716957092,0.6160533428192139,-0.6635444164276123
1772593663826856000,2.04685595703125,1.6257370710372925,1.749054193496704,-0.6958702802658081
1772593663847120000,2.067119873046875,2.0405187606811523,2.602562665939331,-0.6252323389053345
1772593663867383000,2.087383056640625,1.9416788816452026,2.6464619636535645,-0.48435550928115845
1772593663887647000,2.10764697265625,1.6317232847213745,1.8025314807891846,-0.1404777318239212
1772593663907911000,2.127910888671875,1.2176066637039185,0.4935344457626343,0.2354598343372345
1772593663928174000,2.148174072265625,0.8754582405090332,-0.5641723871231079,0.22628088295459747
1772593663948438000,2.16843798828125,0.6293562054634094,-0.8930180072784424,-0.2749691903591156
1772593663988965000,2.208965087890625,0.8797151446342468,-0.6646086573600769,0.23732222616672516
1772593664009229000,2.22922900390625,1.2213314771652222,-0.4851536750793457,0.43540114164352417
1772593664029493000,2.249492919921875,1.2994190454483032,-0.34268051385879517,0.4220983386039734
1772593664049756000,2.269755859375,1.4396306276321411,-0.2930610179901123,0.35970813035964966
1772593664070020000,2.29002001953125,1.337332010269165,-0.5075023770332336,0.05520668253302574
1772593664090284000,2.310283935546875,1.1275466680526733,-0.6572921276092529,-0.5984936356544495
1772593664110547000,2.330546875,0.9778899550437927,-0.5454154014587402,-0.8533756136894226
1772593664130811000,2.350810791015625,0.90459144115448,-0.35917600989341736,-0.829563558101654
1772593664151075000,2.371074951171875,0.8028249144554138,-0.22308820486068726,-0.782338559627533
1772593664171338000,2.391337890625,0.08753252774477005,-0.4883463382720947,-1.2221295833587646
1772593664191602000,2.411601806640625,-2.4429290294647217,-1.3407907485961914,-2.758870840072632
1772593664211866000,2.4318662109375,-5.558714389801025,-2.3295888900756836,-3.9031789302825928
1772593664232129000,2.45212890625,-5.904188632965088,-2.350208282470703,-2.9307432174682617
1772593664252393000,2.47239306640625,-4.182538032531738,-1.447878360748291,-1.9617661237716675
1772593664272657000,2.492656982421875,-2.551347017288208,-0.6203102469444275,-1.3121896982192993
1772593664292920000,2.512920166015625,-0.8950133919715881,0.18264764547348022,-0.09391787648200989
1772593664313184000,2.53318408203125,0.9139034152030945,0.8755912780761719,1.738677978515625
1772593664333448000,2.553447998046875,1.8598666191101074,0.929999828338623,3.268767833709717
1772593664353711000,2.573711181640625,2.001009464263916,0.5640393495559692,3.0662989616394043
1772593664373975000,2.59397509765625,2.1582486629486084,0.45588746666908264,2.379607677459717
1772593664394239000,2.614239013671875,2.415924310684204,0.6846958994865417,2.2522995471954346
1772593664414502000,2.634501953125,2.4701998233795166,0.8843711614608765,2.6209206581115723
1772593664434766000,2.65476611328125,2.1807305812835693,0.8918207287788391,2.5082457065582275
1772593664455030000,2.675030029296875,1.7220494747161865,0.7079758048057556,1.6164250373840332
1772593664475293000,2.69529296875,1.2140148878097534,0.3840522766113281,0.6175166964530945
1772593664495557000,2.71555712890625,0.4369974732398987,-0.322726309299469,-0.08527104556560516
1772593664515821000,2.735821044921875,-0.3936302959918976,-1.0549132823944092,-0.2073908895254135
1772593664536084000,2.756083984375,-1.100408911705017,-1.51997971534729,-0.06292231380939484
1772593664556348000,2.776347900390625,-1.6853336095809937,-1.7898937463760376,0.12584462761878967
1772593664576612000,2.796612060546875,-1.961367130279541,-1.7083475589752197,0.21324412524700165
1772593664596875000,2.816875,-1.7209851741790771,-1.4047772884368896,-0.2194964438676834
1772593664617139000,2.837138916015625,-1.1141108274459839,-1.2023084163665771,-0.6322827935218811
1772593664637413000,2.8574130859375,-0.2735058665275574,-0.963655948638916,-0.670461893081665
1772593664657677000,2.877677001953125,0.11028033494949341,-0.8258387446403503,-0.5839936137199402
1772593664677941000,2.89794091796875,0.18956512212753296,-0.7498797178268433,-0.4786352813243866
1772593664698204000,2.918203857421875,0.18304674327373505,-0.6026175022125244,-0.38059353828430176
1772593664718468000,2.938468017578125,0.13701899349689484,-0.4319424033164978,-0.2206937074661255
1772593664738732000,2.95873193359375,0.12770701944828033,-0.37846508622169495,-0.12105561792850494
1772593664758995000,2.978994873046875,0.12172076106071472,-0.13622082769870758,-0.06438562273979187
1772593664779259000,2.9992587890625,0.1970146894454956,0.2765655219554901,-0.061991117894649506
1772593664799523000,3.019523193359375,0.1636246293783188,0.32897862792015076,-0.027403799816966057
1772593664819786000,3.039785888671875,-0.4352681040763855,0.22814327478408813,0.5238648653030396
1772593664840050000,3.0600498046875,-1.1053309440612793,-0.24769842624664307,0.8708022832870483
1772593664860314000,3.080314208984375,-1.9213255643844604,-0.6787096261978149,0.8225130438804626
1772593664880577000,3.100576904296875,-2.540172576904297,-0.8759903907775879,0.26964807510375977
1772593664900841000,3.120841064453125,-2.7405128479003906,-0.8390085697174072,-0.5383649468421936
1772593664921105000,3.14110498046875,-2.166762590408325,-0.5464796423912048,-0.6463837623596191
1772593664941368000,3.1613681640625,-1.028706669807434,-0.06318837404251099,-0.7200813889503479
1772593664961632000,3.181632080078125,0.36848798394203186,0.6828334927558899,-0.7826046347618103
1772593664981896000,3.20189599609375,1.5511082410812378,1.5249017477035522,-0.4034743905067444
1772593665002159000,3.2221591796875,1.8953851461410522,1.815169095993042,0.16921180486679077
1772593665022423000,3.242423095703125,1.417814016342163,0.4894105792045593,0.5380988717079163
1772593665042687000,3.26268701171875,0.7258015871047974,0.16123011708259583,0.7815403938293457
1772593665062950000,3.282949951171875,0.18703758716583252,-0.5291860103607178,0.9620596170425415
1772593665083214000,3.303214111328125,-0.1355556845664978,-1.1698495149612427,0.26924899220466614
1772593665103478000,3.32347802734375,-0.2447717934846878,-1.6552692651748657,-0.2491617351770401
1772593665123741000,3.343740966796875,0.04762407764792442,-2.127253293991089,0.6719251871109009
1772593665144005000,3.364005126953125,0.6044799089431763,-2.2880842685699463,1.200179934501648
1772593665164269000,3.38426904296875,0.810939610004425,-2.2739832401275635,1.645159125328064
1772593665184532000,3.404531982421875,0.8986051678657532,-2.300987958908081,1.9833166599273682
1772593665204796000,3.4247958984375,1.2740106582641602,-2.5295302867889404,2.025486707687378
1772593665225060000,3.44506005859375,1.4047772884368896,-2.6096131801605225,1.848825216293335
1772593665245323000,3.465322998046875,1.3568871021270752,-2.6512510776519775,1.6389068365097046
1772593665265587000,3.4855869140625,1.534213662147522,-2.720425605773926,1.5280944108963013
1772593665285851000,3.505850830078125,2.0068626403808594,-2.695150375366211,1.7326916456222534
1772593665306114000,3.526114013671875,2.1598451137542725,-2.685040235519409,1.7688753604888916
1772593665326378000,3.5463779296875,2.5238101482391357,-2.7514212131500244,1.2971575260162354
1772593665346642000,3.566641845703125,2.6809163093566895,-2.9428486824035645,0.4538920521736145
1772593665366905000,3.586905029296875,2.4497134685516357,-3.2597217559814453,-0.12850520014762878
1772593665387169000,3.6071689453125,2.5643837451934814,-3.502631187438965,-0.27031320333480835
1772593665407433000,3.627432861328125,2.6432693004608154,-3.8128528594970703,-0.33509790897369385
1772593665427696000,3.647696044921875,2.6520493030548096,-4.226304531097412,-0.674984872341156
1772593665447960000,3.6679599609375,2.913848638534546,-4.297474384307861,-1.3644697666168213
1772593665468224000,3.68822412109375,3.219015121459961,-3.9641058444976807,-1.612301230430603
1772593665488487000,3.70848681640625,3.352043390274048,-3.7282469272613525,-1.6220122575759888
1772593665508751000,3.728751220703125,3.0016472339630127,-3.5905628204345703,-1.5549660921096802
1772593665529015000,3.74901513671875,1.8501555919647217,-3.2579925060272217,-1.101872205734253
1772593665549278000,3.76927783203125,-0.36130446195602417,-3.7258524894714355,-1.4824657440185547
1772593665569542000,3.7895419921875,-2.4506447315216064,-4.562732696533203,-3.1547627449035645
1772593665589806000,3.80980615234375,-3.982064723968506,-3.812586784362793,-3.7991509437561035
1772593665610069000,3.830069091796875,-4.818146705627441,-1.963761568069458,-2.1229963302612305
1772593665630333000,3.8503330078125,-4.40150260925293,-1.4417591094970703,-0.1410098373889923
1772593665650597000,3.87059716796875,-3.4806816577911377,-1.4241993427276611,1.2367627620697021
1772593665670860000,3.890860107421875,-2.3027172088623047,-1.2494003772735596,1.7066181898117065
1772593665691124000,3.9111240234375,-0.9343897104263306,-1.2491343021392822,1.2806620597839355
1772593665711388000,3.931387939453125,0.2860105335712433,-1.5739891529083252,0.8362149596214294
1772593665731651000,3.951651123046875,0.8306277990341187,-1.6616545915603638,0.8187882900238037
1772593665751915000,3.9719150390625,0.8132010698318481,-1.482731819152832,1.0624958276748657
1772593665772179000,3.992178955078125,0.7158244848251343,-1.4380342960357666,1.071408748626709
1772593665792442000,4.012442138671875,0.7977698445320129,-1.397859811782837,0.9298667907714844
1772593665812706000,4.0327060546875,1.1103860139846802,-1.4731537103652954,0.7834028005599976
1772593665832970000,4.052969970703125,1.0651564598083496,-1.6907877922058105,0.6477140784263611
1772593665853233000,4.07323291015625,0.4463094472885132,-1.9044309854507446,0.5338419675827026
1772593665873497000,4.0934970703125,-0.08327562361955643,-1.9754680395126343,0.4566856324672699
1772593665893761000,4.113760986328125,-0.1618952602148056,-1.8767611980438232,0.4127863645553589
1772593665914024000,4.13402392578125,-0.11972533911466599,-1.7064851522445679,0.39935052394866943
1772593665934288000,4.154287841796875,-0.07063794881105423,-1.5407320261001587,0.40520375967025757
1772593665954552000,4.174552001953125,-0.027403799816966057,-1.3425201177597046,0.38059353828430176
1772593665974816000,4.19481591796875,0.027669856324791908,-1.2764050960540771,0.32951071858406067
1772593665995079000,4.215078857421875,0.05720210447907448,-1.157344937324524,0.2600700259208679
1772593666015343000,4.235343017578125,0.050683725625276566,-0.9798853397369385,0.19887708127498627
1772593666035607000,4.25560693359375,0.050683725625276566,-0.9567384719848633,0.18557427823543549
1772593666055870000,4.275869873046875,0.04589471220970154,-0.9006006121635437,0.18677152693271637
1772593666076134000,4.2961337890625,0.028201967477798462,-0.7106363773345947,0.17799167335033417
1772593666096398000,4.316398193359375,0.02979830652475357,-0.6546315550804138,0.25115716457366943
1772593666116661000,4.336660888671875,0.030995558947324753,-0.589181661605835,0.6780444979667664
1772593666136925000,4.356925048828125,0,-0.3869788944721222,1.1898038387298584
1772593666157189000,4.377189208984375,-0.1552438586950302,-0.2904004454612732,1.475149154663086
1772593666177452000,4.3974521484375,-0.3573136031627655,-0.4967271089553833,1.148698091506958
1772593666197716000,4.417716064453125,-0.44112133979797363,-0.7039849758148193,0.6258974671363831
1772593666217980000,4.43797998046875,-0.6352094411849976,-0.8689398765563965,0.004655985161662102
1772593666238243000,4.4582431640625,-0.48874542117118835,-0.9878670573234558,-0.3803274929523468
1772593666258507000,4.478507080078125,-0.11400512605905533,-1.0570416450500488,-0.5185437202453613
1772593666278771000,4.49877099609375,0.5286538600921631,-1.1270145177841187,-0.9586008787155151
1772593666299034000,4.5190341796875,1.030569076538086,-1.2351664304733276,-1.5525715351104736
1772593666319298000,4.539298095703125,1.056775689125061,-1.200579047203064,-1.960968017578125
1772593666339562000,4.55956201171875,0.8481875061988831,-0.9889312982559204,-1.8284718990325928
1772593666359825000,4.579824951171875,0.5890486836433411,-0.8299626111984253,-1.460915207862854
1772593666380089000,4.600089111328125,0.30649685859680176,-0.5922413468360901,-1.0768629312515259
1772593666400353000,4.62035302734375,0.08540407568216324,-0.14061075448989868,-0.26858383417129517
1772593666420616000,4.640615966796875,-0.03139464557170868,0.31700608134269714,0.8646829724311829
1772593666440880000,4.660880126953125,-0.06997280567884445,0.7007923126220703,1.656333565711975
1772593666461144000,4.68114404296875,-0.09205548465251923,0.8826417922973633,1.7290998697280884
1772593666481407000,4.701406982421875,-0.03644971549510956,0.6579572558403015,1.293698787689209
1772593666501671000,4.7216708984375,0.0735645666718483,0.0035917600616812706,0.34374475479125977
1772593666521935000,4.74193505859375,0.21470743417739868,-0.7544026374816895,-0.40307530760765076
1772593666542198000,4.762197998046875,0.30769410729408264,-1.2088267803192139,-0.42941486835479736
1772593666562462000,4.7824619140625,0.35372185707092285,-1.6330535411834717,0.059463582932949066
1772593666582726000,4.802725830078125,0.33935481309890747,-1.8263435363769531,-0.22202397882938385
1772593666602989000,4.822989013671875,0.5596494078636169,-1.9500596523284912,-0.3156757950782776
1772593666623253000,4.8432529296875,1.0533169507980347,-2.4257683753967285,-0.24663420021533966
1772593666643517000,4.863516845703125,1.0934914350509644,-2.5959112644195557,-0.19728074967861176
1772593666663780000,4.883780029296875,0.9145685434341431,-2.539640426635742,-0.20406518876552582
1772593666684044000,4.9040439453125,0.759989857673645,-2.4725942611694336,-0.15457871556282043
1772593666704308000,4.924307861328125,0.6735215187072754,-2.389185667037964,-0.28946927189826965
1772593666724571000,4.94457080078125,0.6260305047035217,-2.2524325847625732,-0.37341001629829407
1772593666744835000,4.9648349609375,0.5540622472763062,-2.00260591506958,-0.4977913498878479
1772593666765099000,4.98509912109375,-0.019688166677951813,-1.2741436958312988,-0.23479469120502472
1772593666785362000,5.00536181640625,-1.797343373298645,0.19062934815883636,-0.2954555153846741
1772593666805626000,5.025626220703125,-3.8975918292999268,1.5558972358703613,-1.6499481201171875
1772593666825890000,5.04589013671875,-5.021679878234863,1.9624313116073608,-2.33504319190979
1772593666846153000,5.066153076171875,-4.30479097366333,1.3870844841003418,-1.9662891626358032
1772593666866417000,5.0864169921875,-2.8074262142181396,0.8026918768882751,-1.117835521697998
1772593666886681000,5.10668115234375,-0.8813115358352661,0.470254510641098,0.09232153743505478
1772593666906944000,5.126944091796875,1.0612986087799072,0.08660132437944412,0.9116419553756714
1772593666927208000,5.1472080078125,2.1021108627319336,-0.4286167025566101,1.0135414600372314
1772593666947472000,5.167471923828125,2.2231664657592773,-0.9347888231277466,0.8638848066329956
1772593666967735000,5.187735107421875,2.0193674564361572,-1.1073263883590698,0.7498797178268433
1772593666987999000,5.2079990234375,2.0917346477508545,-1.136858582496643,0.6119294762611389
1772593667008263000,5.228262939453125,2.9655966758728027,-1.114642858505249,0.6884207129478455
1772593667028526000,5.248526123046875,4.1248040199279785,-1.2210654020309448,1.901105284690857
1772593667048790000,5.2687900390625,4.303194522857666,-1.7416045665740967,3.6302051544189453
1772593667069054000,5.289053955078125,2.9625370502471924,-2.1126201152801514,4.165510654449463
1772593667089317000,5.309317138671875,0.91230708360672,-1.8288710117340088,3.3322222232818604
1772593667109581000,5.3295810546875,-1.0107479095458984,-0.8181231617927551,1.6504802703857422
1772593667129845000,5.349844970703125,-2.6436684131622314,0.7034528851509094,0.30915743112564087
1772593667150108000,5.37010791015625,-3.313598155975342,1.2390241622924805,0.3288455903530121
1772593667170372000,5.3903720703125,-3.246551990509033,1.5094704627990723,-0.8306277990341187
1772593667190636000,5.410635986328125,-2.7133753299713135,1.0554453134536743,-0.9699082374572754
1772593667210899000,5.43089892578125,-2.0909364223480225,1.1622669696807861,-0.6949390769004822
1772593667231163000,5.451162841796875,-1.5225071907043457,0.9035272002220154,-0.1673494130373001
1772593667251427000,5.471427001953125,-0.8589627742767334,0.6680673956871033,0.02540837787091732
1772593667271691000,5.49169091796875,-0.044697459787130356,0.7094391584396362,0.01942211017012596
1772593667291954000,5.511953857421875,0.3195336163043976,1.0026332139968872,-0.10349590331315994
1772593667312218000,5.532218017578125,0.26033610105514526,1.156945824623108,-0.16774849593639374
1772593667332482000,5.55248193359375,-0.49539685249328613,1.2040377855300903,-0.1827806830406189
1772593667352745000,5.572744873046875,-1.5014888048171997,1.1043996810913086,-0.17147329449653625
1772593667373009000,5.5930087890625,-2.057945489883423,0.8322241306304932,-0.10948216915130615
1772593667393273000,5.613273193359375,-2.3157541751861572,0.4961950182914734,-0.042569007724523544
1772593667413536000,5.633535888671875,-1.8831465244293213,0.06026175245642662,0.020486336201429367
1772593667433800000,5.653800048828125,-1.346377968788147,-0.32019877433776855,-0.11772991716861725
1772593667454064000,5.674064208984375,-0.6776453852653503,-0.8311598896980286,-0.5319795608520508
1772593667474327000,5.6943271484375,0.2640608847141266,-1.2317076921463013,-0.7751550674438477
1772593667494591000,5.714591064453125,0.8419351577758789,-1.1814230680465698,-0.685893177986145
1772593667514855000,5.73485498046875,1.0953538417816162,-0.8396736979484558,-0.3752724230289459
1772593667535118000,5.7551181640625,1.5741220712661743,-0.441387414932251,-0.04988555610179901
1772593667555382000,5.775382080078125,1.9072246551513672,-0.13023455440998077,0.06305534392595291
1772593667575646000,5.79564599609375,1.8275407552719116,0.012770703062415123,0.04908738657832146
1772593667595909000,5.8159091796875,1.5955396890640259,-0.16641822457313538,0.06451865285634995
1772593667616173000,5.836173095703125,1.1397851705551147,-0.4456443190574646,0.17759257555007935
1772593667636437000,5.85643701171875,0.4556214213371277,-0.4586810767650604,0.5428878664970398
1772593667656700000,5.876699951171875,-0.5835945010185242,0.22322124242782593,0.7222098112106323
1772593667676964000,5.896964111328125,-1.363804578781128,0.8565682768821716,0.5362364649772644
1772593667697228000,5.91722802734375,-1.479140043258667,0.9925230145454407,0.31753820180892944
1772593667717491000,5.937490966796875,-1.257249116897583,0.7251364588737488,-0.10828491300344467
1772593667737755000,5.9577548828125,-0.7581274509429932,0.02354598231613636,-0.7468200325965881
1772593667758019000,5.97801904296875,-0.16202828288078308,-0.5746816396713257,-0.8592288494110107
1772593667778282000,5.998281982421875,0.036582741886377335,-0.7110354900360107,-0.7677054405212402
1772593667798546000,6.0185458984375,0.1053582951426506,-0.5676311254501343,-0.6720582246780396
1772593667818810000,6.03881005859375,0.15896864235401154,-0.37740087509155273,-0.5827963352203369
1772593667839073000,6.059072998046875,0.17972102761268616,-0.26219847798347473,-0.4862178862094879
1772593667859337000,6.0793369140625,0.029000137001276016,-0.040307529270648956,-0.49140599370002747
1772593667879601000,6.099600830078125,-1.0030322074890137,0.6023514866828918,-1.0859087705612183
1772593667899864000,6.119864013671875,-2.6681456565856934,1.4440206289291382,-1.6257370710372925
1772593667920128000,6.1401279296875,-3.6721091270446777,1.6068470478057861,-1.9056283235549927
1772593667940392000,6.160391845703125,-3.716407537460327,0.9048575162887573,-2.1196706295013428
1772593667960655000,6.180655029296875,-3.3850343227386475,0.15564294159412384,-2.015509605407715
1772593667980919000,6.2009189453125,-2.3400981426239014,-0.09484907239675522,-1.4408279657363892
1772593668001183000,6.221182861328125,-0.5525989532470703,0.23452863097190857,-0.4165111482143402
1772593668021446000,6.24144580078125,1.3445155620574951,0.38072657585144043,0.36090537905693054
1772593668041710000,6.2617099609375,2.523277997970581,0.2617993950843811,0.7094391584396362
1772593668061974000,6.28197412109375,2.784013271331787,0.35917600989341736,0.9378484487533569
1772593668082237000,6.30223681640625,2.599370002746582,0.3462722897529602,1.084578514099121
1772593668102501000,6.322501220703125,2.360318422317505,0.23971672356128693,0.5156171321868896
1772593668122765000,6.34276513671875,2.387988328933716,0.4907408654689789,0.12251892685890198
1772593668143028000,6.363028076171875,2.6853063106536865,1.1776982545852661,1.7829762697219849
1772593668163292000,6.3832919921875,2.7057926654815674,1.8553435802459717,3.6945908069610596
1772593668183556000,6.40355615234375,2.178069829940796,2.047835350036621,4.090482711791992
1772593668203819000,6.423819091796875,0.985073447227478,2.0363948345184326,3.3064146041870117
1772593668224083000,6.4440830078125,-0.5847917795181274,1.9225229024887085,1.6407692432403564
1772593668244347000,6.464346923828125,-2.01497745513916,1.9753350019454956,0.17306962609291077
1772593668264610000,6.484610107421875,-2.9177064895629883,2.0445096492767334,-0.4594792425632477
1772593668284874000,6.5048740234375,-2.8872430324554443,1.8145040273666382,-0.6294892430305481
1772593668305138000,6.525137939453125,-2.2636070251464844,1.2987538576126099,-0.515484094619751
1772593668325401000,6.545401123046875,-1.652342677116394,0.8882289528846741,-0.39442846179008484
1772593668345665000,6.5656650390625,-1.1852807998657227,0.6727233529090881,-0.34999707341194153
1772593668365929000,6.585928955078125,-0.8443296551704407,0.7663751840591431,-0.4044055938720703
1772593668386192000,6.60619189453125,-0.28840503096580505,1.0348260402679443,-0.4408552944660187
1772593668406456000,6.6264560546875,0.16641822457313538,1.1107851266860962,-0.3869788944721222
1772593668426720000,6.646719970703125,0.28068938851356506,0.9140364527702332,-0.36702466011047363
1772593668446983000,6.66698291015625,0.2830839157104492,0.5454154014587402,-0.6873564720153809
1772593668467247000,6.6872470703125,-0.040307529270648956,0.4029422700405121,-1.0131423473358154
1772593668487511000,6.707510986328125,-0.878251850605011,0.470919668674469,-1.0664867162704468
1772593668507774000,6.72777392578125,-1.4498738050460815,0.5611127614974976,-0.6250993013381958
1772593668528038000,6.748037841796875,-1.5068098306655884,0.437263548374176,-0.5021812915802002
1772593668548302000,6.768302001953125,-1.3624743223190308,0.12797307968139648,-0.48714908957481384
1772593668568566000,6.78856591796875,-0.9343897104263306,-0.3099555969238281,-0.5847917795181274
1772593668588829000,6.808828857421875,-0.749081552028656,-0.7826046347618103,-0.8597609400749207
1772593668609093000,6.829093017578125,-0.42608916759490967,-0.9303988814353943,-0.9856055974960327
1772593668629357000,6.849357177734375,0.006917464081197977,-0.8076139092445374,-1.1975194215774536
1772593668649620000,6.869619873046875,0.8249075412750244,-0.27523523569107056,-1.2398223876953125
1772593668669884000,6.8898837890625,1.7829762697219849,0.22854237258434296,-1.1151750087738037
1772593668690148000,6.910148193359375,2.553741455078125,0.23945067822933197,-0.7856642603874207
1772593668710411000,6.930410888671875,2.890169620513916,-0.11772991716861725,-0.415047824382782
1772593668730675000,6.950675048828125,2.8107519149780273,-0.44803881645202637,-0.1799870878458023
1772593668750939000,6.97093896484375,2.1885790824890137,-0.5996909141540527,-0.08500499278306961
1772593668771202000,6.9912021484375,1.033761739730835,-0.4935344457626343,-0.07263337075710297
1772593668791466000,7.011466064453125,0.3429465889930725,-0.5506035089492798,-0.014367040246725082
1772593668811730000,7.03172998046875,-0.00784866139292717,-0.6768472194671631,0.05081675574183464
1772593668831993000,7.0519931640625,-0.1892990618944168,-0.7802101373672485,0.09365181624889374
1772593668852257000,7.072257080078125,-0.3112858831882477,-0.7735586762428284,0.08487196266651154
1772593668872521000,7.09252099609375,-0.3841853141784668,-0.8358159065246582,0.08500499278306961
1772593668892784000,7.1127841796875,-0.14899152517318726,-1.1730422973632812,0.15710625052452087
1772593668913048000,7.133048095703125,0.06651407480239868,-1.4432224035263062,0.20606060326099396
1772593668933312000,7.15331201171875,0.09923899918794632,-1.3179099559783936,0.15870258212089539
1772593668953575000,7.173574951171875,0.09338576346635818,-1.0973491668701172,0.08846372365951538
1772593668973839000,7.193839111328125,0.05972963944077492,-0.8694720268249512,0.033390067517757416
1772593668994103000,7.21410302734375,-0.2073908895254135,-0.4495021402835846,-0.05613787844777107
1772593669014366000,7.234365966796875,-0.9556742310523987,0.1009683683514595,-0.16562004387378693
1772593669034630000,7.2546298828125,-1.9489954710006714,0.3913688361644745,-0.532777726650238
1772593669054894000,7.27489404296875,-3.273822784423828,0.4171762764453888,-1.3136529922485352
1772593669075157000,7.295156982421875,-3.9301836490631104,0.36902010440826416,-1.5971360206604004
1772593669095421000,7.3154208984375,-3.6252832412719727,0.3025060296058655,-1.2322397232055664
1772593669115685000,7.33568505859375,-2.90932559967041,0.31594187021255493,-0.5766770243644714
1772593669135948000,7.355947998046875,-1.8848758935928345,0.3396208584308624,0.11174365133047104
1772593669156212000,7.3762119140625,-0.5994248390197754,0.06066083908081055,0.49419957399368286
1772593669176476000,7.396475830078125,0.566433846950531,-0.13050061464309692,0.9443668723106384
1772593669196739000,7.416739013671875,1.293299674987793,-0.10003717243671417,1.398658037185669
1772593669217003000,7.4370029296875,1.6688381433486938,-0.274570107460022,1.1686522960662842
1772593669237267000,7.457266845703125,1.8510867357254028,-0.49925464391708374,0.8097423911094666
1772593669257530000,7.477530029296875,1.6258701086044312,-0.36196959018707275,0.7098382115364075
1772593669277794000,7.4977939453125,0.5588512420654297,0.18131737411022186,0.4828921854496002
1772593669298058000,7.51805810546875,-1.3970617055892944,0.9599311351776123,-0.04589471220970154
1772593669318321000,7.53832080078125,-3.466447591781616,1.5989984273910522,-0.6132597923278809
1772593669338585000,7.558585205078125,-4.519631385803223,1.871440052986145,-1.0787253379821777
1772593669358849000,7.57884912109375,-4.3859381675720215,1.7334898710250854,-1.2875795364379883
1772593669379112000,7.59911181640625,-3.184960126876831,1.7208521366119385,-1.0295048952102661
1772593669399376000,7.6193759765625,-1.8395133018493652,1.9375550746917725,-0.9189584851264954
1772593669419640000,7.63964013671875,-1.2364966869354248,2.469268560409546,-1.3776395320892334
1772593669439903000,7.659903076171875,-0.7896550893783569,3.1952030658721924,-1.0332297086715698
1772593669460167000,7.6801669921875,0.021550560370087624,4.303593635559082,-0.14420251548290253
1772593669480431000,7.70043115234375,1.034959077835083,5.779141902923584,0.9402430057525635
1772593669500694000,7.720694091796875,1.2902400493621826,7.824183940887451,1.8137058019638062
1772593669520958000,7.7409580078125,-0.17320264875888824,11.204296112060547,2.533787250518799
1772593669541222000,7.761221923828125,-4.344566345214844,14.760005950927734,3.5128743648529053
1772593669561485000,7.781485107421875,-8.486929893493652,14.108034133911133,4.794334411621094
1772593669581749000,7.8017490234375,-8.95638656616211,9.96168041229248,5.672586441040039
1772593669602013000,7.822012939453125,-6.756100654602051,5.133024215698242,3.997628927230835
1772593669622276000,7.842276123046875,-3.6601364612579346,1.9411468505859375,3.3737270832061768
1772593669642540000,7.8625400390625,-1.6628519296646118,-0.2701801657676697,2.2626757621765137
1772593669662804000,7.882803955078125,-0.5164152979850769,-1.2627031803131104,1.4194103479385376
1772593669683067000,7.90306689453125,-0.5470117330551147,-0.9878670573234558,0.903261125087738
1772593669703331000,7.9233310546875,-1.326955795288086,-0.17267054319381714,0.9844083189964294
1772593669723595000,7.943594970703125,-1.8283389806747437,0.10203259438276291,1.775526762008667
1772593669743858000,7.96385791015625,-1.9608349800109863,0.1097482219338417,2.505718231201172
1772593669764122000,7.9841220703125,-2.2038774490356445,0.4205019772052765,2.7342605590820312
1772593669784386000,8.004385986328124,-2.7358570098876953,1.0933583974838257,1.562415599822998
1772593669804649000,8.02464892578125,-2.611475706100464,1.0908308029174805,2.0471701622009277
1772593669824913000,8.044912841796876,-2.4835026264190674,0.8702701926231384,1.3554238080978394
1772593669845177000,8.065177001953124,-2.650718927383423,0.7650449275970459,0.57734215259552
1772593669865441000,8.08544091796875,-2.606686592102051,0.38112565875053406,0.16096405684947968
1772593669885704000,8.105703857421876,-2.4374747276306152,0.06265626102685928,0.207523912191391
1772593669905968000,8.125968017578124,-2.250171184539795,-0.05999569594860077,0.4786352813243866
1772593669926232000,8.146232177734374,-1.8815501928329468,-0.11919322609901428,0.1938220113515854
1772593669946495000,8.166494873046876,-1.0801886320114136,-0.40693312883377075,0.844994843006134
1772593669966759000,8.186759033203124,-0.403873473405838,-0.9824128746986389,0.42555704712867737
1772593669987023000,8.207023193359374,-0.35811179876327515,-1.5375393629074097,0.6437232494354248
1772593670007286000,8.2272861328125,-0.13582174479961395,-2.0496978759765625,0.28401511907577515
1772593670027550000,8.247550048828124,-0.10229864716529846,-2.1265881061553955,-0.36808890104293823
1772593670047814000,8.26781396484375,-0.17054209113121033,-1.8053250312805176,-0.6297552585601807
1772593670068077000,8.2880771484375,-0.2003403902053833,-1.405043363571167,-0.6321497559547424
1772593670088341000,8.308341064453124,-0.26100122928619385,-1.0695463418960571,-0.5655027031898499
1772593670108605000,8.32860498046875,-0.38072657585144043,-0.8235772848129272,-0.49087387323379517
1772593670128868000,8.3488681640625,-0.5079014897346497,-0.6471819877624512,-0.4385938048362732
1772593670149132000,8.369132080078124,-0.6224387288093567,-0.5370346307754517,-0.4001486897468567
1772593670169396000,8.38939599609375,-0.7389714121818542,-0.4872821271419525,-0.35545122623443604
1772593670189659000,8.409658935546876,-0.8058845400810242,-0.4491030275821686,-0.3107537627220154
1772593670209923000,8.429923095703124,-0.8585637211799622,-0.42289650440216064,-0.2794921398162842
1772593670230187000,8.45018701171875,-0.9731009602546692,-0.43872684240341187,-0.24849659204483032
1772593670250450000,8.470449951171876,-1.0382847785949707,-0.466396689414978,-0.17772561311721802
1772593670270714000,8.490714111328124,-0.8646829724311829,-0.4648003578186035,0.02035330794751644
1772593670290978000,8.51097802734375,-0.6954711675643921,-0.46573156118392944,0.1701430082321167
1772593670311241000,8.531240966796876,-0.7109024524688721,-0.48049768805503845,0.17320264875888824
1772593670331505000,8.5515048828125,-0.7985680103302002,-0.49034178256988525,0.12251892685890198
1772593670351769000,8.57176904296875,-0.9140364527702332,-0.5028464198112488,0.04522957280278206
1772593670372032000,8.592031982421876,-0.9880000948905945,-0.5257272720336914,-0.027669856324791908
1772593670392296000,8.6122958984375,-0.949155867099762,-0.522800624370575,-0.07276640087366104
1772593670412560000,8.632559814453124,-0.8749261498451233,-0.5021812915802002,-0.07941780984401703
1772593670432823000,8.652822998046876,-0.9133712649345398,-0.5285208225250244,-0.07861963659524918
1772593670453087000,8.6730869140625,-0.9021969437599182,-0.5460805892944336,-0.07210125774145126
1772593670473351000,8.693350830078124,-0.8735958933830261,-0.560447633266449,-0.04682590812444687
1772593670493614000,8.713614013671876,-0.7893890738487244,-0.5458145141601562,-0.005454154219478369
1772593670513878000,8.7338779296875,-0.6767141819000244,-0.5693604946136475,0.012903730385005474
1772593670534142000,8.754141845703124,-0.3412172198295593,-0.8787840008735657,0.02008725143969059
1772593670554405000,8.774405029296876,-0.24610207974910736,-1.119032859802246,-0.022348729893565178
1772593670574669000,8.7946689453125,-0.5169473886489868,-1.0102157592773438,-0.17546413838863373
1772593670594933000,8.81493310546875,-0.9204217791557312,-0.810939610004425,-0.3940293788909912
1772593670615196000,8.83519580078125,-1.3316117525100708,-0.7156914472579956,-0.4501672685146332
1772593670635460000,8.855460205078124,-1.575053334236145,-0.6575581431388855,-0.4066670536994934
1772593670655724000,8.87572412109375,-1.6361132860183716,-0.5953009724617004,-0.3420153856277466
1772593670675987000,8.895987060546876,-1.7208521366119385,-0.5933055877685547,-0.3094234764575958
1772593670696251000,8.9162509765625,-1.838183045387268,-0.6286910176277161,-0.2985151708126068
1772593670716515000,8.93651513671875,-1.8166323900222778,-0.6269617080688477,-0.2825517952442169
1772593670736778000,8.956778076171876,-1.7368155717849731,-0.6102001070976257,-0.2751022279262543
1772593670757042000,8.9770419921875,-1.6311912536621094,-0.5657687187194824,-0.2617993950843811
1772593670777306000,8.99730615234375,-1.4639748334884644,-0.4814288914203644,-0.23559285700321198
1772593670797569000,9.017569091796876,-1.452933430671692,-0.4510984718799591,-0.22787722945213318
1772593670817833000,9.0378330078125,-1.4545297622680664,-0.37061643600463867,-0.2052624374628067
1772593670838097000,9.058096923828124,-1.515190601348877,-0.005321125965565443,-0.1722714602947235
1772593670858360000,9.078360107421876,-1.6448930501937866,0.24410666525363922,-0.15790441632270813
1772593670878624000,9.0986240234375,-1.7180585861206055,0.17799167335033417,-0.14393645524978638
1772593670898888000,9.118887939453124,-1.7293659448623657,0.23851947486400604,-0.10469315201044083
1772593670919151000,9.139151123046876,-1.799737811088562,0.48275917768478394,-0.060394782572984695
1772593670939415000,9.1594150390625,-1.6628519296646118,0.48116281628608704,-0.015298237092792988
1772593670959679000,9.179678955078124,-1.4420251846313477,0.4177083969116211,0.023945067077875137
1772593670979942000,9.19994189453125,-1.4005204439163208,0.678177535533905,0.042835064232349396
1772593671000206000,9.2202060546875,-1.434309482574463,0.8435314893722534,0.020220279693603516
1772593671020470000,9.240469970703124,-1.4570573568344116,0.6385351419448853,-0.13209696114063263
1772593671040733000,9.26073291015625,-1.426061749458313,0.3825889527797699,-0.20978540182113647
1772593671060997000,9.2809970703125,-1.4762134552001953,0.13143181800842285,-0.11626660823822021
1772593671081261000,9.301260986328124,-1.4897823333740234,-0.03977541625499725,0
1772593671101524000,9.32152392578125,-1.3787037134170532,-0.11147759109735489,0.08633527159690857
1772593671121788000,9.341787841796876,-1.3256255388259888,-0.17413385212421417,0.14500068128108978
1772593671142052000,9.362052001953124,-1.3329421281814575,-0.22814327478408813,0.25541403889656067
1772593671162316000,9.38231591796875,-1.2435472011566162,-0.2282763123512268,0.4488369822502136
1772593671182579000,9.402578857421876,-1.0610325336456299,-0.21710194647312164,0.5011170506477356
1772593671202843000,9.4228427734375,-0.8838390707969666,-0.20725786685943604,0.46613064408302307
1772593671223107000,9.443107177734374,-0.7399025559425354,-0.1943541318178177,0.4143826961517334
1772593671243370000,9.463369873046876,-0.5605806112289429,-0.166817307472229,0.35811179876327515
1772593671263634000,9.483634033203124,-0.42302951216697693,-0.16069801151752472,0.3112858831882477
1772593671283898000,9.503898193359374,-0.400015652179718,-0.19994130730628967,0.28946927189826965
1772593671304161000,9.5241611328125,-0.40972670912742615,-0.24277637898921967,0.29226285219192505
1772593671324425000,9.544425048828124,-0.5451493859291077,-0.35318973660469055,0.318203330039978
1772593671344689000,9.56468896484375,-0.6675352454185486,-0.4774380326271057,0.3325703740119934
1772593671364952000,9.5849521484375,-0.6087368130683899,-0.5106950998306274,0.3047674894332886
1772593671385216000,9.605216064453124,-0.5416906476020813,-0.725934624671936,0.25927186012268066
1772593671405480000,9.62547998046875,-0.44644248485565186,-1.1476339101791382,0.21311110258102417
1772593671425743000,9.6457431640625,-0.3719467222690582,-1.156945824623108,0.17280356585979462
1772593671446007000,9.666007080078124,-0.3255198895931244,-0.9343897104263306,0.17134025692939758
1772593671466271000,9.68627099609375,-0.2766985595226288,-0.670461893081665,0.2526204586029053
1772593671486534000,9.706533935546876,-0.2419782131910324,-0.4468415677547455,0.6707279682159424
1772593671506798000,9.726798095703124,-0.27590039372444153,-0.3396208584308624,0.9539448618888855
1772593671527062000,9.74706201171875,-0.20127159357070923,-0.25222137570381165,0.834086537361145
1772593671547325000,9.767324951171876,-0.30875834822654724,-0.30370327830314636,0.6147230863571167
1772593671567589000,9.787589111328124,-0.6099340915679932,-0.45748382806777954,0.4154469072818756
1772593671587853000,9.80785302734375,-0.7365768551826477,-0.504575788974762,0.2776297628879547
1772593671608116000,9.828115966796876,-0.6991959810256958,-0.4735802114009857,0.19023025035858154
1772593671628380000,9.8483798828125,-0.7804761528968811,-0.5499383807182312,0.1125418171286583
1772593671648644000,9.86864404296875,-0.9695091843605042,-0.7707651257514954,-0.08700041472911835
1772593671668907000,9.888906982421876,-0.9748302698135376,-1.2217305898666382,-0.46134161949157715
1772593671689171000,9.9091708984375,-1.0517206192016602,-1.5589568614959717,-0.9329264163970947
1772593671709435000,9.929434814453124,-1.1775652170181274,-1.510534644126892,-1.1806248426437378
1772593671729698000,9.949697998046876,-1.1287438869476318,-1.274675726890564,-1.067816972732544
1772593671749962000,9.9699619140625,-1.1306062936782837,-1.0820510387420654,-0.892352819442749
1772593671770226000,9.990225830078124,-1.092427134513855,-0.9052565693855286,-0.6938748359680176
1772593671790489000,10.010489013671876,-0.8556370735168457,-0.7093061208724976,-0.33390066027641296
1772593671810753000,10.0307529296875,-0.7143611907958984,-0.5930395126342773,-0.04802316427230835
1772593671831017000,10.051016845703124,-0.8110726475715637,-0.5717549920082092,0.022348729893565178
1772593671851280000,10.07127978515625,-0.9284034967422485,-0.5496723055839539,0.03551851585507393
1772593671871544000,10.0915439453125,-0.8845041990280151,-0.4644012749195099,0.04549562931060791
1772593671891808000,10.11180810546875,-0.9236144423484802,-0.4444470703601837,0.02288084290921688
1772593671912071000,10.13207080078125,-1.0200598239898682,-0.47291508316993713,-0.0345873199403286
1772593671932335000,10.152335205078124,-1.0942895412445068,-0.5043097138404846,-0.1086840033531189
1772593671952599000,10.17259912109375,-1.232771873474121,-0.5655027031898499,-0.16402371227741241
1772593671972862000,10.192862060546876,-1.3200383186340332,-0.578273355960846,-0.16641822457313538
1772593671993126000,10.2131259765625,-1.3230979442596436,-0.5564567446708679,-0.025009293109178543
1772593672013390000,10.23339013671875,-1.1839505434036255,-0.4989885985851288,0.26366180181503296
1772593672033653000,10.253653076171876,-0.9250777959823608,-0.377533882856369,0.40413951873779297
1772593672053917000,10.2739169921875,-0.7674394249916077,-0.307295024394989,0.3907036781311035
1772593672074181000,10.29418115234375,-0.9162979125976562,-0.3491989076137543,0.12690885365009308
1772593672094444000,10.314444091796876,-1.0212571620941162,-0.2770976424217224,-0.06624802201986313
1772593672114708000,10.3347080078125,-0.9393118023872375,0.28561145067214966,0.15058787167072296
