time,seconds_elapsed,z,y,x
1772593662023389000,0.243388916015625,5.503671169281006,-7.118560314178467,4.408024787902832
1772593662043653000,0.263653076171875,5.48960542678833,-7.1577653884887695,4.4304704666137695
1772593662063916000,0.283916015625,5.468955039978027,-7.148188591003418,4.4403462409973145
1772593662084180000,0.304179931640625,5.455188751220703,-7.140706539154053,4.458302974700928
1772593662104444000,0.32444384765625,5.4246625900268555,-7.138611793518066,4.468777656555176
1772593662124707000,0.34470703125,5.3791728019714355,-7.139210224151611,4.445733070373535
1772593662144971000,0.364970947265625,5.381267547607422,-7.140108108520508,4.434659957885742
1772593662165235000,0.38523486328125,5.353734493255615,-7.139509677886963,4.417900562286377
1772593662185498000,0.405498046875,5.298368453979492,-7.16584587097168,4.411017417907715
1772593662205762000,0.425761962890625,5.262156009674072,-7.183503150939941,4.369717597961426
1772593662226026000,0.44602587890625,5.307346820831299,-7.170933246612549,3.467402696609497
1772593662246289000,0.466288818359375,5.3330841064453125,-7.105990409851074,3.437774419784546
1772593662266553000,0.486552978515625,5.265448093414307,-5.860706329345703,2.547729969024658
1772593662286817000,0.506817138671875,4.001309394836426,-4.984428882598877,2.5142111778259277
1772593662307081000,0.5270810546875,0.08948329091072083,-4.9601874351501465,2.5357589721679688
1772593662327344000,0.54734423828125,0.0834977850317955,-4.95928955078125,2.563591480255127
1772593662347608000,0.567608154296875,1.4538789987564087,-4.929062843322754,2.5564088821411133
1772593662367872000,0.5878720703125,1.4089876413345337,-6.971017360687256,3.3740286827087402
1772593662388135000,0.608135009765625,2.252345323562622,-12.507010459899902,4.668394088745117
1772593662408399000,0.628399169921875,1.5017629861831665,-16.237476348876953,6.306027889251709
1772593662428663000,0.6486630859375,1.5188217163085938,-16.212038040161133,7.1221513748168945
1772593662448926000,0.668926025390625,1.5843629837036133,-14.560935974121094,7.114370346069336
1772593662469190000,0.68918994140625,1.6080057621002197,-11.258434295654297,7.079953670501709
1772593662489454000,0.7094541015625,1.6148890256881714,-10.34145450592041,7.108085632324219
1772593662509717000,0.729717041015625,1.5909470319747925,-10.35252857208252,7.161356449127197
1772593662529981000,0.74998095703125,1.5400702953338623,-10.360907554626465,7.210437774658203
1772593662550245000,0.7702451171875,1.4598644971847534,-10.371682167053223,7.2481465339660645
1772593662570508000,0.790508056640625,0.6365583539009094,-10.316914558410645,7.257124423980713
1772593662590772000,0.81077197265625,-0.44921210408210754,-10.277111053466797,7.204452037811279
1772593662611036000,0.831035888671875,-0.45429977774620056,-10.262146949768066,6.055235385894775
1772593662631299000,0.851299072265625,0.3672106862068176,-10.28010368347168,5.982511520385742
1772593662651563000,0.87156298828125,0.44083237648010254,-10.278607368469238,5.076904773712158
1772593662671827000,0.891826904296875,1.1749545335769653,-10.231321334838867,4.250306606292725
1772593662692090000,0.912090087890625,1.1686697006225586,-9.244312286376953,4.201824188232422
1772593662712354000,0.93235400390625,1.1201871633529663,-9.193734169006348,4.158429145812988
1772593662732618000,0.952617919921875,1.0543465614318848,-9.15153694152832,4.124311923980713
1772593662752881000,0.972880859375,0.9944915175437927,-9.164106369018555,4.135983467102051
1772593662773145000,0.99314501953125,0.9457096457481384,-9.230844497680664,4.1955389976501465
1772593662793409000,1.013408935546875,0.1149216815829277,-10.039785385131836,4.264073371887207
1772593662813672000,1.033671875,0.0769137293100357,-10.044873237609863,4.30058479309082
1772593662833936000,1.053935791015625,0.01825578883290291,-9.99908447265625,4.275744915008545
1772593662854200000,1.074199951171875,-0.029628245159983635,-9.208698272705078,4.19224739074707
1772593662874463000,1.094462890625,-0.0942716896533966,-9.141061782836914,3.448249101638794
1772593662894727000,1.114726806640625,-0.8735843300819397,-8.210615158081055,3.3883938789367676
1772593662914991000,1.1349912109375,-0.8972271084785461,-7.325957775115967,2.479495048522949
1772593662935254000,1.15525390625,-0.9181763529777527,-7.272686958312988,2.425326347351074
1772593662955518000,1.17551806640625,-0.9145850539207458,-6.2491655349731445,1.6753426790237427
1772593662975782000,1.195781982421875,-0.9115923047065735,-6.187814235687256,1.6573861837387085
1772593662996045000,1.216045166015625,-0.9032126069068909,-5.317522048950195,1.66696298122406
1772593663016309000,1.23630908203125,-0.9091981053352356,-5.308244228363037,1.7292121648788452
1772593663036573000,1.256572998046875,-0.9753379225730896,-6.157288074493408,3.863642930984497
1772593663056836000,1.276836181640625,-1.824082374572754,-7.816769123077393,6.771700382232666
1772593663077100000,1.29710009765625,-3.178901195526123,-9.596558570861816,10.036493301391602
1772593663097364000,1.317364013671875,-4.036324977874756,-9.644442558288574,12.016199111938477
1772593663117627000,1.337626953125,-4.070741653442383,-9.61331844329834,12.013206481933594
1772593663137891000,1.35789111328125,-4.038719177246094,-9.619902610778809,10.208277702331543
1772593663158155000,1.378155029296875,-3.961505889892578,-10.716147422790527,9.176675796508789
1772593663178418000,1.39841796875,-0.4752490520477295,-10.722132682800293,6.462249755859375
1772593663198682000,1.41868212890625,0.37469255924224854,-9.66150188446045,4.217685699462891
1772593663218946000,1.438946044921875,0.3396773636341095,-7.971195220947266,2.999934673309326
1772593663239209000,1.459208984375,0.37080198526382446,-6.784868240356445,1.5933412313461304
1772593663259473000,1.479472900390625,1.2324153184890747,-6.8501105308532715,0.783801794052124
1772593663279737000,1.499737060546875,2.2706010341644287,-9.669282913208008,0.7954735159873962
1772593663300000000,1.52,2.174833059310913,-11.046248435974121,0.7775170207023621
1772593663320264000,1.540263916015625,1.1471219062805176,-11.761815071105957,0.7927800416946411
1772593663340528000,1.560528076171875,1.0573393106460571,-11.725603103637695,0.8274959921836853
1772593663360791000,1.580791015625,0.22176292538642883,-11.639411926269531,0.9050082564353943
1772593663381055000,1.601054931640625,0.23792380094528198,-10.332476615905762,1.6846201419830322
1772593663401319000,1.62131884765625,0.322618693113327,-9.414898872375488,1.7537527084350586
1772593663421582000,1.64158203125,1.2117652893066406,-9.372700691223145,2.516904592514038
1772593663441846000,1.661845947265625,1.169268250465393,-9.329306602478027,2.5602993965148926
1772593663462110000,1.68210986328125,1.095047950744629,-9.287407875061035,2.5791537761688232
1772593663482373000,1.702373046875,1.035492181777954,-9.260771751403809,2.565985679626465
1772593663502637000,1.722636962890625,0.9723451733589172,-9.255684852600098,2.531569004058838
1772593663522901000,1.74290087890625,0.9316437244415283,-9.239523887634277,2.460341453552246
1772593663543164000,1.763163818359375,0.8601169586181641,-9.258976936340332,2.402282238006592
1772593663563428000,1.783427978515625,-0.18405425548553467,-9.325715065002441,2.3762452602386475
1772593663583692000,1.803692138671875,-0.20380641520023346,-9.399336814880371,2.38462495803833
1772593663603956000,1.8239560546875,-0.19901801645755768,-10.285789489746094,2.4372973442077637
1772593663624219000,1.844218994140625,-0.22535423934459686,-10.335768699645996,3.4368765354156494
1772593663644483000,1.864483154296875,-0.21667525172233582,-10.388141632080078,3.508104085922241
1772593663664747000,1.8847470703125,-0.12779051065444946,-10.420164108276367,4.36492919921875
1772593663685010000,1.905010009765625,0.7493851184844971,-11.174338340759277,5.1903300285339355
1772593663705274000,1.925274169921875,0.7272387742996216,-12.123639106750488,6.532279968261719
1772593663725538000,1.9455380859375,-0.16160862147808075,-12.207137107849121,7.358279705047607
1772593663745801000,1.965801025390625,-0.2223614901304245,-12.267590522766113,6.489782810211182
1772593663766065000,1.98606494140625,-0.2289455384016037,-12.992135047912598,5.359420299530029
1772593663786329000,2.0063291015625,-0.15113398432731628,-13.006501197814941,4.004302501678467
1772593663806592000,2.026592041015625,0.5850830674171448,-12.97657299041748,2.8371291160583496
1772593663826856000,2.04685595703125,0.6257844567298889,-11.79952335357666,2.7461493015289307
1772593663847120000,2.067119873046875,0.6682815551757812,-10.793360710144043,1.9309237003326416
1772593663867383000,2.087383056640625,0.6892307996749878,-9.909601211547852,1.9069817066192627
1772593663887647000,2.10764697265625,0.6494272351264954,-9.82191276550293,1.8845360279083252
1772593663907911000,2.127910888671875,-0.29897594451904297,-9.101557731628418,1.8671780824661255
1772593663928174000,2.148174072265625,-0.2717418968677521,-9.172186851501465,1.866280198097229
1772593663948438000,2.16843798828125,0.5464765429496765,-9.849446296691895,1.8276736736297607
1772593663968702000,2.188701904296875,0.5557540655136108,-9.783905029296875,0.8251017332077026
1772593663988965000,2.208965087890625,0.5590460896492004,-8.514080047607422,0.7697358727455139
1772593664009229000,2.22922900390625,0.5315127968788147,-7.577648162841797,0.03381809964776039
1772593664029493000,2.249492919921875,0.4737526476383209,-6.735487937927246,0.03561374917626381
1772593664049756000,2.269755859375,-0.36092591285705566,-6.658275127410889,0.021847089752554893
1772593664070020000,2.29002001953125,-0.3693056106567383,-5.892130374908447,-0.03082534670829773
1772593664090284000,2.310283935546875,-0.3791816830635071,-5.823297023773193,-0.10175357013940811
1772593664110547000,2.330546875,-0.40282443165779114,-5.7538652420043945,-0.16430209577083588
1772593664130811000,2.350810791015625,-0.46507367491722107,-5.096357822418213,-0.16669629514217377
1772593664151075000,2.371074951171875,-1.6971896886825562,-6.756137847900391,1.1890203952789307
1772593664171338000,2.391337890625,-3.6706104278564453,-9.618705749511719,3.952826976776123
1772593664191602000,2.411601806640625,-5.653308868408203,-12.781146049499512,6.793846607208252
1772593664211866000,2.4318662109375,-5.746383190155029,-13.778032302856445,7.678803443908691
1772593664232129000,2.45212890625,-6.440701961517334,-12.66083812713623,7.659948825836182
1772593664252393000,2.47239306640625,-4.332607269287109,-10.989385604858398,6.0303955078125
1772593664272657000,2.492656982421875,-3.4063503742218018,-11.025897026062012,4.14795446395874
1772593664292920000,2.512920166015625,0.42377370595932007,-12.955923080444336,3.136404275894165
1772593664313184000,2.53318408203125,0.502483069896698,-11.97789192199707,3.050212860107422
1772593664333448000,2.553447998046875,0.4076128304004669,-10.710461616516113,1.8381483554840088
1772593664353711000,2.573711181640625,0.44322657585144043,-9.567529678344727,1.062127709388733
1772593664373975000,2.59397509765625,1.4068927764892578,-9.55466079711914,0.29957449436187744
1772593664394239000,2.614239013671875,2.235585927963257,-10.487800598144531,0.2388216257095337
1772593664414502000,2.634501953125,2.209848165512085,-10.56920337677002,0.2082955539226532
1772593664434766000,2.65476611328125,1.3880383968353271,-10.628459930419922,0.22116437554359436
1772593664455030000,2.675030029296875,0.5949591398239136,-10.63354778289795,0.2959831953048706
1772593664475293000,2.69529296875,0.6045359373092651,-10.565312385559082,1.2342109680175781
1772593664495557000,2.71555712890625,0.6377554535865784,-9.806051254272461,2.185307502746582
1772593664515821000,2.735821044921875,0.674267053604126,-9.718064308166504,2.2717981338500977
1772593664536084000,2.756083984375,0.7212532758712769,-8.960898399353027,3.246537446975708
1772593664556348000,2.776347900390625,0.6970119476318359,-8.919299125671387,3.281552791595459
1772593664576612000,2.796612060546875,-0.18734627962112427,-8.88099193572998,3.22139835357666
1772593664596875000,2.816875,-0.26815059781074524,-8.890568733215332,2.3460183143615723
1772593664617139000,2.837138916015625,-0.30945056676864624,-8.957905769348145,2.3080103397369385
1772593664637413000,2.8574130859375,-0.3654150366783142,-9.01087760925293,2.288557529449463
1772593664657677000,2.877677001953125,-0.414795458316803,-9.062353134155273,2.281374931335449
1772593664677941000,2.89794091796875,-0.39534255862236023,-9.077316284179688,2.2703018188476562
1772593664698204000,2.918203857421875,-0.3130418658256531,-9.067739486694336,2.256535053253174
1772593664718468000,2.938468017578125,-0.27084407210350037,-9.051279067993164,2.241870641708374
1772593664738732000,2.95873193359375,-0.2223614901304245,-9.096170425415039,2.2562358379364014
1772593664758995000,2.978994873046875,-0.18375498056411743,-9.830592155456543,2.278082847595215
1772593664779259000,2.9992587890625,-0.1256955862045288,-9.879972457885742,2.3570916652679443
1772593664799523000,3.019523193359375,0.5755062103271484,-9.937433242797852,3.358466386795044
1772593664819786000,3.039785888671875,0.5743091106414795,-9.99220085144043,4.242824554443359
1772593664840050000,3.0600498046875,0.5276222229003906,-10.765527725219727,5.264849662780762
1772593664860314000,3.080314208984375,-0.29718029499053955,-10.767024040222168,6.533477306365967
1772593664880577000,3.100576904296875,-1.1204863786697388,-10.834959983825684,7.3331403732299805
1772593664900841000,3.120841064453125,-1.169567584991455,-11.8411226272583,7.351695537567139
1772593664921105000,3.14110498046875,-1.1713632345199585,-12.857461929321289,6.591536521911621
1772593664941368000,3.1613681640625,-0.3357867896556854,-13.843274116516113,5.02094030380249
1772593664961632000,3.181632080078125,0.7110779285430908,-13.836989402770996,4.005798816680908
1772593664981896000,3.20189599609375,0.7879916429519653,-12.747328758239746,3.9339725971221924
1772593665002159000,3.2221591796875,0.8361749649047852,-11.355698585510254,3.8860886096954346
1772593665022423000,3.242423095703125,0.8628104329109192,-10.035895347595215,3.8896799087524414
1772593665042687000,3.26268701171875,0.8463503122329712,-9.946412086486816,3.9163153171539307
1772593665062950000,3.282949951171875,0.8337807655334473,-9.115025520324707,3.9327754974365234
1772593665083214000,3.303214111328125,0.8457517623901367,-9.129390716552734,3.875314712524414
1772593665103478000,3.32347802734375,0.8885480761528015,-9.17128849029541,2.999934673309326
1772593665123741000,3.343740966796875,0.9552865028381348,-9.17428207397461,2.9619266986846924
1772593665144005000,3.364005126953125,1.7067664861679077,-9.102754592895508,2.8990790843963623
1772593665164269000,3.38426904296875,1.7426795959472656,-8.181585311889648,2.006939649581909
1772593665184532000,3.404531982421875,1.7678186893463135,-8.154352188110352,1.976114273071289
1772593665204796000,3.4247958984375,1.8031331300735474,-8.210914611816406,1.9548656940460205
1772593665225060000,3.44506005859375,1.8525135517120361,-8.284536361694336,1.9051860570907593
1772593665245323000,3.465322998046875,1.9219454526901245,-8.3399019241333,1.0423755645751953
1772593665265587000,3.4855869140625,2.5977089405059814,-8.398261070251465,1.003769040107727
1772593665285851000,3.505850830078125,2.5423429012298584,-8.46170711517334,0.9340379238128662
1772593665306114000,3.526114013671875,2.475006103515625,-9.19552993774414,0.11282675713300705
1772593665326378000,3.5463779296875,1.7435773611068726,-9.257181167602539,0.09038111567497253
1772593665346642000,3.566641845703125,1.7106571197509766,-9.290999412536621,0.0146644851192832
1772593665366905000,3.586905029296875,1.6810288429260254,-9.310750961303711,-0.8149263858795166
1772593665387169000,3.6071689453125,1.6304513216018677,-9.35205078125,-0.8729857802391052
1772593665407433000,3.627432861328125,0.6593033075332642,-9.378686904907227,-1.8498201370239258
1772593665427696000,3.647696044921875,0.5952584147453308,-9.387664794921875,-1.922544002532959
1772593665447960000,3.6679599609375,0.5536591410636902,-9.363123893737793,-3.1232361793518066
1772593665468224000,3.68822412109375,0.5817909836769104,-10.15021800994873,-3.9833531379699707
1772593665488487000,3.70848681640625,0.6581062078475952,-10.96664047241211,-4.071639060974121
1772593665508751000,3.728751220703125,1.588852047920227,-13.46020221710205,-3.973776340484619
1772593665529015000,3.74901513671875,0.5258265733718872,-16.509218215942383,-0.9950900673866272
1772593665549278000,3.76927783203125,-3.6011786460876465,-15.65179443359375,0.5021837949752808
1772593665569542000,3.7895419921875,-3.5090019702911377,-14.67406177520752,3.784335136413574
1772593665589806000,3.80980615234375,-1.6956933736801147,-13.778631210327148,4.656123638153076
1772593665610069000,3.830069091796875,-0.1505354344844818,-12.928389549255371,4.679167747497559
1772593665630333000,3.8503330078125,1.1118074655532837,-12.033257484436035,4.640860557556152
1772593665650597000,3.87059716796875,1.0965443849563599,-11.938387870788574,3.6816837787628174
1772593665670860000,3.890860107421875,0.2612672746181488,-11.055825233459473,2.4241292476654053
1772593665691124000,3.9111240234375,0.30555999279022217,-10.995969772338867,1.3162124156951904
1772593665711388000,3.931387939453125,1.069908857345581,-10.099940299987793,1.2761094570159912
1772593665731651000,3.951651123046875,1.0402805805206299,-10.019135475158691,1.2668319940567017
1772593665751915000,3.9719150390625,1.0531494617462158,-9.971251487731934,1.2333132028579712
1772593665772179000,3.992178955078125,1.0875661373138428,-9.956586837768555,0.4920084476470947
1772593665792442000,4.012442138671875,1.0746972560882568,-9.940425872802734,0.44502225518226624
1772593665812706000,4.0327060546875,1.0779893398284912,-9.952995300292969,0.5183446407318115
1772593665832970000,4.052969970703125,1.072602391242981,-9.977835655212402,1.43532395362854
1772593665853233000,4.07323291015625,1.0788871049880981,-9.961674690246582,1.437418818473816
1772593665873497000,4.0934970703125,1.1124060153961182,-9.916184425354004,1.4188637733459473
1772593665893761000,4.113760986328125,1.1656769514083862,-9.851541519165039,1.4272434711456299
1772593665914024000,4.13402392578125,1.2246341705322266,-9.782708168029785,1.4302362203598022
1772593665934288000,4.154287841796875,1.2075754404067993,-9.75397777557373,1.4068927764892578
1772593665954552000,4.174552001953125,1.1878232955932617,-9.738714218139648,1.3877391815185547
1772593665974816000,4.19481591796875,1.1686697006225586,-9.726743698120117,1.3946224451065063
1772593665995079000,4.215078857421875,1.1596914529800415,-9.700407028198242,1.4059948921203613
1772593666015343000,4.235343017578125,1.1902174949645996,-9.6803560256958,1.4188637733459473
1772593666035607000,4.25560693359375,1.2054805755615234,-9.654318809509277,1.4242507219314575
1772593666055870000,4.275869873046875,1.2401964664459229,-9.632472038269043,1.4287399053573608
1772593666076134000,4.2961337890625,1.3108254671096802,-9.616909980773926,1.4296376705169678
1772593666096398000,4.316398193359375,2.1308395862579346,-9.610325813293457,1.460463047027588
1772593666116661000,4.336660888671875,2.972102165222168,-9.632771492004395,1.5071499347686768
1772593666136925000,4.356925048828125,2.966715097427368,-10.861894607543945,2.238877773284912
1772593666157189000,4.377189208984375,2.9227216243743896,-11.794137001037598,2.2771852016448975
1772593666177452000,4.3974521484375,2.8443117141723633,-11.85578727722168,3.0573954582214355
1772593666197716000,4.417716064453125,2.141014814376831,-12.721291542053223,3.07415509223938
1772593666217980000,4.43797998046875,2.128145933151245,-12.73685359954834,3.0579941272735596
1772593666238243000,4.4582431640625,1.2557587623596191,-12.72637939453125,2.29484224319458
1772593666258507000,4.478507080078125,0.2899976670742035,-12.706926345825195,1.4233529567718506
1772593666278771000,4.49877099609375,-0.7939771413803101,-12.656049728393555,1.3590087890625
1772593666299034000,4.5190341796875,-0.8759785294532776,-12.621333122253418,1.3009493350982666
1772593666319298000,4.539298095703125,-0.9436147212982178,-12.582128524780273,1.3012486696243286
1772593666339562000,4.55956201171875,-0.9531915783882141,-11.555015563964844,1.3299790620803833
1772593666359825000,4.579824951171875,-0.8900445103645325,-10.7511625289917,1.3721768856048584
1772593666380089000,4.600089111328125,0.8340800404548645,-9.96137523651123,1.3838485479354858
1772593666400353000,4.62035302734375,1.8845360279083252,-9.915287017822266,1.3449428081512451
1772593666420616000,4.640615966796875,1.9509750604629517,-9.1662015914917,1.2892776727676392
1772593666440880000,4.660880126953125,1.9524714946746826,-9.146449089050293,1.2261306047439575
1772593666461144000,4.68114404296875,1.1722609996795654,-9.138368606567383,1.1546037197113037
1772593666481407000,4.701406982421875,0.22625206410884857,-9.162310600280762,1.1064205169677734
1772593666501671000,4.7216708984375,0.15173253417015076,-9.232939720153809,1.0696096420288086
1772593666521935000,4.74193505859375,0.10534487664699554,-9.964069366455078,1.0342950820922852
1772593666542198000,4.762197998046875,0.06344634294509888,-10.013748168945312,1.0079588890075684
1772593666562462000,4.7824619140625,0.011372458189725876,-10.057442665100098,0.956782877445221
1772593666582726000,4.802725830078125,-0.037409402430057526,-10.034399032592773,-0.011671733111143112
1772593666602989000,4.822989013671875,-0.06643909960985184,-9.276334762573242,-0.05267243832349777
1772593666623253000,4.8432529296875,-0.08978256583213806,-8.486547470092773,-0.10714052617549896
1772593666643517000,4.863516845703125,-0.16071078181266785,-7.710526466369629,-0.16011223196983337
1772593666663780000,4.883780029296875,-0.21338322758674622,-6.910863399505615,-0.20889410376548767
1772593666684044000,4.9040439453125,-0.26904842257499695,-6.069900035858154,-0.2852092683315277
1772593666704308000,4.924307861328125,-0.31693243980407715,-6.017227649688721,-0.32710781693458557
1772593666724571000,4.94457080078125,-0.383670836687088,-6.010643482208252,-0.3256114423274994
1772593666744835000,4.9648349609375,-1.1321581602096558,-6.054935932159424,0.6634931564331055
1772593666765099000,4.98509912109375,-1.1767501831054688,-7.383418560028076,1.721431016921997
1772593666785362000,5.00536181640625,-2.3044190406799316,-10.16757583618164,4.466084003448486
1772593666805626000,5.025626220703125,-3.4087445735931396,-12.41543197631836,6.701969146728516
1772593666825890000,5.04589013671875,-4.289810657501221,-12.468703269958496,6.792050838470459
1772593666846153000,5.066153076171875,-3.236661434173584,-12.491448402404785,6.725611686706543
1772593666866417000,5.0864169921875,-1.7711106538772583,-13.661314964294434,5.041889667510986
1772593666886681000,5.10668115234375,-1.7621324062347412,-14.759954452514648,3.344400405883789
1772593666906944000,5.126944091796875,-1.6989853382110596,-14.697705268859863,2.236483573913574
1772593666927208000,5.1472080078125,-1.6469115018844604,-12.915820121765137,1.3745710849761963
1772593666947472000,5.167471923828125,-0.9370306730270386,-9.798569679260254,0.5677250623703003
1772593666967735000,5.187735107421875,-0.9142857789993286,-8.399757385253906,-0.41689038276672363
1772593666987999000,5.2079990234375,0.16071078181266785,-7.277475357055664,-2.1628620624542236
1772593667008263000,5.228262939453125,1.37906014919281,-7.351695537567139,-3.1298201084136963
1772593667028526000,5.248526123046875,3.2659904956817627,-8.20373249053955,-3.0585925579071045
1772593667048790000,5.2687900390625,3.339312791824341,-9.118317604064941,-1.8827403783798218
1772593667069054000,5.289053955078125,3.2731730937957764,-9.160215377807617,-0.7320271730422974
1772593667089317000,5.309317138671875,1.8366519212722778,-9.910798072814941,0.4288613796234131
1772593667109581000,5.3295810546875,0.4884171485900879,-9.961674690246582,1.755847692489624
1772593667129845000,5.349844970703125,-0.25647884607315063,-9.976638793945312,2.565985679626465
1772593667150108000,5.37010791015625,-0.24570494890213013,-9.91169548034668,2.5860371589660645
1772593667170372000,5.3903720703125,-0.17717093229293823,-9.008482933044434,2.581547975540161
1772593667190636000,5.410635986328125,0.5674257874488831,-8.974366188049316,2.539649486541748
1772593667210899000,5.43089892578125,0.6171054840087891,-8.957606315612793,2.47560453414917
1772593667231163000,5.451162841796875,0.651522159576416,-9.019855499267578,1.6840215921401978
1772593667251427000,5.471427001953125,0.6488286852836609,-9.869797706604004,1.6714520454406738
1772593667271691000,5.49169091796875,0.6419453024864197,-9.89314079284668,1.6846201419830322
1772593667291954000,5.511953857421875,0.6596025824546814,-9.890746116638184,1.7375918626785278
1772593667312218000,5.532218017578125,0.6904278993606567,-9.867103576660156,3.487753391265869
1772593667332482000,5.55248193359375,0.7398083209991455,-9.851242065429688,3.5865142345428467
1772593667352745000,5.572744873046875,0.8113350868225098,-9.877578735351562,4.531625270843506
1772593667373009000,5.5930087890625,0.8481459617614746,-10.979808807373047,5.285499572753906
1772593667393273000,5.613273193359375,0.8472481369972229,-11.909955978393555,5.363011837005615
1772593667413536000,5.633535888671875,0.033518824726343155,-12.803293228149414,6.033987045288086
1772593667433800000,5.653800048828125,-0.7960720658302307,-12.847286224365234,4.943727016448975
1772593667454064000,5.674064208984375,-0.8152256608009338,-12.879308700561523,4.1156325340271
1772593667474327000,5.6943271484375,-0.7784148454666138,-12.8655424118042,4.056675434112549
1772593667494591000,5.714591064453125,-0.008678981103003025,-12.874520301818848,2.8814218044281006
1772593667514855000,5.73485498046875,-0.023044191300868988,-12.938864707946777,2.072780132293701
1772593667535118000,5.7551181640625,-0.07631517946720123,-13.596073150634766,2.0144214630126953
1772593667555382000,5.775382080078125,-0.12060791254043579,-11.879729270935059,1.1650784015655518
1772593667575646000,5.79564599609375,-0.07451952993869781,-10.214861869812012,1.1522095203399658
1772593667595909000,5.8159091796875,0.008678981103003025,-8.917503356933594,1.1872247457504272
1772593667616173000,5.836173095703125,0.7356184720993042,-7.879617214202881,2.1263504028320312
1772593667636437000,5.85643701171875,0.6997054219245911,-7.846397399902344,2.8655600547790527
1772593667656700000,5.876699951171875,0.6563105583190918,-7.834127426147461,2.9053637981414795
1772593667676964000,5.896964111328125,0.5952584147453308,-7.8314337730407715,2.9017724990844727
1772593667697228000,5.91722802734375,-0.44083237648010254,-7.8006086349487305,2.853289842605591
1772593667717491000,5.937490966796875,-0.4982932209968567,-7.726089000701904,2.0736780166625977
1772593667737755000,5.9577548828125,-0.5479729175567627,-6.910863399505615,2.035670042037964
1772593667758019000,5.97801904296875,-0.5692214369773865,-6.888716697692871,1.9961656332015991
1772593667778282000,5.998281982421875,-0.5820902585983276,-6.859687328338623,1.9443910121917725
1772593667798546000,6.0185458984375,-0.6015431880950928,-6.821080684661865,1.890222191810608
1772593667818810000,6.03881005859375,-0.5949591398239136,-6.8016276359558105,1.8614917993545532
1772593667839073000,6.059072998046875,-0.6147112846374512,-6.8243727684021,1.9509750604629517
1772593667859337000,6.0793369140625,-1.3886369466781616,-6.915651798248291,3.3848025798797607
1772593667879601000,6.099600830078125,-1.4110826253890991,-8.415918350219727,5.989095687866211
1772593667899864000,6.119864013671875,-2.291550397872925,-9.740509986877441,7.387608528137207
1772593667920128000,6.1401279296875,-3.3961751461029053,-10.599729537963867,9.226655006408691
1772593667940392000,6.160391845703125,-4.242824554443359,-10.613495826721191,10.440814018249512
1772593667960655000,6.180655029296875,-4.145260810852051,-11.493664741516113,10.375572204589844
1772593667980919000,6.2009189453125,-2.583343744277954,-12.81855583190918,8.999205589294434
1772593668001183000,6.221182861328125,-1.7277158498764038,-12.755707740783691,5.484817028045654
1772593668021446000,6.24144580078125,-1.635838270187378,-11.492168426513672,4.206612586975098
1772593668041710000,6.2617099609375,-0.5838859677314758,-10.560225486755371,3.070563793182373
1772593668061974000,6.28197412109375,-0.5823895931243896,-9.762657165527344,2.3145945072174072
1772593668082237000,6.30223681640625,-0.6126163601875305,-9.009679794311523,2.2352864742279053
1772593668102501000,6.322501220703125,0.43424832820892334,-8.146271705627441,1.3218985795974731
1772593668122765000,6.34276513671875,2.6895864009857178,-8.095394134521484,0.4540005028247833
1772593668143028000,6.363028076171875,3.5901055335998535,-8.048707962036133,0.44681790471076965
1772593668163292000,6.3832919921875,3.6092591285705566,-8.013691902160645,0.5021837949752808
1772593668183556000,6.40355615234375,3.5045127868652344,-8.047809600830078,1.435024619102478
1772593668203819000,6.423819091796875,2.177825689315796,-8.096292495727539,2.374748706817627
1772593668224083000,6.4440830078125,2.129343032836914,-8.150161743164062,3.3877954483032227
1772593668244347000,6.464346923828125,2.146401882171631,-8.168717384338379,4.154538631439209
1772593668264610000,6.484610107421875,2.2125415802001953,-8.215703010559082,4.161721229553223
1772593668284874000,6.5048740234375,2.2589292526245117,-8.276755332946777,4.191349506378174
1772593668305138000,6.525137939453125,2.234388828277588,-8.335412979125977,4.203021049499512
1772593668325401000,6.545401123046875,2.205059766769409,-8.356961250305176,4.181173801422119
1772593668345665000,6.5656650390625,2.2194249629974365,-8.362946510314941,4.1285014152526855
1772593668365929000,6.585928955078125,2.2894554138183594,-8.355464935302734,3.338115692138672
1772593668386192000,6.60619189453125,2.2882583141326904,-8.402152061462402,3.304297685623169
1772593668406456000,6.6264560546875,2.237680673599243,-8.458115577697754,3.269881010055542
1772593668426720000,6.646719970703125,1.4727333784103394,-8.50749683380127,3.277961492538452
1772593668446983000,6.66698291015625,1.4841058254241943,-8.561366081237793,4.240131378173828
1772593668467247000,6.6872470703125,1.5442601442337036,-9.311050415039062,5.328595161437988
1772593668487511000,6.707510986328125,1.590049147605896,-9.349058151245117,5.4123921394348145
1772593668507774000,6.72777392578125,1.6445173025131226,-9.40831470489502,6.168960094451904
1772593668528038000,6.748037841796875,1.6379332542419434,-10.612298965454102,6.222230911254883
1772593668548302000,6.768302001953125,0.7413046956062317,-11.463737487792969,7.398382663726807
1772593668568566000,6.78856591796875,0.6676830053329468,-12.231976509094238,7.473201274871826
1772593668588829000,6.808828857421875,-0.2684498727321625,-12.298415184020996,7.472004413604736
1772593668609093000,6.829093017578125,-0.2720411717891693,-12.324152946472168,6.197690486907959
1772593668629357000,6.849357177734375,-0.25408464670181274,-12.327445030212402,4.620809078216553
1772593668649620000,6.869619873046875,-0.1966238170862198,-12.311583518981934,3.216310739517212
1772593668669884000,6.8898837890625,-0.17088614404201508,-12.281057357788086,2.0988171100616455
1772593668690148000,6.910148193359375,-0.16190789639949799,-12.223596572875977,2.0126256942749023
1772593668710411000,6.930410888671875,-0.18794482946395874,-12.167632102966309,1.3563152551651
1772593668730675000,6.950675048828125,-0.2124854028224945,-12.122441291809082,2.6782138347625732
1772593668750939000,6.97093896484375,-0.2041056901216507,-12.066476821899414,2.7548282146453857
1772593668771202000,6.9912021484375,-0.19722236692905426,-11.101613998413086,2.8137855529785156
1772593668791466000,7.011466064453125,-0.1975216418504715,-11.038765907287598,2.820070266723633
1772593668811730000,7.03172998046875,-0.22296003997325897,-10.243891716003418,2.769193649291992
1772593668831993000,7.0519931640625,-0.25318682193756104,-9.48882007598877,2.7003602981567383
1772593668852257000,7.072257080078125,-0.26815059781074524,-8.549694061279297,2.6285340785980225
1772593668872521000,7.09252099609375,-0.29149407148361206,-7.572859764099121,1.910872220993042
1772593668892784000,7.1127841796875,-0.30615854263305664,-7.516895294189453,1.8704700469970703
1772593668913048000,7.133048095703125,-0.339078813791275,-7.4444708824157715,1.8375498056411743
1772593668933312000,7.15331201171875,-0.35733461380004883,-7.373542785644531,1.8336591720581055
1772593668953575000,7.173574951171875,-0.37020343542099,-7.352293968200684,1.8528128862380981
1772593668973839000,7.193839111328125,-0.3992331326007843,-7.403769493103027,2.6844985485076904
1772593668994103000,7.21410302734375,-0.45190557837486267,-9.252392768859863,4.0201640129089355
1772593669014366000,7.234365966796875,-1.6086043119430542,-10.635343551635742,5.599140167236328
1772593669034630000,7.2546298828125,-2.374748706817627,-11.539453506469727,8.301894187927246
1772593669054894000,7.27489404296875,-2.4618380069732666,-12.35677433013916,9.503185272216797
1772593669075157000,7.295156982421875,-2.5097219944000244,-12.43727970123291,11.02859115600586
1772593669095421000,7.3154208984375,-1.5436615943908691,-13.218986511230469,11.77977180480957
1772593669115685000,7.33568505859375,-1.4664485454559326,-13.243825912475586,11.005546569824219
1772593669135948000,7.355947998046875,-1.4386159181594849,-13.30338191986084,9.537601470947266
1772593669156212000,7.3762119140625,-0.2816179692745209,-13.319243431091309,7.894281387329102
1772593669176476000,7.396475830078125,0.5363011956214905,-13.340192794799805,7.000047206878662
1772593669196739000,7.416739013671875,0.5003881454467773,-13.333908081054688,6.104615688323975
1772593669217003000,7.4370029296875,0.49799394607543945,-12.587814331054688,5.006575107574463
1772593669237267000,7.457266845703125,0.4593874514102936,-11.636119842529297,4.9694647789001465
1772593669257530000,7.477530029296875,0.424970805644989,-10.546757698059082,5.988796234130859
1772593669277794000,7.4977939453125,0.4216787815093994,-9.182960510253906,8.935160636901855
1772593669298058000,7.51805810546875,0.4192845821380615,-7.918522834777832,10.391134262084961
1772593669318321000,7.53832080078125,0.42377370595932007,-7.01979923248291,11.421239852905273
1772593669338585000,7.558585205078125,0.45669397711753845,-6.082469463348389,11.326668739318848
1772593669358849000,7.57884912109375,0.5072714686393738,-6.007051944732666,8.352472305297852
1772593669379112000,7.59911181640625,0.5862801671028137,-4.725555419921875,6.858789443969727
1772593669399376000,7.6193759765625,1.4718354940414429,-3.261202096939087,4.958092212677002
1772593669419640000,7.63964013671875,2.3570916652679443,-2.509422540664673,3.3063924312591553
1772593669439903000,7.659903076171875,3.271078109741211,-2.475006103515625,2.003048896789551
1772593669460167000,7.6801669921875,3.328239679336548,-2.4396915435791016,1.0055646896362305
1772593669480431000,7.70043115234375,4.105457305908203,-1.6729484796524048,0.1801636815071106
1772593669500694000,7.720694091796875,5.116708278656006,-0.8843582272529602,-0.6703764796257019
1772593669520958000,7.7409580078125,6.0294976234436035,-0.1173158809542656,-0.7260416746139526
1772593669541222000,7.761221923828125,6.11329460144043,0.6323685050010681,-0.7532756924629211
1772593669561485000,7.781485107421875,7.0156097412109375,0.6805518269538879,-0.7143699526786804
1772593669581749000,7.8017490234375,7.917026519775391,0.7101801037788391,-0.6266822814941406
1772593669602013000,7.822012939453125,8.002020835876465,0.6763619780540466,0.5581482648849487
1772593669622276000,7.842276123046875,8.050802230834961,0.603039562702179,1.3832499980926514
1772593669642540000,7.8625400390625,8.054393768310547,0.5934627652168274,1.3440449237823486
1772593669662804000,7.882803955078125,7.198765754699707,0.6416460275650024,0.48632222414016724
1772593669683067000,7.90306689453125,6.276998519897461,1.6624737977981567,0.4474164545536041
1772593669703331000,7.9233310546875,6.2078657150268555,1.7369933128356934,0.38905778527259827
1772593669723595000,7.943594970703125,6.405686855316162,2.5836429595947266,0.3321954905986786
1772593669743858000,7.96385791015625,6.485892295837402,2.6542718410491943,-0.7706336975097656
1772593669764122000,7.9841220703125,7.542633056640625,3.5027170181274414,-0.826897382736206
1772593669784386000,8.004385986328124,8.355165481567383,3.576338768005371,-0.882861852645874
1772593669804649000,8.02464892578125,9.587580680847168,3.6361937522888184,-1.6612766981124878
1772593669824913000,8.044912841796876,10.52790355682373,3.6933553218841553,-1.689408540725708
1772593669845177000,8.065177001953124,10.506056785583496,3.7211880683898926,-1.7025766372680664
1772593669865441000,8.08544091796875,9.457097053527832,3.7304654121398926,-1.733102798461914
1772593669885704000,8.105703857421876,9.403226852416992,3.785532236099243,-1.7621324062347412
1772593669905968000,8.125968017578124,9.387365341186523,4.636371612548828,-1.734000563621521
1772593669926232000,8.146232177734374,9.402928352355957,4.646247863769531,-0.7808090448379517
1772593669946495000,8.166494873046876,9.438541412353516,4.638167381286621,-0.7053917050361633
1772593669966759000,8.186759033203124,9.486125946044922,4.590283393859863,0.1379658728837967
1772593669987023000,8.207023193359374,9.537003517150879,3.664325714111328,0.9151836037635803
1772593670007286000,8.2272861328125,9.615413665771484,3.6128504276275635,0.9585785269737244
1772593670027550000,8.247550048828124,9.659706115722656,3.5514988899230957,0.9741408228874207
1772593670047814000,8.26781396484375,9.670479774475098,3.4991257190704346,0.9681553244590759
1772593670068077000,8.2880771484375,9.66299819946289,3.4521396160125732,0.9430161714553833
1772593670088341000,8.308341064453124,9.651026725769043,3.4042556285858154,0.9097966551780701
1772593670108605000,8.32860498046875,9.617208480834961,3.332728862762451,0.8774749040603638
1772593670128868000,8.3488681640625,9.584288597106934,3.290830135345459,0.8792705535888672
1772593670149132000,8.369132080078124,9.557353973388672,3.2665889263153076,0.8795698285102844
1772593670169396000,8.38939599609375,9.525331497192383,3.232471466064453,0.8744821548461914
1772593670189659000,8.409658935546876,9.496301651000977,3.199252128601074,0.8750807046890259
1772593670209923000,8.429923095703124,9.448118209838867,3.1995513439178467,0.8918401598930359
1772593670230187000,8.45018701171875,9.369708061218262,3.222595453262329,0.9247604012489319
1772593670250450000,8.470449951171876,8.599373817443848,3.2357635498046875,0.983418345451355
1772593670270714000,8.490714111328124,8.613141059875488,3.2504281997680664,1.0130466222763062
1772593670290978000,8.51097802734375,8.620323181152344,3.2824504375457764,1.0387842655181885
1772593670311241000,8.531240966796876,8.664615631103516,3.2824504375457764,1.0387842655181885
1772593670331505000,8.5515048828125,8.733748435974121,3.283946990966797,1.0636241436004639
1772593670351769000,8.57176904296875,8.790611267089844,3.2854433059692383,1.1216834783554077
1772593670372032000,8.592031982421876,8.810662269592285,3.2812533378601074,1.1507132053375244
1772593670392296000,8.6122958984375,8.83011531829834,3.3237504959106445,1.1899182796478271
1772593670412560000,8.632559814453124,8.81664752960205,3.325246810913086,1.2410943508148193
1772593670432823000,8.652822998046876,8.77385139465332,3.323451280593872,1.291372537612915
1772593670453087000,8.6730869140625,8.744821548461914,3.3821091651916504,1.3515268564224243
1772593670473351000,8.693350830078124,8.7484130859375,3.411438226699829,1.3910311460494995
1772593670493614000,8.713614013671876,8.748712539672852,3.4275989532470703,1.4628572463989258
1772593670513878000,8.7338779296875,8.803180694580078,3.4497454166412354,2.2706010341644287
1772593670534142000,8.754141845703124,8.884882926940918,3.463212728500366,2.2550387382507324
1772593670554405000,8.774405029296876,9.64923095703125,3.477278709411621,2.20924973487854
1772593670574669000,8.7946689453125,9.622895240783691,3.520972967147827,2.141613483428955
1772593670594933000,8.81493310546875,9.569025993347168,3.5598785877227783,2.083254814147949
1772593670615196000,8.83519580078125,9.537900924682617,3.605069160461426,2.022202491760254
1772593670635460000,8.855460205078124,9.543288230895996,3.6391866207122803,2.0009541511535645
1772593670655724000,8.87572412109375,9.518447875976562,3.669712543487549,1.986289620399475
1772593670675987000,8.895987060546876,9.498994827270508,3.6990416049957275,1.96683669090271
1772593670696251000,8.9162509765625,9.486724853515625,3.6966474056243896,1.965938925743103
1772593670716515000,8.93651513671875,9.434351921081543,3.685873508453369,1.9518729448318481
1772593670736778000,8.956778076171876,9.396942138671875,3.6780924797058105,1.899200439453125
1772593670757042000,8.9770419921875,9.358634948730469,3.66851544380188,1.8713679313659668
1772593670777306000,8.99730615234375,9.354744911193848,3.6978445053100586,1.8055273294448853
1772593670797569000,9.017569091796876,9.364919662475586,3.7340567111968994,1.7510592937469482
1772593670817833000,9.0378330078125,9.363423347473145,3.7439329624176025,1.0121487379074097
1772593670838097000,9.058096923828124,9.342473983764648,3.7520134449005127,0.9469067454338074
1772593670858360000,9.078360107421876,9.31853199005127,3.7726633548736572,0.8807669281959534
1772593670878624000,9.0986240234375,9.288904190063477,3.796605348587036,0.15263035893440247
1772593670898888000,9.118887939453124,9.258976936340332,3.8073792457580566,0.1454477459192276
1772593670919151000,9.139151123046876,9.220968246459961,3.8139634132385254,0.1182137057185173
1772593670939415000,9.1594150390625,9.206603050231934,3.82922625541687,0.04997896030545235
1772593670959679000,9.179678955078124,9.252392768859863,3.8376059532165527,-0.7529764175415039
1772593670979942000,9.19994189453125,9.330802917480469,3.8516719341278076,-0.7966706156730652
1772593671000206000,9.2202060546875,10.175955772399902,3.8750154972076416,-0.8445546627044678
1772593671020470000,9.240469970703124,10.143633842468262,3.906140089035034,-0.8622118830680847
1772593671040733000,9.26073291015625,10.085275650024414,3.941155195236206,-0.8903437852859497
1772593671060997000,9.2809970703125,10.038887977600098,3.976768970489502,-0.9193734526634216
1772593671081261000,9.301260986328124,9.989806175231934,4.009988784790039,-0.9415197968482971
1772593671101524000,9.32152392578125,9.928455352783203,4.016871929168701,-0.9738415479660034
1772593671121788000,9.341787841796876,9.042001724243164,4.027945041656494,-0.9759364724159241
1772593671142052000,9.362052001953124,8.996811866760254,4.055179119110107,-0.9648633003234863
1772593671162316000,9.38231591796875,8.944737434387207,4.075230598449707,-0.9487023949623108
1772593671182579000,9.402578857421876,8.89146614074707,4.101566791534424,-0.9561843276023865
1772593671202843000,9.4228427734375,8.837297439575195,4.105756759643555,-0.9406219720840454
1772593671223107000,9.443107177734374,8.79659652709961,4.125209331512451,-0.9187749028205872
1772593671243370000,9.463369873046876,8.734646797180176,4.13179349899292,-0.8813654780387878
1772593671263634000,9.483634033203124,8.677484512329102,4.154837608337402,-0.8520365357398987
1772593671283898000,9.503898193359374,8.616133689880371,4.200626850128174,-0.8173205852508545
1772593671304161000,9.5241611328125,8.565256118774414,4.228758811950684,-0.7478887438774109
1772593671324425000,9.544425048828124,8.535029411315918,4.2631754875183105,-0.6811503767967224
1772593671344689000,9.56468896484375,8.523358345031738,4.26706600189209,-0.6177040338516235
1772593671364952000,9.5849521484375,8.52724838256836,4.269460201263428,0.14185644686222076
1772593671385216000,9.605216064453124,8.544307708740234,4.291007995605469,0.15442600846290588
1772593671405480000,9.62547998046875,8.552986145019531,4.326920986175537,0.14993688464164734
1772593671425743000,9.6457431640625,8.533832550048828,4.392462253570557,0.12240356206893921
1772593671446007000,9.666007080078124,8.498817443847656,4.4630913734436035,0.04997896030545235
1772593671466271000,9.68627099609375,8.459911346435547,5.332186222076416,0.01825578883290291
1772593671486534000,9.706533935546876,8.430283546447754,5.351340293884277,0.013168109580874443
1772593671506798000,9.726798095703124,8.463502883911133,5.342960357666016,0.05117605999112129
1772593671527062000,9.74706201171875,8.525154113769531,5.333683013916016,0.05686229094862938
1772593671547325000,9.767324951171876,8.565855026245117,5.328595161437988,0.042197804898023605
1772593671567589000,9.787589111328124,8.58919906616211,5.350442409515381,0.03770867735147476
1772593671587853000,9.80785302734375,8.597578048706055,5.344157695770264,0.0586579404771328
1772593671608116000,9.828115966796876,8.64246940612793,5.323208332061768,0.10863690078258514
1772593671628380000,9.8483798828125,9.520842552185059,5.286696434020996,0.18405425548553467
1772593671648644000,9.86864404296875,9.56513500213623,5.207687854766846,0.9466074705123901
1772593671668907000,9.888906982421876,9.624092102050781,4.365826606750488,0.9789292216300964
1772593671689171000,9.9091708984375,9.692925453186035,4.355052947998047,1.0010756254196167
1772593671709435000,9.929434814453124,9.719560623168945,4.314949989318848,1.0217255353927612
1772593671729698000,9.949697998046876,9.699809074401855,4.265569686889648,1.0070611238479614
1772593671749962000,9.9699619140625,9.626786231994629,4.244320869445801,0.998681366443634
1772593671770226000,9.990225830078124,8.707412719726562,4.236240863800049,0.9846154451370239
1772593671790489000,10.010489013671876,8.646360397338867,4.235941410064697,0.982221245765686
1772593671810753000,10.0307529296875,8.590096473693848,4.235641956329346,0.9436147212982178
1772593671831017000,10.051016845703124,8.537723541259766,4.249109268188477,0.9023147821426392
1772593671851280000,10.07127978515625,8.485349655151367,4.2416276931762695,0.8816647529602051
1772593671871544000,10.0915439453125,8.497321128845215,4.235043525695801,0.855029284954071
1772593671891808000,10.11180810546875,8.547599792480469,4.206313133239746,0.8601169586181641
1772593671912071000,10.13207080078125,8.59997272491455,4.179976940155029,0.8637082576751709
1772593671932335000,10.152335205078124,8.580220222473145,4.162319660186768,0.8373720645904541
1772593671952599000,10.17259912109375,8.543708801269531,4.175786972045898,0.788889467716217
1772593671972862000,10.192862060546876,7.712920665740967,4.210203647613525,0.7365162968635559
1772593671993126000,10.2131259765625,7.656956195831299,4.23893404006958,0.6928220987319946
1772593672013390000,10.23339013671875,7.60488224029541,4.3080668449401855,0.6916249990463257
1772593672033653000,10.253653076171876,7.652766227722168,4.3529582023620605,0.6802525520324707
1772593672053917000,10.2739169921875,8.41232681274414,4.415207386016846,0.645237386226654
1772593672074181000,10.29418115234375,8.415918350219727,4.478354454040527,0.5656301379203796
1772593672094444000,10.314444091796876,8.380603790283203,5.240907669067383,-0.24241292476654053
1772593672114708000,10.3347080078125,8.338705062866211,5.258863925933838,-0.2750339210033417
