time,seconds_elapsed,z,y,x
1772389374639958500,0.30295849609375,-0.09990400075912476,0.0268389992415905,0.029208999127149582
1772389374660015000,0.32301513671875,-0.2615230083465576,-0.044927000999450684,-0.05663200095295906
1772389374680072000,0.343072021484375,-0.21321800351142883,-0.1495410054922104,-0.25650501251220703
1772389374700128800,0.363128662109375,0.1398240029811859,-0.19563299417495728,-0.24520400166511536
1772389374720185600,0.383185546875,0.2766590118408203,-0.2221059948205948,-0.18256300687789917
1772389374740242200,0.4032421875,0.2269269973039627,0.004714000038802624,-0.027650000527501106
1772389374760299000,0.423299072265625,0.3079420030117035,0.0837709978222847,0.1658789962530136
1772389374780355800,0.44335595703125,0.3903529942035675,0.055817000567913055,0.11110299825668335
1772389374800412700,0.46341259765625,0.3634830117225647,0.07745300233364105,0.11208199709653854
1772389374820469500,0.483469482421875,0.26198598742485046,0.004362999927252531,0.0824659988284111
1772389374840526300,0.5035263671875,0.2959890067577362,-0.0813089981675148,-0.07402600347995758
1772389374860583200,0.523583251953125,0.2383909970521927,0.0005520000122487545,-0.03282099962234497
1772389374880639700,0.5436396484375,0.07391300052404404,0.014041000045835972,0.029742000624537468
1772389374900696600,0.563696533203125,-0.05766899883747101,0.03203300014138222,-0.12740500271320343
1772389374920753400,0.58375341796875,-0.06853500008583069,-0.012772999703884125,-0.1883240044116974
1772389374940810200,0.603810302734375,-0.03402800112962723,0.04898099973797798,-0.1466590017080307
1772389374960866800,0.62386669921875,0.13197700679302216,0.04718500003218651,0.02587199956178665
1772389374980923600,0.643923583984375,0.0039809998124837875,-0.023850999772548676,0.14309699833393097
1772389375000980500,0.66398046875,-0.16401399672031403,0.030518999323248863,-0.028720999136567116
1772389375021037300,0.684037353515625,-0.18081100285053253,0.002015999983996153,-0.3621770143508911
1772389375041094100,0.70409423828125,-0.06384900212287903,-0.13998599350452423,-0.3601419925689697
1772389375061151000,0.72415087890625,0.01931999996304512,-0.10238900035619736,-0.0817129984498024
1772389375081207800,0.744207763671875,0.06745599955320358,0.1300870031118393,0.1450289934873581
1772389375101264600,0.7642646484375,0.14756500720977783,0.04487000033259392,0.20082299411296844
1772389375121321500,0.784321533203125,0.020452000200748444,-0.012103999964892864,-0.01374099962413311
1772389375141378000,0.8043779296875,-0.054037999361753464,0.027116000652313232,0.015406999737024307
1772389375161435000,0.824434814453125,0.05036899819970131,0.0656920000910759,0.06032500043511391
1772389375181491700,0.84449169921875,0.2298949956893921,0.027753999456763268,0.13305999338626862
1772389375201548500,0.864548583984375,0.35031598806381226,0.019804000854492188,0.12884800136089325
1772389375221605400,0.88460546875,0.2482530027627945,-0.06095600128173828,-0.04012100026011467
1772389375241662200,0.904662109375,-0.15819700062274933,-0.07116600126028061,-0.21449699997901917
1772389375261719000,0.924718994140625,-0.4385569989681244,0.04226699844002724,-0.1635970026254654
1772389375281775900,0.94477587890625,-0.34524598717689514,0.07621300220489502,0.04352099820971489
1772389375301832400,0.96483251953125,-0.06739699840545654,0.10497000068426132,0.10521700233221054
1772389375321889500,0.9848896484375,0.13808199763298035,0.0031759999692440033,0.0385730005800724
1772389375341946400,1.0049462890625,0.22086499631404877,-0.09505800157785416,-0.02434000000357628
1772389375362003000,1.0250029296875,0.1038919985294342,-0.1144459992647171,-0.161871999502182
1772389375382059800,1.045059814453125,-0.06408499926328659,-0.10835699737071991,-0.07589799910783768
1772389375402116600,1.06511669921875,0.0007309999782592058,-0.017885999754071236,0.15048100054264069
1772389375422173400,1.08517333984375,-0.005014999769628048,0.07929100096225739,0.10278499871492386
1772389375442230300,1.105230224609375,-0.03681199997663498,0.025032000616192818,0.07822799682617188
1772389375462286800,1.125286865234375,0.07615000009536743,0.06482599675655365,0.09938199818134308
1772389375482343700,1.14534375,0.17132000625133514,0.07986100018024445,0.06590600311756134
1772389375502400500,1.165400390625,0.1626559942960739,-0.0065100002102553844,0.03752399981021881
1772389375522457300,1.185457275390625,0.194923996925354,-0.022809000685811043,-0.008379999548196793
1772389375542514200,1.20551416015625,0.14473900198936462,-0.0406470000743866,-0.09070400148630142
1772389375562571000,1.225571044921875,0.1093909963965416,-0.017317000776529312,-0.09976299852132797
1772389375582627800,1.2456279296875,0.12431299686431885,0.010945999994874,-0.10300999879837036
1772389375602684700,1.2656845703125,0.024250000715255737,-0.018442999571561813,-0.20240800082683563
1772389375622741500,1.285741455078125,-0.17019900679588318,-0.017952999100089073,-0.12992599606513977
1772389375642798300,1.30579833984375,-0.18175899982452393,0.07363700121641159,-0.011940999887883663
1772389375662855200,1.325855224609375,-0.09180700033903122,0.0717099979519844,-0.055153001099824905
1772389375682911700,1.345911865234375,-0.0462459996342659,0.05176699906587601,-0.04972200095653534
1772389375702968800,1.36596875,0.003003000048920512,0.01901400089263916,0.08022099733352661
1772389375723025400,1.386025390625,0.16480199992656708,-0.02558800019323826,0.026576999574899673
1772389375743082500,1.40608251953125,0.2910420000553131,-0.008469999767839909,-0.013938000425696373
1772389375763139300,1.426139404296875,0.1544329971075058,-0.013175999745726585,0.05604900047183037
1772389375783196200,1.446196044921875,0.03314699977636337,0.018259000033140182,0.04323900118470192
1772389375803253000,1.4662529296875,0.03451700136065483,-0.05979299917817116,0.015390999615192413
1772389375823309800,1.486309814453125,-0.025985000655055046,0.00736499996855855,-0.020486000925302505
1772389375843366700,1.50636669921875,-0.07998800277709961,-0.0013070000568404794,0.030009999871253967
1772389375863423500,1.526423583984375,-0.01039000041782856,-0.1354459971189499,-0.03759099915623665
1772389375883480300,1.546480224609375,0.19648699462413788,0.14124199748039246,-0.041273001581430435
1772389375903537200,1.566537109375,0.42678898572921753,0.06819300353527069,0.11818099766969681
1772389375923594000,1.586593994140625,0.4950309991836548,-0.13504500687122345,-0.06065399944782257
1772389375943650800,1.60665087890625,0.40162500739097595,0.0975629985332489,-0.1517229974269867
1772389375963707600,1.626707763671875,0.15330000221729279,-0.0011490000179037452,-0.1869789958000183
1772389375983764200,1.64676416015625,0.018640000373125076,-0.13051800429821014,-0.6495829820632935
1772389376003821300,1.6668212890625,0.17971199750900269,-0.001214000047184527,-0.7700660228729248
1772389376023878100,1.686878173828125,0.22776900231838226,-0.05297200009226799,-0.773652970790863
1772389376043935000,1.70693505859375,0.20541499555110931,-0.12637799978256226,-0.6509220004081726
1772389376063991800,1.72699169921875,0.13793200254440308,0.15569700300693512,-0.24553799629211426
1772389376084048600,1.747048583984375,-0.1160539984703064,0.47335800528526306,0.15796899795532227
1772389376104105200,1.767105224609375,-0.2536430060863495,0.5010859966278076,0.5687749981880188
1772389376124162000,1.787162109375,-0.06531400233507156,0.02486800029873848,0.6446200013160706
1772389376144219100,1.80721923828125,0.032547999173402786,-0.1505039930343628,-0.17950299382209778
1772389376164276000,1.82727587890625,-0.14996099472045898,-0.07000300288200378,-0.21400199830532074
1772389376184332500,1.84733251953125,-0.012768999673426151,0.007197000086307526,-0.012001999653875828
1772389376204389600,1.8673896484375,0.22898399829864502,-0.12064100056886673,0.22159799933433533
1772389376224446500,1.887446533203125,-0.33761200308799744,-0.04291300103068352,0.06447800248861313
1772389376244503300,1.90750341796875,-0.3396889865398407,-0.09593000262975693,-0.16121700406074524
1772389376264559900,1.927559814453125,0.3930479884147644,-0.36234399676322937,-0.6225730180740356
1772389376284617000,1.947616943359375,0.6176379919052124,-0.2570750117301941,-0.9348580241203308
1772389376304673800,1.967673828125,0.33250999450683594,-0.04245999827980995,-0.3270869851112366
1772389376324730600,1.987730712890625,0.28360798954963684,-0.061167001724243164,0.09673000127077103
1772389376344787500,2.007787353515625,0.10208600014448166,-0.09453299641609192,-0.15061500668525696
1772389376364844300,2.02784423828125,-0.42952999472618103,0.08677200227975845,-0.13569200038909912
1772389376384901000,2.047901123046875,-0.2972239851951599,-0.02658100053668022,-0.21735399961471558
1772389376404958000,2.0679580078125,-0.04817900061607361,-0.10526499897241592,-0.3562830090522766
1772389376425014800,2.088014892578125,-0.16894300282001495,0.06938699632883072,-0.07062599807977676
1772389376445071600,2.108071533203125,-0.23915499448776245,0.09710899740457535,0.261898010969162
1772389376465128700,2.128128662109375,-0.1697230041027069,-0.06951200217008591,0.04071899875998497
1772389376485185500,2.148185546875,-0.3637790083885193,-0.03640900179743767,0.17657500505447388
1772389376505242400,2.168242431640625,-0.5366230010986328,0.034070998430252075,0.2612600028514862
1772389376525299000,2.188298828125,-0.2180979996919632,-0.022342000156641006,0.20180800557136536
1772389376545356000,2.20835595703125,-0.0248780008405447,-0.027473999187350273,0.13984599709510803
1772389376565412900,2.228412841796875,-0.019903000444173813,-0.03557800129055977,0.11427699774503708
1772389376585469700,2.2484697265625,-0.0031220000237226486,-0.06286299973726273,0.11222100257873535
1772389376605526500,2.268526611328125,-0.03449700027704239,-0.09269099682569504,-0.019021999090909958
1772389376625583600,2.28858349609375,-0.18679800629615784,-0.0053519997745752335,-0.07441800087690353
1772389376645640200,2.30864013671875,-0.24703800678253174,0.049316998571157455,0.005264999810606241
1772389376665697000,2.328697021484375,-0.14963099360466003,0.018654000014066696,-0.001386999967508018
1772389376685754000,2.348754150390625,-0.12370400130748749,-0.017875999212265015,-0.04191000014543533
1772389376705811000,2.36881103515625,-0.1965630054473877,-0.010301000438630581,-0.04872800037264824
1772389376725867800,2.38886767578125,-0.00445100013166666,0.010958000086247921,-0.13098199665546417
1772389376745924600,2.408924560546875,0.15563799440860748,0.022366000339388847,-0.11198499798774719
1772389376765981700,2.428981689453125,0.14771099388599396,0.008293000049889088,0.004011000040918589
1772389376786038300,2.449038330078125,0.14456799626350403,-0.034164998680353165,0.0552080012857914
1772389376806095400,2.469095458984375,-0.01474399957805872,-0.013731000013649464,0.0841670036315918
1772389376826152200,2.489152099609375,-0.16459499299526215,-0.005384999793022871,0.09613300114870071
1772389376846209000,2.509208984375,0.008322999812662601,0.02449199929833412,-0.08789300173521042
1772389376866266000,2.52926611328125,0.12345799803733826,-0.07240600138902664,-0.08551400154829025
1772389376886323000,2.549322998046875,0.07956600189208984,-0.04192499816417694,0.12838800251483917
1772389376906379800,2.5693798828125,0.02125299908220768,0.06405899673700333,0.14751000702381134
1772389376926436900,2.589436767578125,-0.09819699823856354,-0.014352000318467617,0.10840799659490585
1772389376946493700,2.60949365234375,-0.17215700447559357,-0.007482000160962343,0.06912600249052048
1772389376966550500,2.629550537109375,-0.07452599704265594,-0.009984999895095825,0.047301001846790314
1772389376986607600,2.649607666015625,0.0019779999274760485,0.02881000004708767,-0.01895800046622753
1772389377006664400,2.66966455078125,0.04558299854397774,-0.011350000277161598,0.030432000756263733
1772389377026721300,2.68972119140625,0.03406599909067154,0.017318999394774437,0.0763460025191307
1772389377046778400,2.7097783203125,0.008852999657392502,0.08505500108003616,0.12027700245380402
1772389377066835200,2.729835205078125,-0.008917000144720078,0.16964399814605713,0.16502100229263306
1772389377086892000,2.74989208984375,-0.12393300235271454,0.04771599918603897,0.0976170003414154
1772389377106949000,2.76994921875,-0.0991469994187355,-0.0426269993185997,-0.052306000143289566
1772389377127005700,2.790005615234375,-0.032917000353336334,-0.14290200173854828,-0.33624398708343506
1772389377147062800,2.810062744140625,-0.02233400009572506,-0.2295210063457489,-0.3897950053215027
1772389377167120000,2.830119873046875,0.05093200132250786,-0.0764169991016388,-0.059036001563072205
1772389377187176700,2.8501767578125,0.1647460013628006,0.05566500127315521,0.30476999282836914
1772389377207233500,2.870233642578125,0.1301960051059723,0.034933000802993774,0.2654159963130951
1772389377227290600,2.89029052734375,-0.17584200203418732,0.05114499852061272,0.14913299679756165
1772389377247347500,2.910347412109375,-0.2286739945411682,0.004116999916732311,0.17610600590705872
1772389377267404300,2.930404296875,0.10425999760627747,0.02489200048148632,0.1104850023984909
1772389377287461400,2.95046142578125,0.2314079999923706,0.07111400365829468,0.004387999884784222
1772389377307518200,2.970518310546875,0.027526000514626503,0.02649099938571453,0.0627100020647049
1772389377327575300,2.9905751953125,0.06282100081443787,0.001993000041693449,0.07896800339221954
1772389377347632000,3.010632080078125,0.20545700192451477,-0.008004999719560146,0.020773999392986298
1772389377367689000,3.03068896484375,0.2675650119781494,-0.0008030000026337802,-0.005779999773949385
1772389377387746000,3.05074609375,0.2084520012140274,-0.027042999863624573,-0.0358240008354187
1772389377407803000,3.070802978515625,-0.03643700107932091,-0.004834999796003103,-0.05345899984240532
1772389377427860000,3.09085986328125,-0.18434999883174896,0.04973100125789642,-0.08676700294017792
1772389377447916800,3.110916748046875,-0.3386799991130829,0.018983999267220497,-0.09421300143003464
1772389377467974000,3.130973876953125,-0.4573439955711365,0.08798699826002121,0.0622280016541481
1772389377488030700,3.15103076171875,-0.13227500021457672,0.123989999294281,0.1377830058336258
1772389377508087800,3.171087890625,0.17417900264263153,-0.021608000621199608,0.0054259998723864555
1772389377528144600,3.19114453125,0.17214299738407135,-0.0900849997997284,-0.013257999904453754
1772389377548201700,3.21120166015625,0.09691499918699265,0.011931000277400017,0.11979299783706665
1772389377568258800,3.2312587890625,0.13193100690841675,0.01754399947822094,0.08783400058746338
1772389377588315600,3.251315673828125,0.07674500346183777,-0.05316299945116043,-0.015332000330090523
1772389377608372700,3.271372802734375,-0.07700300216674805,0.019068000838160515,0.06373299658298492
1772389377628429600,3.2914296875,-0.10320299863815308,0.02885499969124794,0.0037869999650865793
1772389377648486700,3.311486572265625,-0.03696199879050255,-0.009716000407934189,-0.09696999937295914
1772389377668543700,3.331543701171875,-0.047168999910354614,-0.04217199981212616,-0.05037600174546242
1772389377688600800,3.351600830078125,0.10066299885511398,0.011861000210046768,0.03569899871945381
1772389377708657700,3.37165771484375,0.18613100051879883,0.01348899956792593,0.04455899819731712
1772389377728714800,3.39171484375,0.031304001808166504,0.010790999978780746,0.010046999901533127
1772389377748771800,3.411771728515625,-0.024555999785661697,-0.008166000247001648,0.054437000304460526
1772389377768828700,3.43182861328125,-0.015644999220967293,-0.008932000026106834,0.01875000074505806
1772389377788885800,3.4518857421875,-0.03171499818563461,-0.01434599980711937,0.01899999938905239
1772389377808942600,3.471942626953125,0.028226999565958977,0.035721998661756516,0.07599999755620956
1772389377828999700,3.491999755859375,0.04978099837899208,0.06697800010442734,0.05119999870657921
1772389377849056800,3.512056884765625,0.020625000819563866,-0.007216999772936106,-0.016638999804854393
1772389377869113900,3.53211376953125,0.05090000107884407,-0.053773000836372375,-0.03971099853515625
1772389377889170700,3.552170654296875,0.06151999905705452,-0.019819000735878944,-0.02456899918615818
1772389377909227500,3.5722275390625,0.01881599985063076,0.008944000117480755,-0.0020550000481307507
1772389377929284900,3.592284912109375,-0.021747000515460968,-0.017643999308347702,0.011955000460147858
1772389377949341700,3.612341796875,0.04020199924707413,-0.004515000153332949,-0.017635000869631767
1772389377969398500,3.6323984375,-0.003837999887764454,0.001986999996006489,-0.05970799922943115
1772389377989455600,3.65245556640625,-0.08387000113725662,-0.01040900032967329,0.02263299934566021
1772389378009512700,3.6725126953125,-0.06549599766731262,0.07807199656963348,0.14130599796772003
1772389378029569500,3.692569580078125,0.017201999202370644,0.09285800158977509,0.16424499452114105
1772389378049626600,3.712626708984375,0.02496200054883957,0.00548599986359477,0.08579599857330322
1772389378069683700,3.73268359375,-0.008829999715089798,-0.009209999814629555,-0.03296300023794174
1772389378089740500,3.752740478515625,0.07373499870300293,-0.007368000224232674,-0.07436999678611755
1772389378109797600,3.772797607421875,0.08538799732923508,-0.032294001430273056,-0.07069599628448486
1772389378129854700,3.792854736328125,-0.01968899928033352,-0.024234000593423843,0.0482419990003109
1772389378149911600,3.81291162109375,-0.13815100491046906,0.0710119977593422,0.13619400560855865
1772389378169968600,3.83296875,-0.06812000274658203,0.06080999970436096,0.07135500013828278
1772389378190025500,3.853025390625,-0.03929600119590759,-0.03375200182199478,-0.11971499770879745
1772389378210082600,3.87308251953125,-0.16423699259757996,-0.0350009985268116,-0.11497200280427933
1772389378230139600,3.8931396484375,-0.1425900012254715,0.021598000079393387,0.005621999967843294
1772389378250196700,3.91319677734375,0.09872700273990631,0.04447900131344795,0.0564970001578331
1772389378270253800,3.93325390625,0.23978200554847717,0.008382000029087067,0.0067980000749230385
1772389378290311000,3.953310791015625,0.21902500092983246,-0.023693999275565147,-0.07696100324392319
1772389378310367700,3.97336767578125,0.09282000362873077,-0.039753999561071396,-0.00796900037676096
1772389378330424800,3.9934248046875,-0.03934299945831299,-0.0726030021905899,0.07842399924993515
1772389378350482000,4.01348193359375,-0.18267400562763214,0.014716999605298042,0.15233899652957916
1772389378370538800,4.033538818359375,-0.13813899457454681,0.05577300116419792,0.0642710030078888
1772389378390596000,4.05359619140625,-0.02251099981367588,0.01821799948811531,-0.05338200181722641
1772389378410653000,4.07365283203125,0.12519000470638275,0.006574000231921673,0.060492999851703644
1772389378430710000,4.0937099609375,0.23455199599266052,-0.030740000307559967,0.033195000141859055
1772389378450767000,4.11376708984375,0.20124100148677826,0.008206999860703945,-0.0118429996073246
1772389378470824200,4.13382421875,-0.01500600017607212,0.05216500163078308,0.026523999869823456
1772389378490881000,4.153881103515625,-0.10080499947071075,-0.013466999866068363,-0.05477999895811081
1772389378510938000,4.173938232421875,-0.020642999559640884,-0.043574001640081406,-0.13582399487495422
1772389378530995200,4.1939951171875,0.06188400089740753,0.007540000136941671,-0.02625899948179722
1772389378551052300,4.21405224609375,0.034306999295949936,-0.03636699914932251,-0.03460700064897537
1772389378571109000,4.234109130859375,-0.06295300275087357,-0.01549299992620945,0.06831400096416473
1772389378591166200,4.254166259765625,-0.061563000082969666,0.04120500013232231,0.13465100526809692
1772389378611223600,4.2742236328125,-0.10525000095367432,0.017764000222086906,0.0597199983894825
1772389378631280400,4.2942802734375,-0.04340000078082085,0.025411000475287437,0.04217600077390671
1772389378651337500,4.31433740234375,0.009278999641537666,-0.03727100044488907,0.014541000127792358
1772389378671394600,4.33439453125,-0.0997759997844696,0.002982999896630645,0.023632999509572983
1772389378691451400,4.354451416015625,-0.1110209971666336,0.03118699975311756,0.03170600160956383
1772389378711508500,4.374508544921875,-0.07361599802970886,0.005748999770730734,-0.01463400013744831
1772389378731565600,4.394565673828125,-0.10049299895763397,0.03660000115633011,-0.08050700277090073
1772389378751622700,4.41462255859375,0.08760499954223633,-0.046720001846551895,0.04839299991726875
1772389378771679700,4.4346796875,0.2028840035200119,-0.010975999757647514,-0.0012839999981224537
1772389378791736600,4.454736572265625,0.14630700647830963,0.031217999756336212,0.027772000059485435
1772389378811793700,4.474793701171875,0.11544500291347504,-0.005425000097602606,-0.050581999123096466
1772389378831850800,4.494850830078125,-0.07404299825429916,-0.05793900042772293,-0.014065000228583813
1772389378851907800,4.514907958984375,-0.10563399642705917,-0.0039519998244941235,0.0463469997048378
1772389378871965000,4.53496484375,0.048291999846696854,0.04643800109624863,0.05627699941396713
1772389378892022000,4.55502197265625,0.07463300228118896,0.04115099832415581,0.06022199988365173
1772389378912078800,4.575078857421875,0.1461070030927658,0.004120000172406435,0.027377000078558922
1772389378932136000,4.595135986328125,0.0592849999666214,-0.019903000444173813,0.037101998925209045
1772389378952193000,4.615193115234375,-0.058171000331640244,0.024077000096440315,0.033681001514196396
1772389378972249900,4.635249755859375,-0.01933700032532215,0.036862000823020935,0.04054500162601471
1772389378992307200,4.65530712890625,-0.005869000218808651,-0.006508999969810247,0.0036359999794512987
1772389379012364000,4.675364013671875,-0.01669500023126602,-0.00520800007507205,0.010108999907970428
1772389379032421000,4.695421142578125,0.015443000011146069,-0.032965999096632004,-0.008712000213563442
1772389379052478200,4.715478271484375,-0.08924499899148941,-0.020772000774741173,-0.06057000160217285
1772389379072535000,4.73553515625,-0.2089959979057312,0.009781000204384327,-0.06045600026845932
1772389379092592000,4.755592041015625,-0.1367969959974289,0.015824999660253525,-0.007563999854028225
1772389379112649200,4.775649169921875,-0.07103700190782547,0.026259999722242355,0.0659480020403862
1772389379132706300,4.795706298828125,-0.03923000022768974,0.032207999378442764,0.12395799905061722
1772389379152763400,4.815763427734375,-0.04338400065898895,0.024166999384760857,0.06476599723100662
1772389379172820200,4.8358203125,0.05409200116991997,-0.04226600006222725,-0.00018600000475998968
1772389379192877300,4.855877197265625,0.12327399849891663,-0.0322129987180233,-0.032148998230695724
1772389379212934400,4.875934326171875,0.13701899349689484,-0.00016900000628083944,0.04707999899983406
1772389379232991500,4.895991455078125,0.12321499735116959,0.0030640000477433205,0.07766400277614594
1772389379253048600,4.916048583984375,0.11777199804782867,-0.010347999632358551,-0.0010679999832063913
1772389379273105400,4.93610546875,0.09581799805164337,-0.03947899863123894,-0.08885399997234344
1772389379293162500,4.95616259765625,-0.020944999530911446,0.006816000211983919,0.005716000217944384
1772389379313219600,4.976219482421875,-0.19115599989891052,0.10145299881696701,0.11337299644947052
1772389379333276700,4.996276611328125,-0.23692500591278076,0.067562997341156,0.05789799988269806
1772389379353333800,5.016333740234375,-0.06874000281095505,-0.02034899964928627,-0.004881000146269798
1772389379373390800,5.036390869140625,0.04580700024962425,-0.0602790005505085,-0.10950499773025513
1772389379393447700,5.05644775390625,-0.08335299789905548,-0.05622300133109093,-0.030004000291228294
1772389379413504800,5.0765048828125,-0.12828299403190613,0.016620999202132225,0.11359599977731705
1772389379433561600,5.0965615234375,0.08297300338745117,0.09889599680900574,0.10847699642181396
1772389379453619000,5.116618896484375,0.2695780098438263,0.01591699942946434,-0.010817999951541424
1772389379473675800,5.13667578125,0.20446300506591797,-0.013666000217199326,-0.020654000341892242
1772389379493733000,5.156733154296875,0.14836999773979187,0.009866000153124332,0.03147599846124649
1772389379513790000,5.1767900390625,0.07789599895477295,0.0158929992467165,-0.005218000151216984
1772389379533847000,5.196846923828125,-0.09848199784755707,0.01831500045955181,0.034223999828100204
1772389379553904000,5.216904052734375,-0.0019859999883919954,-0.023747999221086502,0.04817900061607361
1772389379573961200,5.236961181640625,0.11521100252866745,-0.06859800219535828,-0.08225599676370621
1772389379594018000,5.25701806640625,-0.017431000247597694,-0.030077999457716942,-0.06340400129556656
1772389379614075100,5.2770751953125,-0.10194399952888489,0.021536000072956085,0.054076001048088074
1772389379634132200,5.29713232421875,-0.05435600131750107,0.06522899866104126,0.08005999773740768
1772389379654189000,5.31718896484375,-0.0010839999886229634,0.044982001185417175,0.048847999423742294
1772389379674246100,5.33724609375,0.007931999862194061,0.04958600178360939,0.046278998255729675
1772389379694303200,5.35730322265625,0.03354499861598015,-0.01792999915778637,0.0010229999898001552
1772389379714360000,5.377360107421875,0.0460360012948513,-0.014344999566674232,-0.07198099792003632
1772389379734417400,5.39741748046875,0.028829000890254974,-0.019474999979138374,-0.0519849993288517
1772389379754474200,5.41747412109375,-0.0033360000234097242,-0.025180000811815262,-0.012787999585270882
1772389379774531300,5.43753125,-0.08506900072097778,0.04305500164628029,0.014569000340998173
1772389379794588400,5.45758837890625,-0.06805499643087387,0.06724300235509872,0.06365499645471573
1772389379814645200,5.477645263671875,-0.004844000097364187,-0.009405000135302544,-0.057075001299381256
1772389379834702300,5.497702392578125,-0.020674999803304672,-0.030724000185728073,0.0007389999809674919
1772389379854759400,5.517759521484375,0.04825900122523308,0.017820000648498535,0.04059100151062012
1772389379874816500,5.53781640625,0.09380699694156647,-0.051343001425266266,0.03247300162911415
1772389379894873300,5.557873291015625,0.05584599822759628,-0.033075001090765,-0.014020999893546104
1772389379914930400,5.577930419921875,-0.0625229999423027,-0.04405999928712845,0.02878200076520443
1772389379934987500,5.597987548828125,-0.15081800520420074,0.020750999450683594,0.09182599931955338
1772389379955044400,5.61804443359375,-0.01345400046557188,0.008600999601185322,0.06066099926829338
1772389379975101700,5.638101806640625,0.1020359992980957,0.02048099972307682,-0.01707099936902523
1772389379995158500,5.658158447265625,0.02802800014615059,0.02038400061428547,-0.03045699931681156
1772389380015215600,5.678215576171875,-0.031176000833511353,0.0011080000549554825,0.014034000225365162
1772389380035272700,5.698272705078125,0.03825800120830536,-0.001512999995611608,-0.011971999891102314
1772389380055329500,5.71832958984375,0.09140600264072418,-0.02201000042259693,0.009620999917387962
1772389380075386600,5.73838671875,0.029124999418854713,-0.010408000089228153,-0.005901999771595001
1772389380095443500,5.758443359375,-0.024699000641703606,-0.030726000666618347,-0.07592199742794037
1772389380115500800,5.778500732421875,-0.09575899690389633,-0.020580999553203583,-0.11033699661493301
1772389380135557600,5.7985576171875,-0.13420699536800385,0.03873499855399132,-0.049869999289512634
1772389380155614700,5.81861474609375,0.03823300078511238,0.022988000884652138,0.056102998554706573
1772389380175671800,5.838671875,0.03058600053191185,0.008790000341832638,0.08648300170898438
1772389380195729000,5.85872900390625,-0.07712999731302261,-0.0041669998317956924,0.11958599835634232
1772389380215785700,5.87878564453125,-0.019303999841213226,-0.029733000323176384,0.11246900260448456
1772389380235842800,5.8988427734375,0.1301559954881668,-0.020586000755429268,-0.00922400038689375
1772389380255900000,5.91889990234375,0.07532499730587006,-0.004468000028282404,0.04222000017762184
1772389380275956700,5.938956787109375,-0.0053400001488626,0.030824000015854836,0.07937599718570709
1772389380296014000,5.95901416015625,-0.07147099822759628,0.07025899738073349,0.008301000110805035
1772389380316071000,5.97907080078125,-0.10277699679136276,0.043407000601291656,0.02184000052511692
1772389380336128000,5.9991279296875,-0.12222199887037277,0.049924999475479126,-0.0361270010471344
1772389380356184800,6.019184814453125,-0.09617699682712555,0.008740999735891819,0.015097999945282936
1772389380376242000,6.039241943359375,0.12225700169801712,0.02059200033545494,0.029678000137209892
1772389380396299000,6.059299072265625,0.12260600179433823,-0.013925000093877316,-0.016256999224424362
1772389380416355800,6.07935595703125,-0.013113999739289284,-0.03593999892473221,-0.06500499695539474
1772389380436413200,6.0994130859375,-0.05049100145697594,-0.011951999738812447,-0.017604000866413116
1772389380456470000,6.119469970703125,0.03400599956512451,-0.01356200035661459,0.09311600029468536
1772389380476527000,6.139527099609375,0.03120500035583973,-0.02764900028705597,0.10489200055599213
1772389380496584200,6.159584228515625,0.024963999167084694,-0.046918999403715134,0.045513998717069626
1772389380516641000,6.17964111328125,0.01837100088596344,-0.03993599861860275,0.00041099998634308577
1772389380536698000,6.199697998046875,-0.11730200052261353,0.0024500000290572643,0.06352899968624115
1772389380556755200,6.219755126953125,-0.07704199850559235,0.06756000220775604,0.07562299817800522
1772389380576812000,6.23981201171875,0.0799660012125969,0.0788469985127449,0.11409799754619598
1772389380596869000,6.259869140625,0.09517200291156769,0.053477998822927475,0.09127900004386902
1772389380616926000,6.279926025390625,0.06253799796104431,-0.009216999635100365,-0.060575999319553375
1772389380636983300,6.2999833984375,-0.030768999829888344,-0.03777400031685829,-0.05246099829673767
1772389380657040100,6.3200400390625,-0.01501499954611063,0.06738000363111496,0.0348300002515316
1772389380677097200,6.34009716796875,0.03198700025677681,0.038704000413417816,0.00866399984806776
1772389380697154000,6.360154052734375,-0.037608999758958817,-0.03783600032329559,-0.02826800011098385
1772389380717211100,6.380211181640625,-0.023686999455094337,0.015329999849200249,-0.010614000260829926
1772389380737268200,6.400268310546875,0.049848999828100204,0.005063999909907579,-0.05249100178480148
1772389380757325000,6.420324951171875,0.11427900195121765,-0.147148996591568,-0.06919299811124802
1772389380777382000,6.4403818359375,-0.07897599786520004,-0.04171900078654289,-0.07615400105714798
1772389380797439200,6.460439208984375,-0.12238000333309174,0.033824000507593155,0.10147599875926971
1772389380817496000,6.48049609375,-0.03070399910211563,0.044658999890089035,0.09718000143766403
1772389380837553000,6.500552978515625,-0.10376299917697906,0.020526999607682228,0.056143999099731445
1772389380857610200,6.5206103515625,-0.054211001843214035,-0.009177000261843204,0.07371500134468079
1772389380877667000,6.5406669921875,0.07183100283145905,0.035057999193668365,0.08937200158834457
1772389380897724200,6.56072412109375,0.024663999676704407,0.056846000254154205,0.1426980048418045
1772389380917781000,6.580781005859375,0.0069320001639425755,0.03587700054049492,0.08775799721479416
1772389380937838000,6.600838134765625,-0.05205399915575981,-0.03289699926972389,0.03900599852204323
1772389380957895200,6.620895263671875,-0.0016430000541731715,-0.056717999279499054,-0.022393999621272087
1772389380977952000,6.640951904296875,0.1386840045452118,-0.03977400064468384,-0.05391500145196915
1772389380998008800,6.6610087890625,-0.00585100008174777,0.00897900015115738,0.014467000029981136
1772389381018066200,6.681066162109375,-0.071881003677845,0.018383000046014786,0.011574000120162964
1772389381038123000,6.701123046875,0.0512939989566803,0.0035069999285042286,-0.0715399980545044
1772389381058179800,6.721179931640625,0.08183500170707703,-0.0011940000113099813,-0.08763200044631958
1772389381078237200,6.7412373046875,0.06306800246238708,0.010245000012218952,-0.039705999195575714
1772389381098294000,6.7612939453125,0.033654000610113144,0.035395000129938126,-0.035764001309871674
1772389381118351000,6.78135107421875,0.018922999501228333,0.010715999640524387,-0.03821200132369995
1772389381138408000,6.801407958984375,0.01913899928331375,-0.029826000332832336,-0.09776899963617325
1772389381158465300,6.82146533203125,0.005710999947041273,-0.004660000093281269,-0.07581499963998795
1772389381178522000,6.841522216796875,-0.06263100355863571,-0.0013289999915286899,-0.0014519999967887998
1772389381198579000,6.861578857421875,-0.05570400133728981,0.026937000453472137,0.06203699856996536
1772389381218636000,6.881635986328125,0.03943600133061409,0.025547999888658524,0.08403000235557556
1772389381238692900,6.90169287109375,0.028348000720143318,-0.004360000137239695,0.09602399915456772
1772389381258750200,6.921750244140625,-0.033319998532533646,-0.05708799883723259,0.009619000367820263
1772389381278807000,6.94180712890625,-0.055456001311540604,-0.01686999946832657,0.002094999887049198
1772389381298864000,6.961864013671875,-0.021165000274777412,0.023303000256419182,0.03447600081562996
1772389381318921000,6.9819208984375,-0.0017320000333711505,0.009042000398039818,0.029180999845266342
1772389381338978300,7.001978271484375,0.008213999681174755,-0.0143649997189641,-0.00305499997921288
1772389381359035100,7.02203515625,-0.07182800024747849,0.019706999883055687,-0.03524300083518028
1772389381379092000,7.042092041015625,-0.08626200258731842,0.006165999919176102,0.0022040000185370445
1772389381399149300,7.0621494140625,0.05178900063037872,0.004933000076562166,-0.03423599898815155
1772389381419206100,7.0822060546875,0.154230996966362,-0.02725300006568432,-0.058587998151779175
1772389381439263200,7.10226318359375,-0.03741399943828583,-0.03140199929475784,-0.040470998734235764
1772389381459320000,7.122320068359375,-0.14273099601268768,-0.009921999648213387,0.01322299987077713
1772389381479377200,7.142377197265625,0.01381400041282177,0.00406099995598197,0.02177800051867962
1772389381499434000,7.16243408203125,0.045451000332832336,0.02244899980723858,0.0022219999227672815
1772389381519491000,7.182490966796875,0.004360999912023544,0.0427590012550354,0.02657799981534481
1772389381539548000,7.2025478515625,0.06268899887800217,0.0398080013692379,0.05006200075149536
1772389381559605200,7.222605224609375,0.06375099718570709,-0.03135199844837189,0.05364999920129776
1772389381579662000,7.242662109375,0.11020100116729736,-0.004280999768525362,0.006920000072568655
1772389381599719200,7.26271923828125,0.16256000101566315,-0.0010260000126436353,-0.008062999695539474
1772389381619776000,7.28277587890625,0.013248000293970108,-0.016019999980926514,-0.02565000019967556
1772389381639833000,7.3028330078125,-0.19979999959468842,-0.03041600063443184,-0.03571999818086624
1772389381659890200,7.32289013671875,-0.1430400013923645,-0.014732999727129936,-0.022975999861955643
1772389381679947300,7.342947265625,0.01996699906885624,0.018612999469041824,0.0104179996997118
1772389381700004000,7.363004150390625,0.007973999716341496,-0.0059079998172819614,0.029133999720215797
1772389381720061000,7.38306103515625,-0.02961999922990799,0.010472999885678291,0.00010800000018207356
1772389381740118300,7.4031181640625,0.0531029999256134,0.017976999282836914,-0.001512999995611608
1772389381760175000,7.423175048828125,0.055282000452280045,-0.0104160001501441,0.05638900026679039
1772389381780232200,7.443232177734375,0.00022600000374950469,-0.01793299987912178,0.04351099953055382
1772389381800289000,7.4632890625,-0.020617999136447906,0.03365200012922287,-0.021190999075770378
1772389381820346400,7.483346435546875,-0.050895001739263535,0.01732099987566471,-0.026551999151706696
1772389381840403200,7.5034033203125,-0.05831500142812729,0.002655999967828393,-0.010041999630630016
1772389381860460300,7.523460205078125,0.022146999835968018,0.009325000457465649,-0.0136329997330904
1772389381880517000,7.54351708984375,0.10251700133085251,-0.0077390000224113464,-0.06210700049996376
1772389381900574200,7.56357421875,0.06041400134563446,0.013008000329136848,-0.09208499640226364
1772389381920631000,7.583631103515625,-0.049267999827861786,-0.007191999815404415,0.05833100154995918
1772389381940688100,7.603688232421875,0.06458400189876556,0.03664499893784523,0.041064999997615814
1772389381960745000,7.623744873046875,0.0972680002450943,0.00291600008495152,0.019252000376582146
1772389381980802000,7.643802001953125,-0.04458500072360039,-0.011265999637544155,0.027401000261306763
1772389382000859100,7.663859130859375,-0.13726800680160522,-0.014612999744713306,-0.04127800092101097
1772389382020916000,7.683916015625,-0.09221400320529938,-0.037289999425411224,-0.005022000055760145
1772389382040973000,7.70397314453125,0.03662800043821335,0.03336700052022934,0.08478099852800369
1772389382061030000,7.72402978515625,0.1389019936323166,0.044293999671936035,0.054225001484155655
1772389382081087000,7.7440869140625,0.1631219983100891,-0.03896399959921837,-0.025419000536203384
1772389382101144000,7.76414404296875,-0.1415019929409027,-0.048771001398563385,-0.07073500007390976
1772389382121201000,7.784200927734375,-0.1924010068178177,0.033782001584768295,0.04181100055575371
1772389382141258000,7.804258056640625,0.0036780000664293766,0.04462600126862526,0.03504899889230728
1772389382161314800,7.824314697265625,0.16534200310707092,-0.02189899981021881,0.018439000472426414
1772389382181372000,7.844371826171875,0.07467400282621384,-0.010317999869585037,0.006750999949872494
1772389382201428700,7.8644287109375,-0.05305999889969826,-0.03865500167012215,-0.048197999596595764
1772389382221485800,7.88448583984375,-0.08644799888134003,0.009076000191271305,-0.02895900048315525
1772389382241542700,7.904542724609375,-0.026758000254631042,0.00406000018119812,0.06483200192451477
1772389382261599700,7.924599853515625,0.01859300024807453,0.06404799968004227,0.03666599839925766
1772389382281656800,7.94465673828125,0.12207400053739548,0.034439001232385635,0.019732000306248665
1772389382301713700,7.964713623046875,0.10885900259017944,0.005950000137090683,-0.0050130002200603485
1772389382321770800,7.984770751953125,-0.02171199955046177,0.033560000360012054,-0.017611000686883926
1772389382341827600,8.00482763671875,-0.08856900036334991,-0.005950000137090683,0.01471100002527237
1772389382361884700,8.024884765625,-0.09885500371456146,-0.044759999960660934,-0.07783100008964539
1772389382381941800,8.044941650390625,-0.07748399674892426,-0.03580800071358681,-0.08946400135755539
1772389382401998600,8.06499853515625,-0.017986999824643135,0.008151999674737453,-0.006771000102162361
1772389382422055700,8.0850556640625,0.06640899926424026,-0.027876999229192734,0.02018200047314167
1772389382442112500,8.105112548828124,0.07152699679136276,-0.02230199985206127,0.019345000386238098
1772389382462169900,8.125169921875,0.06682199984788895,-0.002641000086441636,0.06587599962949753
1772389382482226700,8.145226806640625,0.059856999665498734,0.007486000191420317,0.11910100281238556
1772389382502283800,8.16528369140625,0.04788599908351898,0.013189000077545643,0.0840810015797615
1772389382522340600,8.185340576171875,-0.053690001368522644,0.008950999937951565,-0.011133999563753605
1772389382542397700,8.205397705078125,-0.13335199654102325,0.020760999992489815,0.04469199851155281
1772389382562454800,8.225454833984376,0.025317000225186348,-0.0065899998880922794,0.08135300129652023
1772389382582511600,8.24551171875,0.036253999918699265,0.013926999643445015,-0.0037159998901188374
1772389382602568700,8.265568603515625,-0.10379599779844284,-0.02325800061225891,-0.06217300146818161
1772389382622625500,8.28562548828125,-0.12143699824810028,-0.005005999933928251,-0.055337999016046524
1772389382642682400,8.305682373046874,0.08524999767541885,0.005594000220298767,-0.04826999828219414
1772389382662739500,8.325739501953125,0.16179999709129333,-0.0075240000151097775,0.02458300068974495
1772389382682796500,8.345796630859375,0.0318400003015995,0.05558000132441521,-0.005133000202476978
1772389382702853400,8.365853271484376,-0.04732700064778328,0.04206300154328346,0.005493000149726868
1772389382722910500,8.385910400390625,0.04293699935078621,-0.010348999872803688,0.02119399979710579
1772389382742967300,8.40596728515625,0.1319500058889389,0.009321000427007675,-0.02064399980008602
1772389382763024400,8.4260244140625,0.0055599999614059925,-0.010142999701201916,0.048284001648426056
1772389382783081200,8.446081298828124,-0.06435099989175797,0.053484998643398285,0.04662699997425079
1772389382803138300,8.46613818359375,-0.013081000186502934,-0.020410999655723572,-0.02029700018465519
1772389382823195400,8.4861953125,-0.07526499778032303,-0.07792799919843674,-0.08903799951076508
1772389382843252200,8.506252197265624,-0.11061199754476547,-0.0023429999127984047,-0.02962999977171421
1772389382863309300,8.526309326171875,0.03231000155210495,0.03972499817609787,0.026695000007748604
1772389382883366100,8.5463662109375,0.06984800100326538,-0.002618999918922782,0.06135600060224533
1772389382903423000,8.566423095703126,0.03267800062894821,0.026704000309109688,0.12348499894142151
1772389382923480300,8.586480224609375,0.057342998683452606,0.01736300066113472,0.07958800345659256
1772389382943537200,8.606537109375,0.013074000366032124,0.016289999708533287,0.008469999767839909
1772389382963594000,8.626593994140626,-0.043140001595020294,-0.029366999864578247,-0.0012229999992996454
1772389382983651000,8.646651123046874,0.0846870020031929,-0.013894000090658665,-0.0641779974102974
1772389383003708200,8.666708251953125,0.09814999997615814,-0.022314999252557755,-0.08334299921989441
1772389383023765000,8.686764892578125,-0.12627899646759033,0.012547999620437622,-0.013074000366032124
1772389383043822000,8.706822021484374,-0.072223000228405,0.004437999799847603,0.031139999628067017
1772389383063879000,8.72687890625,0.10062000155448914,0.029951000586152077,-0.04548700153827667
1772389383083936000,8.74693603515625,0.011695999652147293,0.003160000080242753,-0.0059899999760091305
1772389383103992800,8.766992919921876,-0.023442000150680542,0.031328000128269196,0.03360699862241745
1772389383124050000,8.7870498046875,0.0044450000859797,-0.026937000453472137,-0.01711300015449524
1772389383144106800,8.807106689453125,0.02115599997341633,-0.002348999958485365,0.012709000147879124
1772389383164163600,8.82716357421875,0.010525000281631947,0.018919000402092934,0.026166999712586403
1772389383184220700,8.847220703125,0.016419999301433563,-0.026464000344276428,0.01293299999088049
1772389383204277800,8.86727783203125,-0.030863000079989433,-0.004370999988168478,-0.06085199862718582
1772389383224334800,8.8873349609375,-0.11669100075960159,-0.016296999529004097,-0.04468199983239174
1772389383244391700,8.9073916015625,-0.1029520034790039,-0.00023799999326001853,0.02185400016605854
1772389383264448800,8.92744873046875,0.10563699901103973,0.05580899864435196,0.07508300244808197
1772389383284505600,8.947505615234375,0.21251000463962555,0.025446999818086624,-0.007133000064641237
1772389383304562400,8.9675625,0.03800800070166588,-0.01644200086593628,-0.028906000778079033
1772389383324619500,8.98761962890625,-0.08639299869537354,-0.00355300004594028,-0.0015249999705702066
1772389383344676600,9.007676513671875,0.024484999477863312,0.005156999919563532,0.01397900003939867
1772389383364733400,9.0277333984375,0.03158799931406975,-0.003872999921441078,-0.004015999846160412
1772389383384790500,9.04779052734375,-0.07312899827957153,-0.031897999346256256,-0.0056130001321434975
1772389383404847400,9.067847412109375,0.03189599886536598,-0.013519000262022018,-0.01169000007212162
1772389383424904200,9.087904296875,0.02711700089275837,-0.010815000161528587,-0.07255200296640396
1772389383444961300,9.107961181640626,-0.07350599765777588,-0.016652999445796013,-0.0028409999795258045
1772389383465018000,9.12801806640625,-0.022803999483585358,0.04987800121307373,0.040125999599695206
1772389383485075200,9.1480751953125,0.04335499927401543,0.011102000251412392,0.052900999784469604
1772389383505132000,9.168132080078125,-0.024514999240636826,-0.02711700089275837,0.003920999821275473
1772389383525188900,9.18818896484375,-0.038812000304460526,-0.010494000278413296,-0.019262999296188354
1772389383545246200,9.20824609375,0.07055000215768814,0.012404000386595726,-0.009809999726712704
1772389383565303000,9.228302978515625,-0.02035900019109249,-0.012474999763071537,-0.017448000609874725
1772389383585360000,9.24835986328125,-0.10428699851036072,0.006818000227212906,-0.004358000122010708
1772389383605417000,9.2684169921875,0.08696900308132172,0.00545499986037612,-0.08188699930906296
1772389383625473800,9.288473876953125,0.10397499799728394,0.009963000193238258,-0.05270899832248688
1772389383645531000,9.30853076171875,-0.10081899911165237,0.007969999685883522,0.055431999266147614
1772389383665587700,9.328587646484374,-0.1534550040960312,0.05037600174546242,-0.010854000225663185
1772389383685644500,9.34864453125,-0.061163999140262604,-0.005297999829053879,-0.08308299630880356
1772389383705701600,9.36870166015625,-0.0049310000613331795,-0.056237999349832535,-0.036065999418497086
1772389383725758500,9.388758544921876,0.06485400348901749,-0.02339000068604946,0.08794599771499634
1772389383745815300,9.408815185546874,0.19348299503326416,-0.0187120009213686,0.060756999999284744
1772389383765872600,9.42887255859375,0.09558700025081635,-0.043768998235464096,0.004604999907314777
1772389383785929500,9.448929443359376,-0.06752999871969223,-0.05821600183844566,-0.007515000179409981
1772389383805986600,9.468986572265624,-0.1268240064382553,-0.028971999883651733,0.057186998426914215
1772389383826043400,9.48904345703125,-0.10705900192260742,0.036021001636981964,0.1049489974975586
1772389383846100200,9.509100341796875,0.07115200161933899,0.044015999883413315,0.03755899891257286
1772389383866157300,9.5291572265625,0.16092200577259064,0.031213000416755676,-0.004352000076323748
1772389383886214100,9.549214111328125,0.09433700144290924,-0.003829000052064657,-0.02828099951148033
1772389383906271200,9.569271240234375,-0.06052900105714798,-0.003063000040128827,-0.04182500019669533
1772389383926328000,9.589328125,-0.004422999918460846,0.051148999482393265,-0.07345999777317047
1772389383946385200,9.60938525390625,-0.009939000010490417,-0.004679999779909849,-0.10276799649000168
1772389383966442000,9.62944189453125,-0.20715099573135376,-0.017343999817967415,-0.08221399784088135
1772389383986498800,9.649498779296875,-0.1385200023651123,0.009325000457465649,-0.07777100056409836
1772389384006556000,9.669555908203124,0.09958299994468689,-0.05573900043964386,-0.09821700304746628
1772389384026613000,9.689613037109375,0.01646599918603897,-0.046991001814603806,0.038224998861551285
1772389384046669800,9.709669921875,-0.13002599775791168,0.05120600014925003,0.18977999687194824
1772389384066726700,9.7297265625,0.0007779999868944287,0.0409649983048439,0.1398240029811859
1772389384086783700,9.74978369140625,0.008623000234365463,-0.013628000393509865,-0.024140000343322754
1772389384106840600,9.769840576171875,0.0028979999478906393,-0.053300999104976654,-0.00571200018748641
1772389384126897400,9.7898974609375,0.01991800032556057,0.009358000010251999,0.04743000119924545
1772389384146954500,9.80995458984375,-0.033663999289274216,0.0018860000418499112,0.05874300003051758
1772389384167011300,9.83001123046875,-0.004532000049948692,0.011109000071883202,0.026195000857114792
1772389384187068200,9.850068115234375,0.06757400184869766,-0.01991100050508976,-0.042243000119924545
1772389384207125200,9.870125244140626,0.05965900048613548,-0.02952899970114231,-0.13139499723911285
1772389384227182000,9.89018212890625,-0.009871999733150005,0.02277499996125698,-0.06911599636077881
1772389384247239000,9.910239013671875,0.00010199999815085903,0.01582000032067299,0.0007070000283420086
1772389384267296000,9.9302958984375,-0.005518000107258558,0.020656000822782516,0.0021649999544024467
1772389384287352800,9.950352783203124,0.008384999819099903,0.0013249999610707164,0.026531999930739403
1772389384307410000,9.970409912109375,-0.0004910000134259462,0.016259999945759773,0.04602599889039993
1772389384327466800,9.990466796875,-0.004393000155687332,0.028207000344991684,0.031220000237226486
1772389384347523800,10.01052392578125,0.030884999781847,-0.031032999977469444,-0.007822999730706215
1772389384367580700,10.03058056640625,-0.09049099683761597,-0.05522700026631355,-0.051858000457286835
1772389384387637500,10.050637451171875,-0.1355929970741272,0.007017000112682581,0.02571200020611286
1772389384407694300,10.0706943359375,0.01472499966621399,0.019213000312447548,0.014170000329613686
1772389384427751400,10.09075146484375,0.1261799931526184,0.019370999187231064,0.02093599922955036
1772389384447808500,10.11080859375,0.08414400368928909,0.034696001559495926,0.07274899631738663
1772389384467865300,10.130865234375,0.0689150020480156,-0.009042000398039818,0.027798999100923538
1772389384487922400,10.15092236328125,-0.013667000457644463,-0.007234000135213137,-0.02816000021994114
1772389384507979300,10.170979248046875,-0.030132999643683434,0.0078119998797774315,-0.04732799902558327
1772389384528036400,10.191036376953125,-0.014507000334560871,0.010250000283122063,-0.045062001794576645
1772389384548093200,10.21109326171875,0.03799400106072426,0.008198999799787998,-0.06324999779462814
1772389384568150000,10.23114990234375,0.055195000022649765,-0.030239999294281006,-0.04659999907016754
1772389384588207000,10.25120703125,0.000155999994603917,0.0030070000793784857,0.001120000029914081
1772389384608264000,10.271263916015625,0.019324999302625656,0.008005999960005283,0.02409599907696247
1772389384628321000,10.291321044921874,-0.06294000148773193,-0.0015940000303089619,-0.007922999560832977
1772389384648377900,10.3113779296875,-0.02155200019478798,-0.008476000279188156,0.03606100007891655
1772389384668435000,10.33143505859375,0.03475800156593323,-0.014779999852180481,0.011249000206589699
1772389384688491800,10.35149169921875,-0.004993000067770481,-0.011823000386357307,0.04179900139570236
1772389384708548600,10.371548583984374,-0.024793999269604683,0.008139999583363533,0.031038999557495117
1772389384728605700,10.391605712890625,-0.07743500173091888,-0.030285999178886414,-0.030368000268936157
1772389384748662500,10.41166259765625,-0.07954800128936768,0.01816999912261963,-0.02989399991929531
1772389384768719600,10.4317197265625,0.003561000106856227,0.008934999816119671,-0.02391500025987625
1772389384788776400,10.4517763671875,-0.012350999750196934,-0.03525000065565109,-0.05353200063109398
1772389384808833300,10.471833251953125,0.035718999803066254,0.023798000067472458,-0.006825000047683716
1772389384828890400,10.491890380859376,0.12857499718666077,0.020639000460505486,0.02173900045454502
1772389384848947200,10.511947265625,0.11246000230312347,-0.01548799965530634,-0.05780800059437752
1772389384869004000,10.532004150390625,0.17636799812316895,-0.07558999955654144,-0.2110459953546524
1772389384889061000,10.55206103515625,0.08509399741888046,-0.053272001445293427,-0.07443699985742569
1772389384909118000,10.572117919921874,-0.0023240000009536743,0.14698199927806854,0.2852500081062317
1772389384929174800,10.5921748046875,-0.29545900225639343,0.11758600175380707,0.31779998540878296
1772389384949231900,10.61223193359375,0.08763200044631958,-0.007530999835580587,0.091839998960495
1772389384969288700,10.632288818359376,0.22530600428581238,-0.20682400465011597,-0.24492700397968292
1772389384989345500,10.652345458984374,-0.07095500081777573,-0.0662589967250824,-0.27594199776649475
1772389385009402400,10.67240234375,-0.16796399652957916,0.1485919952392578,0.010445999912917614
