time,seconds_elapsed,z,y,x
1772389374639958500,0.30295849609375,0.14891250431537628,0.003987499978393316,0.3843125104904175
1772389374660015000,0.32301513671875,0.08717499673366547,0.027499999850988388,0.27994999289512634
1772389374680072000,0.343072021484375,0.05197500064969063,0.05403750017285347,0.13089999556541443
1772389374700128800,0.363128662109375,0.045649997889995575,-0.014024999924004078,0.028599999845027924
1772389374720185600,0.383185546875,0.07218749821186066,-0.03437500074505806,0.04028749838471413
1772389374740242200,0.4032421875,0.12870000302791595,-0.06311249732971191,0.026399999856948853
1772389374760299000,0.423299072265625,0.09776250272989273,-0.10037499666213989,-0.012924999929964542
1772389374780355800,0.44335595703125,0.07328750193119049,-0.09927500039339066,-0.027912499383091927
1772389374800412700,0.46341259765625,0.057337500154972076,-0.14409999549388885,-0.00013749999925494194
1772389374820469500,0.483469482421875,0.007287499960511923,-0.13021250069141388,-0.018287500366568565
1772389374840526300,0.5035263671875,0.009349999949336052,-0.08016250282526016,-0.012924999929964542
1772389374860583200,0.523583251953125,0.018975000828504562,-0.05884999781847,0.02433750033378601
1772389374880639700,0.5436396484375,-0.011962499469518661,-0.07796250283718109,0.057337500154972076
1772389374900696600,0.563696533203125,-0.029012499377131462,-0.1046374961733818,0.05623750016093254
1772389374920753400,0.58375341796875,-0.01718750037252903,-0.11316250264644623,0.04028749838471413
1772389374940810200,0.603810302734375,0.0008249999955296516,-0.14836250245571136,0.03712499886751175
1772389374960866800,0.62386669921875,-0.0193875003606081,-0.15152500569820404,0.0849749967455864
1772389374980923600,0.643923583984375,-0.06091250106692314,-0.12911249697208405,0.1648624986410141
1772389375000980500,0.66398046875,-0.1013374999165535,-0.08868750184774399,0.13089999556541443
1772389375021037300,0.684037353515625,-0.08428750187158585,0.0147124994546175,0.06476250290870667
1772389375041094100,0.70409423828125,-0.011962499469518661,0.0147124994546175,0.028599999845027924
1772389375061151000,0.72415087890625,0.047712501138448715,-0.023649999871850014,0.012649999931454659
1772389375081207800,0.744207763671875,0.045649997889995575,-0.0002749999985098839,-0.015124999918043613
1772389375101264600,0.7642646484375,0.009349999949336052,0.028462499380111694,0.008387500420212746
1772389375121321500,0.784321533203125,0.009349999949336052,0.03698749840259552,0.04235000163316727
1772389375141378000,0.8043779296875,0.027499999850988388,0.030662499368190765,0.01691249944269657
1772389375161435000,0.824434814453125,0.015812499448657036,0.010449999943375587,-0.022549999877810478
1772389375181491700,0.84449169921875,0.004124999977648258,-0.0364375002682209,-0.021449999883770943
1772389375201548500,0.864548583984375,-0.031075000762939453,-0.07273750007152557,0.02213750034570694
1772389375221605400,0.88460546875,-0.04386249929666519,-0.0364375002682209,0.11275000125169754
1772389375241662200,0.904662109375,-0.022549999877810478,-0.002337499987334013,0.17242500185966492
1772389375261719000,0.924718994140625,0.032862499356269836,-0.0002749999985098839,0.14038750529289246
1772389375281775900,0.94477587890625,0.04881250113248825,-0.03863750025629997,0.0541750006377697
1772389375301832400,0.96483251953125,0.028599999845027924,-0.033275000751018524,-0.02474999986588955
1772389375321889500,0.9848896484375,0.011549999937415123,0.021037500351667404,-0.023649999871850014
1772389375341946400,1.0049462890625,0.0008249999955296516,0.02419999986886978,0.005087499972432852
1772389375362003000,1.0250029296875,0.005087499972432852,0.036024998873472214,0.055137500166893005
1772389375382059800,1.045059814453125,0.049912501126527786,0.03382499888539314,0.0541750006377697
1772389375402116600,1.06511669921875,0.04455000162124634,0.025299999862909317,0.018975000828504562
1772389375422173400,1.08517333984375,0.021175000816583633,0.04455000162124634,0.0147124994546175
1772389375442230300,1.105230224609375,0.021175000816583633,0.05087500065565109,0.013612499460577965
1772389375462286800,1.125286865234375,0.017875000834465027,0.025299999862909317,-0.010862499475479126
1772389375482343700,1.14534375,-0.00013749999925494194,0.0317624993622303,-0.0034374999813735485
1772389375502400500,1.165400390625,-0.007699999958276749,0.04661250114440918,0.025437500327825546
1772389375522457300,1.185457275390625,-0.012924999929964542,0.023237500339746475,0.05197500064969063
1772389375542514200,1.20551416015625,-0.021449999883770943,0.005087499972432852,0.09886249899864197
1772389375562571000,1.225571044921875,-0.018287500366568565,-0.016224998980760574,0.1414874941110611
1772389375582627800,1.2456279296875,-0.008662499487400055,0.007287499960511923,0.1681624948978424
1772389375602684700,1.2656845703125,0.007287499960511923,0.06902500241994858,0.22027499973773956
1772389375622741500,1.285741455078125,0.043449997901916504,0.08923749625682831,0.2437874972820282
1772389375642798300,1.30579833984375,0.04881250113248825,0.0668250024318695,0.1989624947309494
1772389375662855200,1.325855224609375,0.028599999845027924,0.05403750017285347,0.12443749606609344
1772389375682911700,1.345911865234375,0.036024998873472214,0.043449997901916504,0.08181250095367432
1772389375702968800,1.36596875,0.026399999856948853,0.009349999949336052,0.038087498396635056
1772389375723025400,1.386025390625,0.013612499460577965,0.0030249999836087227,-0.002337499987334013
1772389375743082500,1.40608251953125,0.02213750034570694,-0.002337499987334013,0.0317624993622303
1772389375763139300,1.426139404296875,0.01691249944269657,0.006187499966472387,0.08717499673366547
1772389375783196200,1.446196044921875,0.005087499972432852,0.008249999955296516,0.08181250095367432
1772389375803253000,1.4662529296875,0.005087499972432852,0.011549999937415123,0.0882750004529953
1772389375823309800,1.486309814453125,0.007287499960511923,0.006187499966472387,0.09459999948740005
1772389375843366700,1.50636669921875,0.010449999943375587,0.005087499972432852,0.07122500240802765
1772389375863423500,1.526423583984375,0.038224998861551285,-0.035337500274181366,0.036024998873472214
1772389375883480300,1.546480224609375,0.06270000338554382,-0.08538749814033508,0.06476250290870667
1772389375903537200,1.566537109375,0.08923749625682831,0.02213750034570694,0.19373749196529388
1772389375923594000,1.586593994140625,0.12553749978542328,0.19043749570846558,0.3609375059604645
1772389375943650800,1.60665087890625,0.22453749179840088,0.33316248655319214,0.5516499876976013
1772389375963707600,1.626707763671875,0.21601249277591705,0.3651999831199646,0.6517499685287476
1772389375983764200,1.64676416015625,0.26083749532699585,0.33742499351501465,0.6080250144004822
1772389376003821300,1.6668212890625,0.37482500076293945,0.43230000138282776,0.5249750018119812
1772389376023878100,1.686878173828125,0.47286251187324524,0.5227749943733215,0.48881250619888306
1772389376043935000,1.70693505859375,0.6389625072479248,0.495137482881546,0.45045000314712524
1772389376063991800,1.72699169921875,0.739062488079071,0.45883750915527344,0.3843125104904175
1772389376084048600,1.747048583984375,0.64638751745224,0.3161124885082245,0.2810499966144562
1772389376104105200,1.767105224609375,0.4823499917984009,0.12870000302791595,0.13186250627040863
1772389376124162000,1.787162109375,0.23952500522136688,-0.010862499475479126,-0.004399999976158142
1772389376144219100,1.80721923828125,0.09143749624490738,-0.002337499987334013,-0.08538749814033508
1772389376164276000,1.82727587890625,0.09886249899864197,-0.06943749636411667,-0.1652749925851822
1772389376184332500,1.84733251953125,0.06476250290870667,-0.014024999924004078,-0.3772999942302704
1772389376204389600,1.8673896484375,0.07864999771118164,0.09459999948740005,-0.3741374909877777
1772389376224446500,1.887446533203125,0.02969999983906746,0.11797499656677246,-0.39434999227523804
1772389376244503300,1.90750341796875,-0.010862499475479126,0.04028749838471413,-0.5722749829292297
1772389376264559900,1.927559814453125,-0.022549999877810478,0.036024998873472214,-0.643637478351593
1772389376284617000,1.947616943359375,0.09143749624490738,0.2032250016927719,-0.5274500250816345
1772389376304673800,1.967673828125,0.1266375035047531,0.09033749997615814,-0.3997125029563904
1772389376324730600,1.987730712890625,0.015812499448657036,-0.082225002348423,-0.2974124848842621
1772389376344787500,2.007787353515625,-0.08002500236034393,-0.2410375028848648,-0.14822499454021454
1772389376364844300,2.02784423828125,-0.1428624987602234,-0.37097498774528503,-0.12168750166893005
1772389376384901000,2.047901123046875,-0.1311749964952469,-0.34113749861717224,-0.20253749191761017
1772389376404958000,2.0679580078125,-0.05555000156164169,-0.2377374917268753,-0.14726249873638153
1772389376425014800,2.088014892578125,0.013612499460577965,-0.21326249837875366,-0.06517499685287476
1772389376445071600,2.108071533203125,-0.012924999929964542,-0.2675749957561493,-0.048124998807907104
1772389376465128700,2.128128662109375,-0.0012374999932944775,-0.21119999885559082,-0.014024999924004078
1772389376485185500,2.148185546875,0.03492499887943268,-0.1568875014781952,0.04455000162124634
1772389376505242400,2.168242431640625,0.009349999949336052,-0.1578499972820282,-0.020487500354647636
1772389376525299000,2.188298828125,0.0019249999895691872,-0.17599999904632568,-0.089649997651577
1772389376545356000,2.20835595703125,-0.006599999964237213,-0.18136249482631683,-0.07479999959468842
1772389376565412900,2.228412841796875,-0.01718750037252903,-0.12484999746084213,-0.06311249732971191
1772389376585469700,2.2484697265625,-0.0193875003606081,-0.10573749989271164,-0.020487500354647636
1772389376605526500,2.268526611328125,-0.023649999871850014,-0.10037499666213989,0.020075000822544098
1772389376625583600,2.28858349609375,-0.004399999976158142,-0.08332499861717224,0.04235000163316727
1772389376645640200,2.30864013671875,-0.002337499987334013,-0.07796250283718109,0.015812499448657036
1772389376665697000,2.328697021484375,-0.016224998980760574,-0.02474999986588955,-0.025712499395012856
1772389376685754000,2.348754150390625,-0.015124999918043613,0.008249999955296516,-0.010862499475479126
1772389376705811000,2.36881103515625,-0.029975000768899918,0.01251249946653843,-0.04606249928474426
1772389376725867800,2.38886767578125,-0.02681249938905239,0.02213750034570694,-0.09817499667406082
1772389376745924600,2.408924560546875,-0.006599999964237213,0.027499999850988388,-0.082225002348423
1772389376765981700,2.428981689453125,-0.0012374999932944775,0.02213750034570694,-0.04496249929070473
1772389376786038300,2.449038330078125,-0.010862499475479126,0.04124999791383743,-0.002337499987334013
1772389376806095400,2.469095458984375,-0.007699999958276749,0.04977500066161156,0.04028749838471413
1772389376826152200,2.489152099609375,-0.029975000768899918,0.02213750034570694,0.013612499460577965
1772389376846209000,2.509208984375,-0.04592499881982803,-0.02474999986588955,-0.033275000751018524
1772389376866266000,2.52926611328125,-0.033275000751018524,-0.07369999587535858,-0.02681249938905239
1772389376886323000,2.549322998046875,-0.016224998980760574,-0.07590000331401825,0.008387500420212746
1772389376906379800,2.5693798828125,-0.0364375002682209,-0.089649997651577,0.023237500339746475
1772389376926436900,2.589436767578125,-0.048124998807907104,-0.08112499862909317,0.05197500064969063
1772389376946493700,2.60949365234375,-0.048124998807907104,-0.10779999941587448,0.021175000816583633
1772389376966550500,2.629550537109375,-0.059812501072883606,-0.13021250069141388,-0.012924999929964542
1772389376986607600,2.649607666015625,-0.057750001549720764,-0.12484999746084213,-0.016224998980760574
1772389377006664400,2.66966455078125,-0.050187498331069946,-0.11522500216960907,0.0030249999836087227
1772389377026721300,2.68972119140625,-0.04496249929070473,-0.09075000137090683,0.04455000162124634
1772389377046778400,2.7097783203125,-0.04702499881386757,-0.06943749636411667,0.08291249722242355
1772389377066835200,2.729835205078125,-0.09184999763965607,-0.05458749830722809,0.10106249898672104
1772389377086892000,2.74989208984375,-0.14506250619888306,-0.007699999958276749,0.11481250077486038
1772389377106949000,2.76994921875,-0.1652749925851822,-0.020487500354647636,0.08071249723434448
1772389377127005700,2.790005615234375,-0.14506250619888306,-0.0471624992787838,0.05623750016093254
1772389377147062800,2.810062744140625,-0.048124998807907104,-0.025849999859929085,0.036024998873472214
1772389377167120000,2.830119873046875,0.04028749838471413,-0.011962499469518661,0.008387500420212746
1772389377187176700,2.8501767578125,0.04138749837875366,-0.022549999877810478,0.017875000834465027
1772389377207233500,2.870233642578125,0.008387500420212746,-0.002337499987334013,0.05939999967813492
1772389377227290600,2.89029052734375,0.008387500420212746,0.023237500339746475,0.08071249723434448
1772389377247347500,2.910347412109375,-0.0012374999932944775,0.017875000834465027,0.013612499460577965
1772389377267404300,2.930404296875,-0.010862499475479126,-0.007699999958276749,-0.027912499383091927
1772389377287461400,2.95046142578125,-0.015124999918043613,0.0008249999955296516,0.012649999931454659
1772389377307518200,2.970518310546875,-0.005499999970197678,0.010449999943375587,0.038087498396635056
1772389377327575300,2.9905751953125,-0.021449999883770943,-0.03437500074505806,0.008387500420212746
1772389377347632000,3.010632080078125,-0.035337500274181366,-0.08112499862909317,0.021175000816583633
1772389377367689000,3.03068896484375,-0.04166249930858612,-0.10243749618530273,0.057337500154972076
1772389377387746000,3.05074609375,-0.05444999784231186,-0.09391249716281891,0.0999625027179718
1772389377407803000,3.070802978515625,-0.05348749831318855,-0.1120624989271164,0.13296249508857727
1772389377427860000,3.09085986328125,-0.04922499880194664,-0.08442500233650208,0.13296249508857727
1772389377447916800,3.110916748046875,-0.023649999871850014,-0.04606249928474426,0.13516250252723694
1772389377467974000,3.130973876953125,-0.0034374999813735485,-0.05238749831914902,0.05623750016093254
1772389377488030700,3.15103076171875,-0.01718750037252903,-0.025849999859929085,-0.04496249929070473
1772389377508087800,3.171087890625,-0.023649999871850014,-0.027912499383091927,-0.05458749830722809
1772389377528144600,3.19114453125,-0.002337499987334013,-0.016224998980760574,-0.007699999958276749
1772389377548201700,3.21120166015625,-0.0012374999932944775,-0.006599999964237213,0.005087499972432852
1772389377568258800,3.2312587890625,-0.02681249938905239,-0.004537499975413084,0.015812499448657036
1772389377588315600,3.251315673828125,-0.0193875003606081,-0.004537499975413084,0.06159999966621399
1772389377608372700,3.271372802734375,-0.00976249948143959,-0.0012374999932944775,0.07012499868869781
1772389377628429600,3.2914296875,-0.02474999986588955,0.008249999955296516,0.036024998873472214
1772389377648486700,3.311486572265625,-0.008662499487400055,0.011549999937415123,0.023237500339746475
1772389377668543700,3.331543701171875,0.012649999931454659,0.007287499960511923,0.010449999943375587
1772389377688600800,3.351600830078125,0.015812499448657036,-0.0002749999985098839,-0.018287500366568565
1772389377708657700,3.37165771484375,0.010449999943375587,0.005087499972432852,0.020075000822544098
1772389377728714800,3.39171484375,0.006187499966472387,0.006187499966472387,0.043449997901916504
1772389377748771800,3.411771728515625,0.004124999977648258,-0.006599999964237213,0.032862499356269836
1772389377768828700,3.43182861328125,-0.006599999964237213,-0.005499999970197678,0.0317624993622303
1772389377788885800,3.4518857421875,-0.002337499987334013,-0.027912499383091927,0.025437500327825546
1772389377808942600,3.471942626953125,-0.011962499469518661,-0.033275000751018524,0.009349999949336052
1772389377828999700,3.491999755859375,-0.029012499377131462,-0.0364375002682209,0.015812499448657036
1772389377849056800,3.512056884765625,-0.031075000762939453,-0.0193875003606081,0.027499999850988388
1772389377869113900,3.53211376953125,-0.021449999883770943,-0.03437500074505806,0.03918749839067459
1772389377889170700,3.552170654296875,-0.02474999986588955,-0.055687498301267624,0.04661250114440918
1772389377909227500,3.5722275390625,-0.02681249938905239,-0.05458749830722809,0.05939999967813492
1772389377929284900,3.592284912109375,-0.025712499395012856,-0.055687498301267624,0.06270000338554382
1772389377949341700,3.612341796875,-0.025712499395012856,-0.07796250283718109,0.05843750014901161
1772389377969398500,3.6323984375,-0.029012499377131462,-0.089649997651577,0.06696250289678574
1772389377989455600,3.65245556640625,-0.010862499475479126,-0.08648750185966492,0.06270000338554382
1772389378009512700,3.6725126953125,-0.0034374999813735485,-0.10889999568462372,0.045649997889995575
1772389378029569500,3.692569580078125,-0.020487500354647636,-0.08538749814033508,0.02433750033378601
1772389378049626600,3.712626708984375,-0.033275000751018524,-0.048124998807907104,0.04661250114440918
1772389378069683700,3.73268359375,-0.025712499395012856,-0.07479999959468842,0.0541750006377697
1772389378089740500,3.752740478515625,-0.03423750028014183,-0.0929500013589859,0.04138749837875366
1772389378109797600,3.772797607421875,-0.022549999877810478,-0.055687498301267624,0.06902500241994858
1772389378129854700,3.792854736328125,-0.004399999976158142,-0.031075000762939453,0.0999625027179718
1772389378149911600,3.81291162109375,-0.016224998980760574,-0.030112499371170998,0.07548750191926956
1772389378169968600,3.83296875,-0.04702499881386757,-0.006599999964237213,0.032862499356269836
1772389378190025500,3.853025390625,-0.03959999978542328,0.01677500084042549,0.04881250113248825
1772389378210082600,3.87308251953125,-0.011962499469518661,0.026399999856948853,0.04028749838471413
1772389378230139600,3.8931396484375,0.0030249999836087227,0.028462499380111694,-0.008662499487400055
1772389378250196700,3.91319677734375,-0.00013749999925494194,0.025299999862909317,-0.03753750026226044
1772389378270253800,3.93325390625,-0.005499999970197678,0.047712501138448715,-0.00976249948143959
1772389378290311000,3.953310791015625,0.004124999977648258,0.04455000162124634,0.03492499887943268
1772389378310367700,3.97336767578125,0.013612499460577965,0.07644999772310257,0.07012499868869781
1772389378330424800,3.9934248046875,0.010449999943375587,0.13296249508857727,0.0775500014424324
1772389378350482000,4.01348193359375,0.008387500420212746,0.08813749998807907,0.05843750014901161
1772389378370538800,4.033538818359375,-0.015124999918043613,0.04455000162124634,-0.006599999964237213
1772389378390596000,4.05359619140625,-0.00013749999925494194,0.04455000162124634,-0.04922499880194664
1772389378410653000,4.07365283203125,-0.002337499987334013,0.026399999856948853,-0.07686249911785126
1772389378430710000,4.0937099609375,-0.023649999871850014,0.01677500084042549,-0.05555000156164169
1772389378450767000,4.11376708984375,-0.008662499487400055,0.011549999937415123,0.025437500327825546
1772389378470824200,4.13382421875,-0.012924999929964542,-0.0002749999985098839,0.057337500154972076
1772389378490881000,4.153881103515625,-0.03217500075697899,-0.030112499371170998,0.020075000822544098
1772389378510938000,4.173938232421875,-0.023649999871850014,-0.07590000331401825,0.0030249999836087227
1772389378530995200,4.1939951171875,-0.023649999871850014,-0.09501250088214874,-0.0034374999813735485
1772389378551052300,4.21405224609375,-0.0193875003606081,-0.08112499862909317,0.02969999983906746
1772389378571109000,4.234109130859375,0.0019249999895691872,-0.0705375000834465,0.04881250113248825
1772389378591166200,4.254166259765625,-0.022549999877810478,-0.048124998807907104,0.04235000163316727
1772389378611223600,4.2742236328125,-0.023649999871850014,-0.06201250106096268,0.04455000162124634
1772389378631280400,4.2942802734375,-0.025712499395012856,-0.05458749830722809,0.0317624993622303
1772389378651337500,4.31433740234375,-0.027912499383091927,-0.027912499383091927,0.04235000163316727
1772389378671394600,4.33439453125,-0.0193875003606081,-0.006599999964237213,0.049912501126527786
1772389378691451400,4.354451416015625,-0.020487500354647636,0.020075000822544098,0.028599999845027924
1772389378711508500,4.374508544921875,-0.02474999986588955,0.027499999850988388,0.009349999949336052
1772389378731565600,4.394565673828125,-0.011962499469518661,0.027499999850988388,-0.011962499469518661
1772389378751622700,4.41462255859375,-0.015124999918043613,0.025299999862909317,-0.04702499881386757
1772389378771679700,4.4346796875,-0.012924999929964542,0.0147124994546175,-0.020487500354647636
1772389378791736600,4.454736572265625,-0.01718750037252903,0.020075000822544098,0.0030249999836087227
1772389378811793700,4.474793701171875,-0.022549999877810478,0.04124999791383743,0.026399999856948853
1772389378831850800,4.494850830078125,-0.010862499475479126,0.02956249937415123,0.04455000162124634
1772389378851907800,4.514907958984375,-0.011962499469518661,-0.007699999958276749,0.0008249999955296516
1772389378871965000,4.53496484375,-0.021449999883770943,-0.031075000762939453,-0.014024999924004078
1772389378892022000,4.55502197265625,-0.029975000768899918,-0.05348749831318855,-0.016224998980760574
1772389378912078800,4.575078857421875,-0.02681249938905239,-0.07369999587535858,0.007287499960511923
1772389378932136000,4.595135986328125,-0.025712499395012856,-0.055687498301267624,0.053075000643730164
1772389378952193000,4.615193115234375,-0.023649999871850014,-0.06627500057220459,0.06159999966621399
1772389378972249900,4.635249755859375,-0.02681249938905239,-0.10353749990463257,0.05623750016093254
1772389378992307200,4.65530712890625,-0.03423750028014183,-0.11096250265836716,0.05623750016093254
1772389379012364000,4.675364013671875,-0.04702499881386757,-0.09817499667406082,0.04881250113248825
1772389379032421000,4.695421142578125,-0.05128749832510948,-0.0705375000834465,0.0775500014424324
1772389379052478200,4.715478271484375,-0.03959999978542328,-0.05348749831318855,0.1073874980211258
1772389379072535000,4.73553515625,-0.0193875003606081,-0.03753750026226044,0.09143749624490738
1772389379092592000,4.755592041015625,-0.002337499987334013,-0.03959999978542328,0.04661250114440918
1772389379112649200,4.775649169921875,0.0019249999895691872,-0.029012499377131462,0.028599999845027924
1772389379132706300,4.795706298828125,-0.00013749999925494194,-0.010862499475479126,0.020075000822544098
1772389379152763400,4.815763427734375,-0.011962499469518661,0.0147124994546175,0.004124999977648258
1772389379172820200,4.8358203125,-0.0193875003606081,0.013612499460577965,-0.014024999924004078
1772389379192877300,4.855877197265625,-0.006599999964237213,0.006187499966472387,-0.00013749999925494194
1772389379212934400,4.875934326171875,-0.005499999970197678,-0.0002749999985098839,0.015812499448657036
1772389379232991500,4.895991455078125,-0.02474999986588955,-0.0012374999932944775,0.032862499356269836
1772389379253048600,4.916048583984375,-0.0364375002682209,-0.029012499377131462,0.03918749839067459
1772389379273105400,4.93610546875,-0.029975000768899918,-0.040699999779462814,0.06696250289678574
1772389379293162500,4.95616259765625,-0.006599999964237213,-0.027912499383091927,0.09776250272989273
1772389379313219600,4.976219482421875,-0.011962499469518661,0.003987499978393316,0.08717499673366547
1772389379333276700,4.996276611328125,-0.023649999871850014,0.02213750034570694,0.04138749837875366
1772389379353333800,5.016333740234375,-0.029975000768899918,0.02213750034570694,-0.005499999970197678
1772389379373390800,5.036390869140625,-0.022549999877810478,0.055137500166893005,0.008387500420212746
1772389379393447700,5.05644775390625,0.004124999977648258,0.07535000145435333,0.020075000822544098
1772389379413504800,5.0765048828125,0.0030249999836087227,0.06159999966621399,-0.020487500354647636
1772389379433561600,5.0965615234375,-0.014024999924004078,0.04661250114440918,-0.059812501072883606
1772389379453619000,5.116618896484375,-0.020487500354647636,0.04881250113248825,-0.033275000751018524
1772389379473675800,5.13667578125,-0.002337499987334013,0.03272499889135361,0.018975000828504562
1772389379493733000,5.156733154296875,-0.00976249948143959,0.02419999986886978,0.028599999845027924
1772389379513790000,5.1767900390625,-0.016224998980760574,0.018975000828504562,0.0541750006377697
1772389379533847000,5.196846923828125,-0.020487500354647636,0.005087499972432852,0.05087500065565109
1772389379553904000,5.216904052734375,-0.03739999979734421,-0.0034374999813735485,0.0147124994546175
1772389379573961200,5.236961181640625,-0.03849999979138374,-0.011962499469518661,0.04028749838471413
1772389379594018000,5.25701806640625,-0.022549999877810478,-0.018287500366568565,0.07218749821186066
1772389379614075100,5.2770751953125,-0.014024999924004078,-0.018287500366568565,0.047712501138448715
1772389379634132200,5.29713232421875,-0.01718750037252903,-0.022549999877810478,0.021175000816583633
1772389379654189000,5.31718896484375,-0.012924999929964542,-0.027912499383091927,0.0147124994546175
1772389379674246100,5.33724609375,-0.01718750037252903,-0.01732499897480011,0.011549999937415123
1772389379694303200,5.35730322265625,-0.02474999986588955,0.0019249999895691872,0.008387500420212746
1772389379714360000,5.377360107421875,-0.015124999918043613,0.006187499966472387,0.012649999931454659
1772389379734417400,5.39741748046875,-0.005499999970197678,0.0147124994546175,0.026399999856948853
1772389379754474200,5.41747412109375,-0.005499999970197678,0.026399999856948853,0.02969999983906746
1772389379774531300,5.43753125,-0.0012374999932944775,0.007287499960511923,0.0317624993622303
1772389379794588400,5.45758837890625,-0.010862499475479126,0.01677500084042549,0.0008249999955296516
1772389379814645200,5.477645263671875,-0.011962499469518661,0.027499999850988388,-0.00013749999925494194
1772389379834702300,5.497702392578125,0.006187499966472387,0.015812499448657036,-0.0012374999932944775
1772389379854759400,5.517759521484375,-0.002337499987334013,0.01677500084042549,-0.012924999929964542
1772389379874816500,5.53781640625,-0.012924999929964542,0.02419999986886978,0.007287499960511923
1772389379894873300,5.557873291015625,-0.014024999924004078,0.020075000822544098,0.028599999845027924
1772389379914930400,5.577930419921875,-0.016224998980760574,0.0030249999836087227,0.03918749839067459
1772389379934987500,5.597987548828125,-0.01718750037252903,-0.007699999958276749,0.018975000828504562
1772389379955044400,5.61804443359375,-0.027912499383091927,-0.031075000762939453,-0.008662499487400055
1772389379975101700,5.638101806640625,-0.02474999986588955,-0.030112499371170998,-0.002337499987334013
1772389379995158500,5.658158447265625,-0.01718750037252903,-0.018287500366568565,0.0147124994546175
1772389380015215600,5.678215576171875,-0.008662499487400055,-0.0364375002682209,0.008387500420212746
1772389380035272700,5.698272705078125,-0.01718750037252903,-0.05238749831914902,-0.005499999970197678
1772389380055329500,5.71832958984375,-0.018287500366568565,-0.04179999977350235,0.015812499448657036
1772389380075386600,5.73838671875,-0.020487500354647636,-0.029012499377131462,0.04235000163316727
1772389380095443500,5.758443359375,-0.025712499395012856,-0.013062499463558197,0.047712501138448715
1772389380115500800,5.778500732421875,-0.011962499469518661,-0.018287500366568565,0.05087500065565109
1772389380135557600,5.7985576171875,-0.00976249948143959,-0.031075000762939453,0.02433750033378601
1772389380155614700,5.81861474609375,0.0030249999836087227,-0.0193875003606081,0.02213750034570694
1772389380175671800,5.838671875,-0.007699999958276749,-0.0193875003606081,0.04138749837875366
1772389380195729000,5.85872900390625,-0.018287500366568565,-0.023649999871850014,0.0317624993622303
1772389380215785700,5.87878564453125,-0.029975000768899918,-0.055687498301267624,-0.006599999964237213
1772389380235842800,5.8988427734375,-0.03739999979734421,-0.05348749831318855,0.0030249999836087227
1772389380255900000,5.91889990234375,-0.03217500075697899,-0.05238749831914902,0.036024998873472214
1772389380275956700,5.938956787109375,-0.03849999979138374,-0.021587500348687172,0.05087500065565109
1772389380296014000,5.95901416015625,-0.035337500274181366,-0.025849999859929085,0.05843750014901161
1772389380316071000,5.97907080078125,-0.03849999979138374,-0.022549999877810478,0.043449997901916504
1772389380336128000,5.9991279296875,-0.02681249938905239,-0.011962499469518661,0.030662499368190765
1772389380356184800,6.019184814453125,-0.01718750037252903,-0.008799999952316284,0.006187499966472387
1772389380376242000,6.039241943359375,-0.021449999883770943,-0.016224998980760574,-0.00976249948143959
1772389380396299000,6.059299072265625,-0.035337500274181366,0.0030249999836087227,0.02213750034570694
1772389380416355800,6.07935595703125,-0.01718750037252903,0.007287499960511923,0.03712499886751175
1772389380436413200,6.0994130859375,-0.012924999929964542,-0.022549999877810478,0.008387500420212746
1772389380456470000,6.119469970703125,-0.029012499377131462,-0.03863750025629997,-0.00013749999925494194
1772389380476527000,6.139527099609375,-0.050187498331069946,-0.040699999779462814,0.004124999977648258
1772389380496584200,6.159584228515625,-0.06627500057220459,-0.030112499371170998,0.012649999931454659
1772389380516641000,6.17964111328125,-0.04702499881386757,-0.022549999877810478,0.02969999983906746
1772389380536698000,6.199697998046875,-0.03423750028014183,-0.016224998980760574,0.038087498396635056
1772389380556755200,6.219755126953125,-0.025712499395012856,-0.031075000762939453,-0.00976249948143959
1772389380576812000,6.23981201171875,-0.029012499377131462,-0.040699999779462814,-0.014024999924004078
1772389380596869000,6.259869140625,-0.04592499881982803,-0.035337500274181366,0.004124999977648258
1772389380616926000,6.279926025390625,-0.04496249929070473,-0.027912499383091927,0.023237500339746475
1772389380636983300,6.2999833984375,-0.027912499383091927,-0.04496249929070473,0.0317624993622303
1772389380657040100,6.3200400390625,-0.027912499383091927,-0.048124998807907104,0.012649999931454659
1772389380677097200,6.34009716796875,-0.0364375002682209,-0.035337500274181366,0.023237500339746475
1772389380697154000,6.360154052734375,-0.029975000768899918,-0.035337500274181366,0.03396249935030937
1772389380717211100,6.380211181640625,-0.021449999883770943,-0.03959999978542328,0.023237500339746475
1772389380737268200,6.400268310546875,-0.027912499383091927,-0.03863750025629997,0.01691249944269657
1772389380757325000,6.420324951171875,-0.025712499395012856,-0.014024999924004078,0.04235000163316727
1772389380777382000,6.4403818359375,0.010449999943375587,-0.022549999877810478,0.07438749819993973
1772389380797439200,6.460439208984375,0.011549999937415123,-0.004537499975413084,0.03492499887943268
1772389380817496000,6.48049609375,0.0030249999836087227,0.0019249999895691872,0.025437500327825546
1772389380837553000,6.500552978515625,0.0030249999836087227,-0.021587500348687172,0.02433750033378601
1772389380857610200,6.5206103515625,0.007287499960511923,-0.0012374999932944775,-0.00976249948143959
1772389380877667000,6.5406669921875,0.0147124994546175,-0.0002749999985098839,0.006187499966472387
1772389380897724200,6.56072412109375,0.005087499972432852,-0.0002749999985098839,0.017875000834465027
1772389380917781000,6.580781005859375,-0.011962499469518661,0.021037500351667404,0.012649999931454659
1772389380937838000,6.600838134765625,-0.014024999924004078,0.013612499460577965,0.015812499448657036
1772389380957895200,6.620895263671875,-0.01718750037252903,0.010449999943375587,-0.006599999964237213
1772389380977952000,6.640951904296875,-0.010862499475479126,0.02213750034570694,0.011549999937415123
1772389380998008800,6.6610087890625,-0.010862499475479126,0.043449997901916504,0.03396249935030937
1772389381018066200,6.681066162109375,-0.021449999883770943,0.03698749840259552,0.0147124994546175
1772389381038123000,6.701123046875,-0.020487500354647636,0.03492499887943268,0.0030249999836087227
1772389381058179800,6.721179931640625,-0.01718750037252903,0.0317624993622303,0.017875000834465027
1772389381078237200,6.7412373046875,-0.012924999929964542,0.036024998873472214,0.02433750033378601
1772389381098294000,6.7612939453125,-0.008662499487400055,0.03272499889135361,0.03492499887943268
1772389381118351000,6.78135107421875,-0.010862499475479126,0.015812499448657036,0.03712499886751175
1772389381138408000,6.801407958984375,-0.006599999964237213,-0.005499999970197678,0.038087498396635056
1772389381158465300,6.82146533203125,0.008387500420212746,-0.006599999964237213,0.038087498396635056
1772389381178522000,6.841522216796875,0.017875000834465027,-0.0193875003606081,0.043449997901916504
1772389381198579000,6.861578857421875,0.02213750034570694,-0.031075000762939453,0.025437500327825546
1772389381218636000,6.881635986328125,0.0147124994546175,-0.020487500354647636,0.021175000816583633
1772389381238692900,6.90169287109375,0.0019249999895691872,-0.004537499975413084,0.038087498396635056
1772389381258750200,6.921750244140625,-0.0034374999813735485,-0.004537499975413084,0.04235000163316727
1772389381278807000,6.94180712890625,0.0030249999836087227,-0.010862499475479126,0.032862499356269836
1772389381298864000,6.961864013671875,-0.00013749999925494194,-0.016224998980760574,0.018975000828504562
1772389381318921000,6.9819208984375,-0.005499999970197678,-0.004537499975413084,0.021175000816583633
1772389381338978300,7.001978271484375,-0.006599999964237213,0.010449999943375587,0.032862499356269836
1772389381359035100,7.02203515625,-0.002337499987334013,0.025299999862909317,0.032862499356269836
1772389381379092000,7.042092041015625,-0.00013749999925494194,0.025299999862909317,0.013612499460577965
1772389381399149300,7.0621494140625,-0.004399999976158142,0.01251249946653843,-0.006599999964237213
1772389381419206100,7.0822060546875,-0.002337499987334013,0.02956249937415123,0.017875000834465027
1772389381439263200,7.10226318359375,0.0030249999836087227,0.04124999791383743,0.04661250114440918
1772389381459320000,7.122320068359375,0.005087499972432852,0.028462499380111694,0.012649999931454659
1772389381479377200,7.142377197265625,-0.0012374999932944775,0.028462499380111694,-0.012924999929964542
1772389381499434000,7.16243408203125,0.0008249999955296516,0.026399999856948853,0.0008249999955296516
1772389381519491000,7.182490966796875,0.006187499966472387,0.01677500084042549,-0.002337499987334013
1772389381539548000,7.2025478515625,0.0008249999955296516,0.023237500339746475,-0.008662499487400055
1772389381559605200,7.222605224609375,-0.002337499987334013,0.011549999937415123,0.0008249999955296516
1772389381579662000,7.242662109375,-0.011962499469518661,0.0008249999955296516,-0.0012374999932944775
1772389381599719200,7.26271923828125,-0.010862499475479126,-0.0034374999813735485,0.03396249935030937
1772389381619776000,7.28277587890625,-0.010862499475479126,0.011549999937415123,0.07438749819993973
1772389381639833000,7.3028330078125,-0.015124999918043613,0.003987499978393316,0.05939999967813492
1772389381659890200,7.32289013671875,-0.010862499475479126,-0.015124999918043613,0.007287499960511923
1772389381679947300,7.342947265625,-0.014024999924004078,-0.010862499475479126,0.0008249999955296516
1772389381700004000,7.363004150390625,-0.012924999929964542,0.006187499966472387,0.018975000828504562
1772389381720061000,7.38306103515625,-0.008662499487400055,-0.0012374999932944775,0.01691249944269657
1772389381740118300,7.4031181640625,-0.0034374999813735485,-0.0034374999813735485,0.009349999949336052
1772389381760175000,7.423175048828125,-0.005499999970197678,0.006187499966472387,0.02213750034570694
1772389381780232200,7.443232177734375,-0.010862499475479126,0.0030249999836087227,0.028599999845027924
1772389381800289000,7.4632890625,-0.015124999918043613,0.009349999949336052,0.025437500327825546
1772389381820346400,7.483346435546875,-0.012924999929964542,0.026399999856948853,0.017875000834465027
1772389381840403200,7.5034033203125,-0.006599999964237213,0.005087499972432852,0.008387500420212746
1772389381860460300,7.523460205078125,-0.010862499475479126,-0.0034374999813735485,-0.011962499469518661
1772389381880517000,7.54351708984375,-0.014024999924004078,0.011549999937415123,-0.002337499987334013
1772389381900574200,7.56357421875,0.005087499972432852,0.006187499966472387,0.023237500339746475
1772389381920631000,7.583631103515625,0.009349999949336052,-0.014024999924004078,0.021175000816583633
1772389381940688100,7.603688232421875,-0.006599999964237213,-0.010862499475479126,-0.00976249948143959
1772389381960745000,7.623744873046875,-0.00976249948143959,-0.006599999964237213,0.028599999845027924
1772389381980802000,7.643802001953125,-0.011962499469518661,-0.0012374999932944775,0.045649997889995575
1772389382000859100,7.663859130859375,-0.010862499475479126,-0.006599999964237213,0.036024998873472214
1772389382020916000,7.683916015625,0.0008249999955296516,0.003987499978393316,0.009349999949336052
1772389382040973000,7.70397314453125,-0.00013749999925494194,-0.002337499987334013,0.009349999949336052
1772389382061030000,7.72402978515625,-0.015124999918043613,-0.002337499987334013,0.023237500339746475
1772389382081087000,7.7440869140625,-0.022549999877810478,0.036024998873472214,0.07438749819993973
1772389382101144000,7.76414404296875,-0.002337499987334013,0.02213750034570694,0.08607500046491623
1772389382121201000,7.784200927734375,-0.00013749999925494194,-0.00976249948143959,0.0317624993622303
1772389382141258000,7.804258056640625,-0.007699999958276749,-0.018287500366568565,-0.00013749999925494194
1772389382161314800,7.824314697265625,-0.014024999924004078,0.01251249946653843,0.02213750034570694
1772389382181372000,7.844371826171875,-0.012924999929964542,0.009349999949336052,0.060499999672174454
1772389382201428700,7.8644287109375,-0.018287500366568565,0.005087499972432852,0.057337500154972076
1772389382221485800,7.88448583984375,-0.010862499475479126,-0.007699999958276749,0.02969999983906746
1772389382241542700,7.904542724609375,-0.008662499487400055,-0.013062499463558197,0.012649999931454659
1772389382261599700,7.924599853515625,-0.014024999924004078,-0.02474999986588955,0.009349999949336052
1772389382281656800,7.94465673828125,-0.02474999986588955,-0.008799999952316284,0.01691249944269657
1772389382301713700,7.964713623046875,-0.02474999986588955,-0.004537499975413084,0.04661250114440918
1772389382321770800,7.984770751953125,-0.020487500354647636,-0.005499999970197678,0.05843750014901161
1772389382341827600,8.00482763671875,-0.03217500075697899,0.017875000834465027,0.04455000162124634
1772389382361884700,8.024884765625,-0.02681249938905239,0.01251249946653843,0.027499999850988388
1772389382381941800,8.044941650390625,-0.005499999970197678,0.003987499978393316,0.012649999931454659
1772389382401998600,8.06499853515625,0.0030249999836087227,-0.0002749999985098839,-0.005499999970197678
1772389382422055700,8.0850556640625,0.0030249999836087227,-0.00976249948143959,-0.002337499987334013
1772389382442112500,8.105112548828124,0.006187499966472387,-0.010862499475479126,0.005087499972432852
1772389382462169900,8.125169921875,0.006187499966472387,-0.0034374999813735485,0.013612499460577965
1772389382482226700,8.145226806640625,-0.0012374999932944775,-0.007699999958276749,0.028599999845027924
1772389382502283800,8.16528369140625,-0.011962499469518661,-0.005499999970197678,0.043449997901916504
1772389382522340600,8.185340576171875,-0.012924999929964542,-0.011962499469518661,0.05623750016093254
1772389382542397700,8.205397705078125,-0.008662499487400055,-0.023649999871850014,0.026399999856948853
1772389382562454800,8.225454833984376,-0.01718750037252903,-0.023649999871850014,0.006187499966472387
1772389382582511600,8.24551171875,-0.023649999871850014,-0.00976249948143959,0.04028749838471413
1772389382602568700,8.265568603515625,-0.020487500354647636,0.01677500084042549,0.04235000163316727
1772389382622625500,8.28562548828125,-0.015124999918043613,0.005087499972432852,0.0030249999836087227
1772389382642682400,8.305682373046874,-0.011962499469518661,-0.010862499475479126,-0.015124999918043613
1772389382662739500,8.325739501953125,-0.007699999958276749,-0.0034374999813735485,0.0147124994546175
1772389382682796500,8.345796630859375,-0.007699999958276749,0.010449999943375587,0.032862499356269836
1772389382702853400,8.365853271484376,-0.004399999976158142,-0.0034374999813735485,0.02213750034570694
1772389382722910500,8.385910400390625,-0.007699999958276749,-0.01732499897480011,0.005087499972432852
1772389382742967300,8.40596728515625,-0.002337499987334013,-0.004537499975413084,0.0317624993622303
1772389382763024400,8.4260244140625,0.0008249999955296516,0.0008249999955296516,0.06366249918937683
1772389382783081200,8.446081298828124,-0.007699999958276749,0.0030249999836087227,0.047712501138448715
1772389382803138300,8.46613818359375,-0.020487500354647636,0.017875000834465027,0.04138749837875366
1772389382823195400,8.4861953125,-0.00976249948143959,0.009349999949336052,0.04235000163316727
1772389382843252200,8.506252197265624,-0.0012374999932944775,0.005087499972432852,0.018975000828504562
1772389382863309300,8.526309326171875,0.006187499966472387,0.007287499960511923,-0.0034374999813735485
1772389382883366100,8.5463662109375,0.009349999949336052,0.0008249999955296516,0.0147124994546175
1772389382903423000,8.566423095703126,0.0030249999836087227,-0.002337499987334013,0.010449999943375587
1772389382923480300,8.586480224609375,-0.012924999929964542,0.009349999949336052,0.008387500420212746
1772389382943537200,8.606537109375,-0.011962499469518661,0.007287499960511923,0.02433750033378601
1772389382963594000,8.626593994140626,-0.012924999929964542,-0.0012374999932944775,0.0147124994546175
1772389382983651000,8.646651123046874,-0.016224998980760574,-0.0012374999932944775,0.0019249999895691872
1772389383003708200,8.666708251953125,-0.0034374999813735485,0.009349999949336052,0.043449997901916504
1772389383023765000,8.686764892578125,0.010449999943375587,-0.0034374999813735485,0.05087500065565109
1772389383043822000,8.706822021484374,-0.0034374999813735485,-0.005499999970197678,-0.006599999964237213
1772389383063879000,8.72687890625,-0.00013749999925494194,0.01251249946653843,0.009349999949336052
1772389383083936000,8.74693603515625,0.007287499960511923,0.01677500084042549,0.038087498396635056
1772389383103992800,8.766992919921876,0.004124999977648258,0.007287499960511923,0.025437500327825546
1772389383124050000,8.7870498046875,-0.0034374999813735485,0.005087499972432852,0.008387500420212746
1772389383144106800,8.807106689453125,0.0008249999955296516,0.0030249999836087227,0.013612499460577965
1772389383164163600,8.82716357421875,-0.0034374999813735485,0.008249999955296516,0.013612499460577965
1772389383184220700,8.847220703125,-0.014024999924004078,0.0147124994546175,0.017875000834465027
1772389383204277800,8.86727783203125,-0.010862499475479126,0.026399999856948853,0.02969999983906746
1772389383224334800,8.8873349609375,0.0019249999895691872,0.027499999850988388,0.026399999856948853
1772389383244391700,8.9073916015625,0.010449999943375587,0.010449999943375587,-0.00976249948143959
1772389383264448800,8.92744873046875,0.0030249999836087227,-0.005499999970197678,-0.03217500075697899
1772389383284505600,8.947505615234375,-0.008662499487400055,0.017875000834465027,0.0030249999836087227
1772389383304562400,8.9675625,0.0019249999895691872,0.028462499380111694,0.049912501126527786
1772389383324619500,8.98761962890625,0.0019249999895691872,0.01251249946653843,0.0317624993622303
1772389383344676600,9.007676513671875,-0.00013749999925494194,0.005087499972432852,0.012649999931454659
1772389383364733400,9.0277333984375,-0.0034374999813735485,0.01677500084042549,0.04138749837875366
1772389383384790500,9.04779052734375,-0.0034374999813735485,0.018975000828504562,0.04028749838471413
1772389383404847400,9.067847412109375,-0.005499999970197678,0.01677500084042549,0.030662499368190765
1772389383424904200,9.087904296875,-0.007699999958276749,0.025299999862909317,0.057337500154972076
1772389383444961300,9.107961181640626,0.006187499966472387,0.017875000834465027,0.045649997889995575
1772389383465018000,9.12801806640625,0.004124999977648258,0.005087499972432852,0.018975000828504562
1772389383485075200,9.1480751953125,-0.007699999958276749,0.011549999937415123,0.01691249944269657
1772389383505132000,9.168132080078125,-0.007699999958276749,0.018975000828504562,0.018975000828504562
1772389383525188900,9.18818896484375,-0.005499999970197678,0.005087499972432852,0.0030249999836087227
1772389383545246200,9.20824609375,-0.008662499487400055,0.01251249946653843,0.006187499966472387
1772389383565303000,9.228302978515625,-0.004399999976158142,0.023237500339746475,0.028599999845027924
1772389383585360000,9.24835986328125,-0.004399999976158142,0.01251249946653843,0.005087499972432852
1772389383605417000,9.2684169921875,-0.005499999970197678,-0.0012374999932944775,-0.011962499469518661
1772389383625473800,9.288473876953125,0.007287499960511923,0.026399999856948853,0.02969999983906746
1772389383645531000,9.30853076171875,0.007287499960511923,0.025299999862909317,0.04028749838471413
1772389383665587700,9.328587646484374,-0.002337499987334013,0.0317624993622303,0.005087499972432852
1772389383685644500,9.34864453125,-0.0034374999813735485,0.03492499887943268,-0.018287500366568565
1772389383705701600,9.36870166015625,0.013612499460577965,0.021037500351667404,-0.031075000762939453
1772389383725758500,9.388758544921876,0.0147124994546175,0.005087499972432852,-0.042762499302625656
1772389383745815300,9.408815185546874,-0.00013749999925494194,0.01251249946653843,-0.029975000768899918
1772389383765872600,9.42887255859375,-0.0012374999932944775,0.021037500351667404,0.020075000822544098
1772389383785929500,9.448929443359376,-0.0034374999813735485,0.030662499368190765,0.021175000816583633
1772389383805986600,9.468986572265624,0.005087499972432852,0.020075000822544098,0.013612499460577965
1772389383826043400,9.48904345703125,-0.004399999976158142,0.007287499960511923,-0.0193875003606081
1772389383846100200,9.509100341796875,-0.016224998980760574,-0.011962499469518661,-0.0364375002682209
1772389383866157300,9.5291572265625,-0.015124999918043613,-0.011962499469518661,-0.008662499487400055
1772389383886214100,9.549214111328125,-0.015124999918043613,-0.006599999964237213,0.03492499887943268
1772389383906271200,9.569271240234375,-0.018287500366568565,-0.025849999859929085,0.036024998873472214
1772389383926328000,9.589328125,-0.014024999924004078,-0.029012499377131462,0.021175000816583633
1772389383946385200,9.60938525390625,-0.011962499469518661,0.006187499966472387,0.04881250113248825
1772389383966442000,9.62944189453125,-0.00013749999925494194,0.009349999949336052,0.05197500064969063
1772389383986498800,9.649498779296875,0.005087499972432852,-0.015124999918043613,-0.006599999964237213
1772389384006556000,9.669555908203124,0.012649999931454659,-0.008799999952316284,-0.002337499987334013
1772389384026613000,9.689613037109375,0.03492499887943268,0.007287499960511923,0.043449997901916504
1772389384046669800,9.709669921875,0.02213750034570694,0.011549999937415123,0.0147124994546175
1772389384066726700,9.7297265625,-0.005499999970197678,0.01677500084042549,-0.006599999964237213
1772389384086783700,9.74978369140625,-0.007699999958276749,0.02213750034570694,0.007287499960511923
1772389384106840600,9.769840576171875,0.005087499972432852,0.025299999862909317,0.0019249999895691872
1772389384126897400,9.7898974609375,0.007287499960511923,0.0147124994546175,0.006187499966472387
1772389384146954500,9.80995458984375,-0.002337499987334013,0.02213750034570694,0.006187499966472387
1772389384167011300,9.83001123046875,-0.011962499469518661,0.02419999986886978,-0.004399999976158142
1772389384187068200,9.850068115234375,-0.020487500354647636,0.0147124994546175,-0.002337499987334013
1772389384207125200,9.870125244140626,-0.011962499469518661,0.025299999862909317,0.017875000834465027
1772389384227182000,9.89018212890625,0.004124999977648258,0.013612499460577965,0.028599999845027924
1772389384247239000,9.910239013671875,0.0008249999955296516,0.011549999937415123,0.013612499460577965
1772389384267296000,9.9302958984375,0.0008249999955296516,0.005087499972432852,0.012649999931454659
1772389384287352800,9.950352783203124,0.0008249999955296516,0.008249999955296516,0.009349999949336052
1772389384307410000,9.970409912109375,-0.002337499987334013,0.010449999943375587,0.015812499448657036
1772389384327466800,9.990466796875,-0.008662499487400055,0.011549999937415123,0.007287499960511923
1772389384347523800,10.01052392578125,-0.011962499469518661,0.026399999856948853,0.017875000834465027
1772389384367580700,10.03058056640625,0.005087499972432852,0.03492499887943268,0.0317624993622303
1772389384387637500,10.050637451171875,0.0147124994546175,0.013612499460577965,0.007287499960511923
1772389384407694300,10.0706943359375,0.004124999977648258,0.015812499448657036,-0.023649999871850014
1772389384427751400,10.09075146484375,0.011549999937415123,0.01677500084042549,-0.005499999970197678
1772389384447808500,10.11080859375,-0.00013749999925494194,0.021037500351667404,0.0030249999836087227
1772389384467865300,10.130865234375,-0.004399999976158142,0.02419999986886978,0.017875000834465027
1772389384487922400,10.15092236328125,-0.010862499475479126,0.025299999862909317,0.023237500339746475
1772389384507979300,10.170979248046875,-0.006599999964237213,0.03272499889135361,0.0147124994546175
1772389384528036400,10.191036376953125,-0.00013749999925494194,0.017875000834465027,0.006187499966472387
1772389384548093200,10.21109326171875,-0.00013749999925494194,0.015812499448657036,0.0008249999955296516
1772389384568150000,10.23114990234375,0.007287499960511923,0.0147124994546175,0.015812499448657036
1772389384588207000,10.25120703125,0.005087499972432852,0.003987499978393316,0.025437500327825546
1772389384608264000,10.271263916015625,0.006187499966472387,0.006187499966472387,0.030662499368190765
1772389384628321000,10.291321044921874,0.005087499972432852,0.003987499978393316,0.03492499887943268
1772389384648377900,10.3113779296875,0.008387500420212746,-0.010862499475479126,0.018975000828504562
1772389384668435000,10.33143505859375,0.007287499960511923,-0.010862499475479126,0.027499999850988388
1772389384688491800,10.35149169921875,0.004124999977648258,-0.004537499975413084,0.030662499368190765
1772389384708548600,10.371548583984374,-0.002337499987334013,0.003987499978393316,0.04028749838471413
1772389384728605700,10.391605712890625,-0.002337499987334013,0.007287499960511923,0.04138749837875366
1772389384748662500,10.41166259765625,-0.00013749999925494194,0.003987499978393316,0.012649999931454659
1772389384768719600,10.4317197265625,-0.00013749999925494194,0.011549999937415123,0.006187499966472387
1772389384788776400,10.4517763671875,0.0030249999836087227,0.021037500351667404,0.011549999937415123
1772389384808833300,10.471833251953125,0.007287499960511923,0.017875000834465027,0.0019249999895691872
1772389384828890400,10.491890380859376,-0.005499999970197678,0.023237500339746475,0.0008249999955296516
1772389384848947200,10.511947265625,-0.0034374999813735485,0.01677500084042549,0.04028749838471413
1772389384869004000,10.532004150390625,-0.006599999964237213,-0.006599999964237213,0.17242500185966492
1772389384889061000,10.55206103515625,0.043449997901916504,-0.008799999952316284,0.16706250607967377
1772389384909118000,10.572117919921874,0.038224998861551285,0.0008249999955296516,0.17668749392032623
1772389384929174800,10.5921748046875,-0.033275000751018524,-0.033275000751018524,0.1116499975323677
1772389384949231900,10.61223193359375,-0.1013374999165535,-0.08538749814033508,-0.012924999929964542
1772389384969288700,10.632288818359376,-0.09817499667406082,-0.04922499880194664,0.026399999856948853
1772389384989345500,10.652345458984374,0.004124999977648258,-0.0002749999985098839,0.09776250272989273
1772389385009402400,10.67240234375,0.030662499368190765,-0.015124999918043613,0.12017499655485153
