time,seconds_elapsed,z,y,x
1772389374639958500,0.30295849609375,1.2090001106262207,-9.468000411987305,2.6230502128601074
1772389374660015000,0.32301513671875,0.9820500612258911,-9.550950050354004,2.5230000019073486
1772389374680072000,0.343072021484375,0.9769500494003296,-9.693000793457031,2.259000062942505
1772389374700128800,0.363128662109375,1.3650000095367432,-9.78795051574707,2.209050178527832
1772389374720185600,0.383185546875,1.5709500312805176,-9.870000839233398,2.2260000705718994
1772389374740242200,0.4032421875,1.5780000686645508,-9.642000198364258,2.3740501403808594
1772389374760299000,0.423299072265625,1.7359501123428345,-9.541950225830078,2.608950138092041
1772389374780355800,0.44335595703125,1.915950059890747,-9.556050300598145,2.5819501876831055
1772389374800412700,0.46341259765625,1.9800001382827759,-9.5149507522583,2.6110501289367676
1772389374820469500,0.483469482421875,1.9440001249313354,-9.586950302124023,2.6020500659942627
1772389374840526300,0.5035263671875,2.052000045776367,-9.693000793457031,2.427000045776367
1772389374860583200,0.523583251953125,2.053950071334839,-9.610950469970703,2.4600000381469727
1772389374880639700,0.5436396484375,1.908000111579895,-9.594000816345215,2.530050039291382
1772389374900696600,0.563696533203125,1.7620500326156616,-9.568050384521484,2.341050148010254
1772389374920753400,0.58375341796875,1.7340000867843628,-9.616050720214844,2.2330501079559326
1772389374940810200,0.603810302734375,1.759950041770935,-9.541950225830078,2.2380001544952393
1772389374960866800,0.62386669921875,1.9590001106262207,-9.532050132751465,2.416950225830078
1772389374980923600,0.643923583984375,1.831950068473816,-9.609000205993652,2.5699501037597656
1772389375000980500,0.66398046875,1.6230000257492065,-9.547050476074219,2.3910000324249268
1772389375021037300,0.684037353515625,1.5610500574111938,-9.574950218200684,1.9669500589370728
1772389375041094100,0.70409423828125,1.662000060081482,-9.75195026397705,1.8790501356124878
1772389375061151000,0.72415087890625,1.7500500679016113,-9.739950180053711,2.137050151824951
1772389375081207800,0.744207763671875,1.815000057220459,-9.475050926208496,2.4000000953674316
1772389375101264600,0.7642646484375,1.9320000410079956,-9.54900074005127,2.5060501098632812
1772389375121321500,0.784321533203125,1.810050129890442,-9.609000205993652,2.287950038909912
1772389375141378000,0.8043779296875,1.7220001220703125,-9.562950134277344,2.3209500312805176
1772389375161435000,0.824434814453125,1.8390001058578491,-9.508050918579102,2.3809502124786377
1772389375181491700,0.84449169921875,2.076000213623047,-9.53895092010498,2.4870002269744873
1772389375201548500,0.864548583984375,2.284050226211548,-9.541950225830078,2.515050172805786
1772389375221605400,0.88460546875,2.244000196456909,-9.637950897216797,2.3359501361846924
1772389375241662200,0.904662109375,1.798050045967102,-9.666000366210938,2.107950210571289
1772389375261719000,0.924718994140625,1.4080500602722168,-9.541950225830078,2.118000030517578
1772389375281775900,0.94477587890625,1.4149500131607056,-9.48900032043457,2.3359501361846924
1772389375301832400,0.96483251953125,1.675950050354004,-9.433950424194336,2.4240000247955322
1772389375321889500,0.9848896484375,1.915950059890747,-9.535050392150879,2.367000102996826
1772389375341946400,1.0049462890625,2.053950071334839,-9.657000541687012,2.2980000972747803
1772389375362003000,1.0250029296875,1.963050127029419,-9.705000877380371,2.11995005607605
1772389375382059800,1.045059814453125,1.7790000438690186,-9.726000785827637,2.187000036239624
1772389375402116600,1.06511669921875,1.8439500331878662,-9.640050888061523,2.451000213623047
1772389375422173400,1.08517333984375,1.8370500802993774,-9.523050308227539,2.428950071334839
1772389375442230300,1.105230224609375,1.7959500551223755,-9.571050643920898,2.4240000247955322
1772389375462286800,1.125286865234375,1.927950143814087,-9.5149507522583,2.470050096511841
1772389375482343700,1.14534375,2.0659501552581787,-9.480000495910645,2.4529500007629395
1772389375502400500,1.165400390625,2.098050117492676,-9.568050384521484,2.4340500831604004
1772389375522457300,1.185457275390625,2.1790502071380615,-9.589950561523438,2.386050224304199
1772389375542514200,1.20551416015625,2.164950132369995,-9.618000030517578,2.281050205230713
1772389375562571000,1.225571044921875,2.1570000648498535,-9.598950386047363,2.247000217437744
1772389375582627800,1.2456279296875,2.203050136566162,-9.568050384521484,2.218050003051758
1772389375602684700,1.2656845703125,2.1090002059936523,-9.601950645446777,2.0680501461029053
1772389375622741500,1.285741455078125,1.8720000982284546,-9.606000900268555,2.107950210571289
1772389375642798300,1.30579833984375,1.815000057220459,-9.496050834655762,2.2230000495910645
1772389375662855200,1.325855224609375,1.8820500373840332,-9.480000495910645,2.1660001277923584
1772389375682911700,1.345911865234375,1.915950059890747,-9.48705005645752,2.158950090408325
1772389375702968800,1.36596875,1.966050148010254,-9.5149507522583,2.308950185775757
1772389375723025400,1.386025390625,2.1690001487731934,-9.565950393676758,2.26200008392334
1772389375743082500,1.40608251953125,2.3680500984191895,-9.550950050354004,2.218050003051758
1772389375763139300,1.426139404296875,2.2699501514434814,-9.559050559997559,2.3020501136779785
1772389375783196200,1.446196044921875,2.1570000648498535,-9.523050308227539,2.299950122833252
1772389375803253000,1.4662529296875,2.1670501232147217,-9.616050720214844,2.2759501934051514
1772389375823309800,1.486309814453125,2.1000001430511475,-9.547050476074219,2.2350001335144043
1772389375843366700,1.50636669921875,2.026050090789795,-9.556050300598145,2.2930500507354736
1772389375863423500,1.526423583984375,2.0929501056671143,-9.724050521850586,2.2159500122070312
1772389375883480300,1.546480224609375,2.3490002155303955,-9.412050247192383,2.202000141143799
1772389375903537200,1.566537109375,2.6860501766204834,-9.468000411987305,2.3910000324249268
1772389375923594000,1.586593994140625,2.8780500888824463,-9.705000877380371,2.197050094604492
1772389375943650800,1.60665087890625,2.8849501609802246,-9.448050498962402,2.0680501461029053
1772389375963707600,1.626707763671875,2.674950122833252,-9.547050476074219,1.9860000610351562
1772389375983764200,1.64676416015625,2.5450501441955566,-9.709050178527832,1.3609501123428345
1772389376003821300,1.6668212890625,2.751000165939331,-9.580050468444824,1.048050045967102
1772389376023878100,1.686878173828125,2.8560001850128174,-9.645000457763672,0.8509500622749329
1772389376043935000,1.70693505859375,2.8849501609802246,-9.75,0.8110500574111938
1772389376063991800,1.72699169921875,2.851950168609619,-9.429000854492188,1.15500009059906
1772389376084048600,1.747048583984375,2.5690500736236572,-8.992950439453125,1.5979501008987427
1772389376104105200,1.767105224609375,2.3680500984191895,-8.839950561523438,2.1510000228881836
1772389376124162000,1.787162109375,2.539950132369995,-9.310050010681152,2.388000011444092
1772389376144219100,1.80721923828125,2.6460001468658447,-9.523050308227539,1.519050121307373
1772389376164276000,1.82727587890625,2.425950050354004,-9.460050582885742,1.4310001134872437
1772389376184332500,1.84733251953125,2.5600500106811523,-9.381000518798828,1.6300500631332397
1772389376204389600,1.8673896484375,2.8590002059936523,-9.53895092010498,1.918950080871582
1772389376224446500,1.887446533203125,2.2080001831054688,-9.472050666809082,1.7779500484466553
1772389376244503300,1.90750341796875,2.121000051498413,-9.54900074005127,1.5120000839233398
1772389376264559900,1.927559814453125,2.952000141143799,-9.906000137329102,0.895050048828125
1772389376284617000,1.947616943359375,3.331050157546997,-9.865050315856934,0.34905001521110535
1772389376304673800,1.967673828125,3.129000186920166,-9.661050796508789,0.8749500513076782
1772389376324730600,1.987730712890625,3.151050090789795,-9.694950103759766,1.3230000734329224
1772389376344787500,2.007787353515625,2.9950501918792725,-9.75195026397705,1.0380001068115234
1772389376364844300,2.02784423828125,2.3560500144958496,-9.54900074005127,1.01895010471344
1772389376384901000,2.047901123046875,2.413950204849243,-9.669000625610352,0.8830500245094299
1772389376404958000,2.0679580078125,2.6509501934051514,-9.77400016784668,0.6550500392913818
1772389376425014800,2.088014892578125,2.4880502223968506,-9.582000732421875,0.922950029373169
1772389376445071600,2.108071533203125,2.3580000400543213,-9.529950141906738,1.3210500478744507
1772389376465128700,2.128128662109375,2.385000228881836,-9.714000701904297,1.1100000143051147
1772389376485185500,2.148185546875,2.1000001430511475,-9.690000534057617,1.290000081062317
1772389376505242400,2.168242431640625,1.7929500341415405,-9.610950469970703,1.440000057220459
1772389376525299000,2.188298828125,2.056950092315674,-9.673050880432129,1.4310001134872437
1772389376545356000,2.20835595703125,2.244000196456909,-9.685050010681152,1.4040000438690186
1772389376565412900,2.228412841796875,2.244000196456909,-9.702000617980957,1.4070000648498535
1772389376585469700,2.2484697265625,2.260050058364868,-9.745050430297852,1.4329500198364258
1772389376605526500,2.268526611328125,2.2200000286102295,-9.79800033569336,1.29705011844635
1772389376625583600,2.28858349609375,2.0209500789642334,-9.712050437927246,1.2229501008987427
1772389376645640200,2.30864013671875,1.8990000486373901,-9.645000457763672,1.3039500713348389
1772389376665697000,2.328697021484375,1.9590001106262207,-9.670950889587402,1.29705011844635
1772389376685754000,2.348754150390625,1.954050064086914,-9.712050437927246,1.2460500001907349
1772389376705811000,2.36881103515625,1.831950068473816,-9.706950187683105,1.227000117301941
1772389376725867800,2.38886767578125,2.02305006980896,-9.682950019836426,1.1119500398635864
1772389376745924600,2.408924560546875,2.221950054168701,-9.666000366210938,1.102950096130371
1772389376765981700,2.428981689453125,2.2510499954223633,-9.678000450134277,1.2199500799179077
1772389376786038300,2.449038330078125,2.284050226211548,-9.729000091552734,1.2850500345230103
1772389376806095400,2.469095458984375,2.121000051498413,-9.712050437927246,1.3350000381469727
1772389376826152200,2.489152099609375,1.9300501346588135,-9.705000877380371,1.371000051498413
1772389376846209000,2.509208984375,2.104950189590454,-9.669000625610352,1.1650500297546387
1772389376866266000,2.52926611328125,2.2510499954223633,-9.784050941467285,1.1460000276565552
1772389376886323000,2.549322998046875,2.2270500659942627,-9.76395034790039,1.3920000791549683
1772389376906379800,2.5693798828125,2.1739501953125,-9.642000198364258,1.4479501247406006
1772389376926436900,2.589436767578125,2.0299501419067383,-9.724050521850586,1.4359500408172607
1772389376946493700,2.60949365234375,1.912950038909912,-9.718950271606445,1.4140501022338867
1772389376966550500,2.629550537109375,1.9920001029968262,-9.724050521850586,1.4040000438690186
1772389376986607600,2.649607666015625,2.0689501762390137,-9.678000450134277,1.333050012588501
1772389377006664400,2.66966455078125,2.124000072479248,-9.721050262451172,1.3900500535964966
1772389377026721300,2.68972119140625,2.121000051498413,-9.688050270080566,1.4550000429153442
1772389377046778400,2.7097783203125,2.098050117492676,-9.598950386047363,1.5289500951766968
1772389377066835200,2.729835205078125,2.0779500007629395,-9.472050666809082,1.6150500774383545
1772389377086892000,2.74989208984375,1.9320000410079956,-9.582000732421875,1.5720000267028809
1772389377106949000,2.76994921875,1.9320000410079956,-9.682950019836426,1.4089500904083252
1772389377127005700,2.790005615234375,1.9900500774383545,-9.819000244140625,1.0410000085830688
1772389377147062800,2.810062744140625,1.9950001239776611,-9.963000297546387,0.8899500370025635
1772389377167120000,2.830119873046875,2.0809500217437744,-9.829050064086914,1.2060000896453857
1772389377187176700,2.8501767578125,2.2360501289367676,-9.682950019836426,1.6459500789642334
1772389377207233500,2.870233642578125,2.233950138092041,-9.694950103759766,1.672950029373169
1772389377227290600,2.89029052734375,1.8840000629425049,-9.666000366210938,1.5940500497817993
1772389377247347500,2.910347412109375,1.7740501165390015,-9.712050437927246,1.665000081062317
1772389377267404300,2.930404296875,2.133000135421753,-9.685050010681152,1.6270500421524048
1772389377287461400,2.95046142578125,2.3179500102996826,-9.621000289916992,1.5220500230789185
1772389377307518200,2.970518310546875,2.121000051498413,-9.658950805664062,1.596000075340271
1772389377327575300,2.9905751953125,2.1720001697540283,-9.682950019836426,1.6320000886917114
1772389377347632000,3.010632080078125,2.365950107574463,-9.694950103759766,1.579050064086914
1772389377367689000,3.03068896484375,2.49495005607605,-9.688050270080566,1.5510001182556152
1772389377387746000,3.05074609375,2.4880502223968506,-9.721050262451172,1.5120000839233398
1772389377407803000,3.070802978515625,2.233950138092041,-9.700050354003906,1.480950117111206
1772389377427860000,3.09085986328125,2.0400002002716064,-9.633000373840332,1.426050066947937
1772389377447916800,3.110916748046875,1.801050066947937,-9.658950805664062,1.3950001001358032
1772389377467974000,3.130973876953125,1.5679501295089722,-9.568050384521484,1.5670500993728638
1772389377488030700,3.15103076171875,1.8600001335144043,-9.50100040435791,1.6770000457763672
1772389377508087800,3.171087890625,2.2099502086639404,-9.652050018310547,1.5460500717163086
1772389377528144600,3.19114453125,2.2510499954223633,-9.742950439453125,1.5240000486373901
1772389377548201700,3.21120166015625,2.200050115585327,-9.637950897216797,1.6870501041412354
1772389377568258800,3.2312587890625,2.2680001258850098,-9.628050804138184,1.6770000457763672
1772389377588315600,3.251315673828125,2.2320001125335693,-9.712050437927246,1.5700501203536987
1772389377608372700,3.271372802734375,2.0590500831604004,-9.634950637817383,1.665000081062317
1772389377628429600,3.2914296875,2.007000207901001,-9.618000030517578,1.6060501337051392
1772389377648486700,3.311486572265625,2.064000129699707,-9.658950805664062,1.480950117111206
1772389377668543700,3.331543701171875,2.041949987411499,-9.702000617980957,1.5150001049041748
1772389377688600800,3.351600830078125,2.215050220489502,-9.645000457763672,1.609950065612793
1772389377708657700,3.37165771484375,2.347050189971924,-9.640050888061523,1.6300500631332397
1772389377728714800,3.39171484375,2.200050115585327,-9.640050888061523,1.5979501008987427
1772389377748771800,3.411771728515625,2.1379501819610596,-9.661050796508789,1.6560001373291016
1772389377768828700,3.43182861328125,2.143050193786621,-9.664050102233887,1.6249500513076782
1772389377788885800,3.4518857421875,2.1190500259399414,-9.673050880432129,1.6300500631332397
1772389377808942600,3.471942626953125,2.1859500408172607,-9.613950729370117,1.7059500217437744
1772389377828999700,3.491999755859375,2.2200000286102295,-9.565950393676758,1.6939500570297241
1772389377849056800,3.512056884765625,2.196000099182129,-9.642000198364258,1.6219500303268433
1772389377869113900,3.53211376953125,2.2390501499176025,-9.702000617980957,1.5889500379562378
1772389377889170700,3.552170654296875,2.265000104904175,-9.673050880432129,1.5979501008987427
1772389377909227500,3.5722275390625,2.2270500659942627,-9.642000198364258,1.6200001239776611
1772389377929284900,3.592284912109375,2.180999994277954,-9.673050880432129,1.636950135231018
1772389377949341700,3.612341796875,2.253000020980835,-9.661050796508789,1.6030501127243042
1772389377969398500,3.6323984375,2.2080001831054688,-9.654000282287598,1.5460500717163086
1772389377989455600,3.65245556640625,2.1070501804351807,-9.669000625610352,1.633950114250183
1772389378009512700,3.6725126953125,2.1090002059936523,-9.56100082397461,1.7880001068115234
1772389378029569500,3.692569580078125,2.196000099182129,-9.523050308227539,1.8520500659942627
1772389378049626600,3.712626708984375,2.2099502086639404,-9.609000205993652,1.7950501441955566
1772389378069683700,3.73268359375,2.1739501953125,-9.625950813293457,1.6680001020431519
1772389378089740500,3.752740478515625,2.275050163269043,-9.625950813293457,1.6080000400543213
1772389378109797600,3.772797607421875,2.3080501556396484,-9.658950805664062,1.5940500497817993
1772389378129854700,3.792854736328125,2.1979501247406006,-9.657000541687012,1.725000023841858
1772389378149911600,3.81291162109375,2.044950008392334,-9.544050216674805,1.8469500541687012
1772389378169968600,3.83296875,2.098050117492676,-9.53895092010498,1.8000000715255737
1772389378190025500,3.853025390625,2.116950035095215,-9.642000198364258,1.579050064086914
1772389378210082600,3.87308251953125,1.951050043106079,-9.652050018310547,1.555050015449524
1772389378230139600,3.8931396484375,1.9369500875473022,-9.589950561523438,1.6770000457763672
1772389378250196700,3.91319677734375,2.203050136566162,-9.556050300598145,1.7419500350952148
1772389378270253800,3.93325390625,2.40405011177063,-9.589950561523438,1.6939500570297241
1772389378290311000,3.953310791015625,2.4379501342773438,-9.628050804138184,1.5910500288009644
1772389378310367700,3.97336767578125,2.335050106048584,-9.654000282287598,1.6579500436782837
1772389378330424800,3.9934248046875,2.193000078201294,-9.705000877380371,1.7640000581741333
1772389378350482000,4.01348193359375,2.004000186920166,-9.613950729370117,1.8760501146316528
1772389378370538800,4.033538818359375,2.014050006866455,-9.559050559997559,1.804050087928772
1772389378390596000,4.05359619140625,2.124000072479248,-9.592050552368164,1.672950029373169
1772389378410653000,4.07365283203125,2.302950143814087,-9.601950645446777,1.8019500970840454
1772389378430710000,4.0937099609375,2.470950126647949,-9.646950721740723,1.7830500602722168
1772389378450767000,4.11376708984375,2.4880502223968506,-9.606000900268555,1.735050082206726
1772389378470824200,4.13382421875,2.2680001258850098,-9.54900074005127,1.7800500392913818
1772389378490881000,4.153881103515625,2.1570000648498535,-9.618000030517578,1.6849501132965088
1772389378510938000,4.173938232421875,2.2320001125335693,-9.658950805664062,1.5700501203536987
1772389378530995200,4.1939951171875,2.3299500942230225,-9.606000900268555,1.672950029373169
1772389378551052300,4.21405224609375,2.3110501766204834,-9.658950805664062,1.6560001373291016
1772389378571109000,4.234109130859375,2.1979501247406006,-9.642000198364258,1.7760001420974731
1772389378591166200,4.254166259765625,2.184000015258789,-9.574950218200684,1.8760501146316528
1772389378611223600,4.2742236328125,2.11395001411438,-9.594000816345215,1.8160500526428223
1772389378631280400,4.2942802734375,2.164950132369995,-9.580050468444824,1.8090001344680786
1772389378651337500,4.31433740234375,2.2200000286102295,-9.652050018310547,1.7850000858306885
1772389378671394600,4.33439453125,2.086050033569336,-9.610950469970703,1.8000000715255737
1772389378691451400,4.354451416015625,2.0470499992370605,-9.574950218200684,1.8160500526428223
1772389378711508500,4.374508544921875,2.0659501552581787,-9.598950386047363,1.765950083732605
1772389378731565600,4.394565673828125,2.014050006866455,-9.559050559997559,1.6800000667572021
1772389378751622700,4.41462255859375,2.2240500450134277,-9.654000282287598,1.821000099182129
1772389378771679700,4.4346796875,2.3899500370025635,-9.621000289916992,1.7710500955581665
1772389378791736600,4.454736572265625,2.370000123977661,-9.571050643920898,1.807050108909607
1772389378811793700,4.474793701171875,2.3680500984191895,-9.609000205993652,1.7160000801086426
1772389378831850800,4.494850830078125,2.1600000858306885,-9.676050186157227,1.749000072479248
1772389378851907800,4.514907958984375,2.101950168609619,-9.622950553894043,1.821000099182129
1772389378871965000,4.53496484375,2.2680001258850098,-9.56100082397461,1.8450000286102295
1772389378892022000,4.55502197265625,2.313000202178955,-9.556050300598145,1.864050030708313
1772389378912078800,4.575078857421875,2.4210000038146973,-9.592050552368164,1.8379501104354858
1772389378932136000,4.595135986328125,2.3490002155303955,-9.621000289916992,1.8570001125335693
1772389378952193000,4.615193115234375,2.2170000076293945,-9.571050643920898,1.8619500398635864
1772389378972249900,4.635249755859375,2.2510499954223633,-9.54900074005127,1.8790501356124878
1772389378992307200,4.65530712890625,2.263050079345703,-9.594000816345215,1.8430501222610474
1772389379012364000,4.675364013671875,2.2480502128601074,-9.594000816345215,1.8520500659942627
1772389379032421000,4.695421142578125,2.284050226211548,-9.630000114440918,1.8310500383377075
1772389379052478200,4.715478271484375,2.1570000648498535,-9.622950553894043,1.7640000581741333
1772389379072535000,4.73553515625,1.984950065612793,-9.589950561523438,1.749000072479248
1772389379092592000,4.755592041015625,2.02305006980896,-9.580050468444824,1.8000000715255737
1772389379112649200,4.775649169921875,2.0710501670837402,-9.562950134277344,1.8900001049041748
1772389379132706300,4.795706298828125,2.0929501056671143,-9.54900074005127,1.9789501428604126
1772389379152763400,4.815763427734375,2.0779500007629395,-9.550950050354004,1.9360500574111938
1772389379172820200,4.8358203125,2.1889500617980957,-9.628050804138184,1.8709501028060913
1772389379192877300,4.855877197265625,2.2890000343322754,-9.625950813293457,1.8310500383377075
1772389379212934400,4.875934326171875,2.3370001316070557,-9.594000816345215,1.921950101852417
1772389379232991500,4.895991455078125,2.353950023651123,-9.589950561523438,1.9720500707626343
1772389379253048600,4.916048583984375,2.3779501914978027,-9.606000900268555,1.8930001258850098
1772389379273105400,4.93610546875,2.3800501823425293,-9.645000457763672,1.7830500602722168
1772389379293162500,4.95616259765625,2.2579500675201416,-9.597000122070312,1.8790501356124878
1772389379313219600,4.976219482421875,2.0400002002716064,-9.47700023651123,2.0149500370025635
1772389379333276700,4.996276611328125,1.9350000619888306,-9.493950843811035,1.974000096321106
1772389379353333800,5.016333740234375,2.086050033569336,-9.586950302124023,1.9099501371383667
1772389379373390800,5.036390869140625,2.212050199508667,-9.642000198364258,1.7779500484466553
1772389379393447700,5.05644775390625,2.0620501041412354,-9.652050018310547,1.8499500751495361
1772389379413504800,5.0765048828125,1.984950065612793,-9.574950218200684,2.0220000743865967
1772389379433561600,5.0965615234375,2.2170000076293945,-9.468000411987305,2.0440499782562256
1772389379453619000,5.116618896484375,2.470950126647949,-9.547050476074219,1.921950101852417
1772389379473675800,5.13667578125,2.4570000171661377,-9.580050468444824,1.9069501161575317
1772389379493733000,5.156733154296875,2.4379501342773438,-9.553950309753418,1.9669500589370728
1772389379513790000,5.1767900390625,2.3869500160217285,-9.544050216674805,1.9290001392364502
1772389379533847000,5.196846923828125,2.1859500408172607,-9.53700065612793,1.977000117301941
1772389379553904000,5.216904052734375,2.281949996948242,-9.585000038146973,2.0029501914978027
1772389379573961200,5.236961181640625,2.4280500411987305,-9.646950721740723,1.8520500659942627
1772389379594018000,5.25701806640625,2.290950059890747,-9.616050720214844,1.8550500869750977
1772389379614075100,5.2770751953125,2.180999994277954,-9.559050559997559,1.9860000610351562
1772389379634132200,5.29713232421875,2.215050220489502,-9.49905014038086,2.032050132751465
1772389379654189000,5.31718896484375,2.2680001258850098,-9.508050918579102,2.013000011444092
1772389379674246100,5.33724609375,2.2789502143859863,-9.490950584411621,2.0220000743865967
1772389379694303200,5.35730322265625,2.313000202178955,-9.562950134277344,1.977000117301941
1772389379714360000,5.377360107421875,2.3370001316070557,-9.562950134277344,1.8859500885009766
1772389379734417400,5.39741748046875,2.3269500732421875,-9.57300090789795,1.8930001258850098
1772389379754474200,5.41747412109375,2.293950080871582,-9.585000038146973,1.9290001392364502
1772389379774531300,5.43753125,2.1910500526428223,-9.505950927734375,1.960050106048584
1772389379794588400,5.45758837890625,2.1910500526428223,-9.46500015258789,2.0250000953674316
1772389379814645200,5.477645263671875,2.253000020980835,-9.544050216674805,1.8900001049041748
1772389379834702300,5.497702392578125,2.2320001125335693,-9.57300090789795,1.9480501413345337
1772389379854759400,5.517759521484375,2.313000202178955,-9.520050048828125,1.998000144958496
1772389379874816500,5.53781640625,2.382000207901001,-9.601950645446777,1.998000144958496
1772389379894873300,5.557873291015625,2.3580000400543213,-9.592050552368164,1.9480501413345337
1772389379914930400,5.577930419921875,2.2240500450134277,-9.613950729370117,1.998000144958496
1772389379934987500,5.597987548828125,2.098050117492676,-9.544050216674805,2.0839500427246094
1772389379955044400,5.61804443359375,2.2320001125335693,-9.553950309753418,2.0680501461029053
1772389379975101700,5.638101806640625,2.373000144958496,-9.53700065612793,1.9860000610351562
1772389379995158500,5.658158447265625,2.305950164794922,-9.532050132751465,1.9650001525878906
1772389380015215600,5.678215576171875,2.2390501499176025,-9.550950050354004,2.013000011444092
1772389380035272700,5.698272705078125,2.3179500102996826,-9.553950309753418,1.9840500354766846
1772389380055329500,5.71832958984375,2.3940000534057617,-9.580050468444824,2.0080502033233643
1772389380075386600,5.73838671875,2.3389501571655273,-9.571050643920898,1.990950107574463
1772389380095443500,5.758443359375,2.2789502143859863,-9.598950386047363,1.902000069618225
1772389380115500800,5.778500732421875,2.184000015258789,-9.594000816345215,1.8400501012802124
1772389380135557600,5.7985576171875,2.111999988555908,-9.52500057220459,1.8880500793457031
1772389380155614700,5.81861474609375,2.293950080871582,-9.535050392150879,2.0080502033233643
1772389380175671800,5.838671875,2.293950080871582,-9.547050476074219,2.059950113296509
1772389380195729000,5.85872900390625,2.1670501232147217,-9.56100082397461,2.1229500770568848
1772389380215785700,5.87878564453125,2.2200000286102295,-9.594000816345215,2.1439499855041504
1772389380235842800,5.8988427734375,2.4019501209259033,-9.589950561523438,2.020050048828125
1772389380255900000,5.91889990234375,2.365950107574463,-9.574950218200684,2.0820000171661377
1772389380275956700,5.938956787109375,2.284050226211548,-9.532050132751465,2.139000177383423
1772389380296014000,5.95901416015625,2.200050115585327,-9.475050926208496,2.070000171661377
1772389380316071000,5.97907080078125,2.143050193786621,-9.490950584411621,2.089050054550171
1772389380336128000,5.9991279296875,2.0929501056671143,-9.472050666809082,2.0220000743865967
1772389380356184800,6.019184814453125,2.095050096511841,-9.5110502243042,2.07705020904541
1772389380376242000,6.039241943359375,2.344050168991089,-9.493950843811035,2.098950147628784
1772389380396299000,6.059299072265625,2.3749501705169678,-9.532050132751465,2.0490000247955322
1772389380416355800,6.07935595703125,2.2360501289367676,-9.562950134277344,1.9840500354766846
1772389380436413200,6.0994130859375,2.1859500408172607,-9.541950225830078,2.0269501209259033
1772389380456470000,6.119469970703125,2.2789502143859863,-9.547050476074219,2.1610500812530518
1772389380476527000,6.139527099609375,2.284050226211548,-9.568050384521484,2.199000120162964
1772389380496584200,6.159584228515625,2.284050226211548,-9.598950386047363,2.1510000228881836
1772389380516641000,6.17964111328125,2.281949996948242,-9.601950645446777,2.1060001850128174
1772389380536698000,6.199697998046875,2.116950035095215,-9.559050559997559,2.1850500106811523
1772389380556755200,6.219755126953125,2.1379501819610596,-9.47700023651123,2.2159500122070312
1772389380576812000,6.23981201171875,2.3149502277374268,-9.445950508117676,2.2829999923706055
1772389380596869000,6.259869140625,2.353950023651123,-9.457950592041016,2.2829999923706055
1772389380616926000,6.279926025390625,2.3370001316070557,-9.523050308227539,2.1160500049591064
1772389380636983300,6.2999833984375,2.2360501289367676,-9.56100082397461,2.110949993133545
1772389380657040100,6.3200400390625,2.2480502128601074,-9.439050674438477,2.2069501876831055
1772389380677097200,6.34009716796875,2.302950143814087,-9.457950592041016,2.182950019836426
1772389380697154000,6.360154052734375,2.2240500450134277,-9.544050216674805,2.139000177383423
1772389380717211100,6.380211181640625,2.2320001125335693,-9.48705005645752,2.1540000438690186
1772389380737268200,6.400268310546875,2.3179500102996826,-9.496050834655762,2.098950147628784
1772389380757325000,6.420324951171875,2.410950183868408,-9.685050010681152,2.0650501251220703
1772389380777382000,6.4403818359375,2.1979501247406006,-9.589950561523438,2.038950204849243
1772389380797439200,6.460439208984375,2.124000072479248,-9.505950927734375,2.2420501708984375
1772389380817496000,6.48049609375,2.2080001831054688,-9.484050750732422,2.26200008392334
1772389380837553000,6.500552978515625,2.1090002059936523,-9.502950668334961,2.2350001335144043
1772389380857610200,6.5206103515625,2.1450002193450928,-9.535050392150879,2.2710001468658447
1772389380877667000,6.5406669921875,2.2890000343322754,-9.481950759887695,2.308950185775757
1772389380897724200,6.56072412109375,2.2480502128601074,-9.445950508117676,2.39805006980896
1772389380917781000,6.580781005859375,2.2320001125335693,-9.457950592041016,2.3650500774383545
1772389380937838000,6.600838134765625,2.1600000858306885,-9.535050392150879,2.326050043106079
1772389380957895200,6.620895263671875,2.2099502086639404,-9.57300090789795,2.259000062942505
1772389380977952000,6.640951904296875,2.385000228881836,-9.565950393676758,2.2139999866485596
1772389380998008800,6.6610087890625,2.2390501499176025,-9.5149507522583,2.2860000133514404
1772389381018066200,6.681066162109375,2.155050039291382,-9.50100040435791,2.2860000133514404
1772389381038123000,6.701123046875,2.290950059890747,-9.5149507522583,2.1850500106811523
1772389381058179800,6.721179931640625,2.3419501781463623,-9.520050048828125,2.1469500064849854
1772389381078237200,6.7412373046875,2.3389501571655273,-9.505950927734375,2.1850500106811523
1772389381098294000,6.7612939453125,2.3179500102996826,-9.472050666809082,2.179949998855591
1772389381118351000,6.78135107421875,2.3080501556396484,-9.493950843811035,2.16795015335083
1772389381138408000,6.801407958984375,2.313000202178955,-9.541950225830078,2.0839500427246094
1772389381158465300,6.82146533203125,2.3010001182556152,-9.517950057983398,2.0869500637054443
1772389381178522000,6.841522216796875,2.2170000076293945,-9.5149507522583,2.1610500812530518
1772389381198579000,6.861578857421875,2.2099502086639404,-9.480000495910645,2.239950180053711
1772389381218636000,6.881635986328125,2.3149502277374268,-9.475050926208496,2.2829999923706055
1772389381238692900,6.90169287109375,2.3110501766204834,-9.505950927734375,2.319000005722046
1772389381258750200,6.921750244140625,2.241000175476074,-9.57300090789795,2.2350001335144043
1772389381278807000,6.94180712890625,2.205000162124634,-9.53700065612793,2.227950096130371
1772389381298864000,6.961864013671875,2.233950138092041,-9.490950584411621,2.269050121307373
1772389381318921000,6.9819208984375,2.253000020980835,-9.502950668334961,2.2710001468658447
1772389381338978300,7.001978271484375,2.265000104904175,-9.529950141906738,2.2380001544952393
1772389381359035100,7.02203515625,2.1670501232147217,-9.490950584411621,2.197050094604492
1772389381379092000,7.042092041015625,2.1310501098632812,-9.502950668334961,2.2350001335144043
1772389381399149300,7.0621494140625,2.281949996948242,-9.502950668334961,2.190000057220459
1772389381419206100,7.0822060546875,2.422950029373169,-9.541950225830078,2.1510000228881836
1772389381439263200,7.10226318359375,2.221950054168701,-9.553950309753418,2.158950090408325
1772389381459320000,7.122320068359375,2.0809500217437744,-9.535050392150879,2.2159500122070312
1772389381479377200,7.142377197265625,2.241000175476074,-9.520050048828125,2.2300500869750977
1772389381499434000,7.16243408203125,2.284050226211548,-9.496050834655762,2.2110002040863037
1772389381519491000,7.182490966796875,2.244000196456909,-9.46500015258789,2.2420501708984375
1772389381539548000,7.2025478515625,2.3179500102996826,-9.457950592041016,2.278050184249878
1772389381559605200,7.222605224609375,2.335050106048584,-9.53700065612793,2.2950000762939453
1772389381579662000,7.242662109375,2.4090001583099365,-9.5110502243042,2.25
1772389381599719200,7.26271923828125,2.502000093460083,-9.508050918579102,2.2330501079559326
1772389381619776000,7.28277587890625,2.3560500144958496,-9.52695083618164,2.209050178527832
1772389381639833000,7.3028330078125,2.0929501056671143,-9.54900074005127,2.190000057220459
1772389381659890200,7.32289013671875,2.11395001411438,-9.53700065612793,2.197050094604492
1772389381679947300,7.342947265625,2.281949996948242,-9.49905014038086,2.2330501079559326
1772389381700004000,7.363004150390625,2.272050142288208,-9.52500057220459,2.259000062942505
1772389381720061000,7.38306103515625,2.2270500659942627,-9.505950927734375,2.2300500869750977
1772389381740118300,7.4031181640625,2.323050022125244,-9.493950843811035,2.227950096130371
1772389381760175000,7.423175048828125,2.3389501571655273,-9.52500057220459,2.299950122833252
1772389381780232200,7.443232177734375,2.284050226211548,-9.53700065612793,2.2980000972747803
1772389381800289000,7.4632890625,2.2579500675201416,-9.47700023651123,2.227950096130371
1772389381820346400,7.483346435546875,2.215050220489502,-9.48900032043457,2.2159500122070312
1772389381840403200,7.5034033203125,2.193000078201294,-9.502950668334961,2.2300500869750977
1772389381860460300,7.523460205078125,2.2789502143859863,-9.493950843811035,2.2230000495910645
1772389381880517000,7.54351708984375,2.385000228881836,-9.51300048828125,2.158950090408325
1772389381900574200,7.56357421875,2.3580000400543213,-9.48900032043457,2.1060001850128174
1772389381920631000,7.583631103515625,2.2360501289367676,-9.5110502243042,2.2710001468658447
1772389381940688100,7.603688232421875,2.365950107574463,-9.457950592041016,2.2639501094818115
1772389381960745000,7.623744873046875,2.422950029373169,-9.490950584411621,2.247000217437744
1772389381980802000,7.643802001953125,2.2699501514434814,-9.508050918579102,2.26200008392334
1772389382000859100,7.663859130859375,2.143050193786621,-9.5149507522583,2.182950019836426
1772389382020916000,7.683916015625,2.164950132369995,-9.547050476074219,2.218050003051758
1772389382040973000,7.70397314453125,2.302950143814087,-9.468000411987305,2.329050064086914
1772389382061030000,7.72402978515625,2.4400501251220703,-9.445950508117676,2.311950206756592
1772389382081087000,7.7440869140625,2.505000114440918,-9.53895092010498,2.2260000705718994
1772389382101144000,7.76414404296875,2.164950132369995,-9.56100082397461,2.1630001068115234
1772389382121201000,7.784200927734375,2.0659501552581787,-9.469950675964355,2.2860000133514404
1772389382141258000,7.804258056640625,2.263050079345703,-9.448050498962402,2.287950038909912
1772389382161314800,7.824314697265625,2.4660000801086426,-9.520050048828125,2.2759501934051514
1772389382181372000,7.844371826171875,2.3940000534057617,-9.5110502243042,2.266050100326538
1772389382201428700,7.8644287109375,2.253000020980835,-9.54900074005127,2.199000120162964
1772389382221485800,7.88448583984375,2.1979501247406006,-9.49905014038086,2.2110002040863037
1772389382241542700,7.904542724609375,2.2510499954223633,-9.502950668334961,2.3209500312805176
1772389382261599700,7.924599853515625,2.3010001182556152,-9.427050590515137,2.3020501136779785
1772389382281656800,7.94465673828125,2.434950113296509,-9.448050498962402,2.2900500297546387
1772389382301713700,7.964713623046875,2.449050188064575,-9.475050926208496,2.2639501094818115
1772389382321770800,7.984770751953125,2.313000202178955,-9.439050674438477,2.247000217437744
1772389382341827600,8.00482763671875,2.2240500450134277,-9.480000495910645,2.2829999923706055
1772389382361884700,8.024884765625,2.1889500617980957,-9.529950141906738,2.170950174331665
1772389382381941800,8.044941650390625,2.1910500526428223,-9.529950141906738,2.137050151824951
1772389382401998600,8.06499853515625,2.245950222015381,-9.484050750732422,2.218050003051758
1772389382422055700,8.0850556640625,2.347050189971924,-9.52695083618164,2.25
1772389382442112500,8.105112548828124,2.370000123977661,-9.52695083618164,2.2540500164031982
1772389382462169900,8.125169921875,2.382000207901001,-9.508050918579102,2.3170502185821533
1772389382482226700,8.145226806640625,2.3899500370025635,-9.496050834655762,2.4000000953674316
1772389382502283800,8.16528369140625,2.3899500370025635,-9.48705005645752,2.386050224304199
1772389382522340600,8.185340576171875,2.275050163269043,-9.48900032043457,2.287950038909912
1772389382542397700,8.205397705078125,2.16195011138916,-9.472050666809082,2.3550000190734863
1772389382562454800,8.225454833984376,2.3269500732421875,-9.50100040435791,2.4120001792907715
1772389382582511600,8.24551171875,2.347050189971924,-9.47700023651123,2.326050043106079
1772389382602568700,8.265568603515625,2.180999994277954,-9.520050048828125,2.2519500255584717
1772389382622625500,8.28562548828125,2.133000135421753,-9.502950668334961,2.2450501918792725
1772389382642682400,8.305682373046874,2.3610000610351562,-9.490950584411621,2.239950180053711
1772389382662739500,8.325739501953125,2.4780001640319824,-9.505950927734375,2.319000005722046
1772389382682796500,8.345796630859375,2.3560500144958496,-9.429000854492188,2.287950038909912
1772389382702853400,8.365853271484376,2.265000104904175,-9.432000160217285,2.299950122833252
1772389382722910500,8.385910400390625,2.365950107574463,-9.48705005645752,2.3209500312805176
1772389382742967300,8.40596728515625,2.4880502223968506,-9.46500015258789,2.2740001678466797
1772389382763024400,8.4260244140625,2.362950086593628,-9.48705005645752,2.3550000190734863
1772389382783081200,8.446081298828124,2.2770001888275146,-9.409950256347656,2.3650500774383545
1772389382803138300,8.46613818359375,2.325000047683716,-9.48900032043457,2.2930500507354736
1772389382823195400,8.4861953125,2.244000196456909,-9.565950393676758,2.202000141143799
1772389382843252200,8.506252197265624,2.180999994277954,-9.490950584411621,2.2540500164031982
1772389382863309300,8.526309326171875,2.332050085067749,-9.439050674438477,2.3170502185821533
1772389382883366100,8.5463662109375,2.3869500160217285,-9.481950759887695,2.367000102996826
1772389382903423000,8.566423095703126,2.3580000400543213,-9.445950508117676,2.4600000381469727
1772389382923480300,8.586480224609375,2.3970000743865967,-9.451050758361816,2.436000108718872
1772389382943537200,8.606537109375,2.3560500144958496,-9.448050498962402,2.367000102996826
1772389382963594000,8.626593994140626,2.2890000343322754,-9.50100040435791,2.356950044631958
1772389382983651000,8.646651123046874,2.4379501342773438,-9.48900032043457,2.278050184249878
1772389383003708200,8.666708251953125,2.4760501384735107,-9.502950668334961,2.2380001544952393
1772389383023765000,8.686764892578125,2.2200000286102295,-9.46500015258789,2.3050501346588135
1772389383043822000,8.706822021484374,2.25600004196167,-9.472050666809082,2.356950044631958
1772389383063879000,8.72687890625,2.454000234603882,-9.439050674438477,2.269050121307373
1772389383083936000,8.74693603515625,2.3680500984191895,-9.46500015258789,2.307000160217285
1772389383103992800,8.766992919921876,2.3269500732421875,-9.429000854492188,2.3550000190734863
1772389383124050000,8.7870498046875,2.3560500144958496,-9.493950843811035,2.299950122833252
1772389383144106800,8.807106689453125,2.3779501914978027,-9.469950675964355,2.3329501152038574
1772389383164163600,8.82716357421875,2.370000123977661,-9.444000244140625,2.3530499935150146
1772389383184220700,8.847220703125,2.3800501823425293,-9.496050834655762,2.3430001735687256
1772389383204277800,8.86727783203125,2.325000047683716,-9.475050926208496,2.2540500164031982
1772389383224334800,8.8873349609375,2.2099502086639404,-9.490950584411621,2.259000062942505
1772389383244391700,8.9073916015625,2.1979501247406006,-9.475050926208496,2.3310000896453857
1772389383264448800,8.92744873046875,2.433000087738037,-9.405000686645508,2.4030001163482666
1772389383284505600,8.947505615234375,2.593050241470337,-9.429000854492188,2.319000005722046
1772389383304562400,8.9675625,2.4280500411987305,-9.475050926208496,2.2900500297546387
1772389383324619500,8.98761962890625,2.281949996948242,-9.463050842285156,2.3170502185821533
1772389383344676600,9.007676513671875,2.3989500999450684,-9.45300006866455,2.3359501361846924
1772389383364733400,9.0277333984375,2.413950204849243,-9.463050842285156,2.3170502185821533
1772389383384790500,9.04779052734375,2.290950059890747,-9.49905014038086,2.3140501976013184
1772389383404847400,9.067847412109375,2.40405011177063,-9.484050750732422,2.3050501346588135
1772389383424904200,9.087904296875,2.4060001373291016,-9.484050750732422,2.2260000705718994
1772389383444961300,9.107961181640626,2.2870500087738037,-9.493950843811035,2.2950000762939453
1772389383465018000,9.12801806640625,2.332050085067749,-9.415050506591797,2.3479502201080322
1772389383485075200,9.1480751953125,2.4090001583099365,-9.451050758361816,2.3740501403808594
1772389383505132000,9.168132080078125,2.335050106048584,-9.496050834655762,2.326050043106079
1772389383525188900,9.18818896484375,2.3110501766204834,-9.481950759887695,2.2980000972747803
1772389383545246200,9.20824609375,2.4379501342773438,-9.456000328063965,2.3050501346588135
1772389383565303000,9.228302978515625,2.3419501781463623,-9.484050750732422,2.2930500507354736
1772389383585360000,9.24835986328125,2.2320001125335693,-9.463050842285156,2.3050501346588135
1772389383605417000,9.2684169921875,2.445000171661377,-9.463050842285156,2.2069501876831055
1772389383625473800,9.288473876953125,2.4880502223968506,-9.456000328063965,2.2230000495910645
1772389383645531000,9.30853076171875,2.2579500675201416,-9.456000328063965,2.3449501991271973
1772389383665587700,9.328587646484374,2.1670501232147217,-9.40095043182373,2.2759501934051514
1772389383685644500,9.34864453125,2.244000196456909,-9.457950592041016,2.182950019836426
1772389383705701600,9.36870166015625,2.2990500926971436,-9.523050308227539,2.2210500240325928
1772389383725758500,9.388758544921876,2.385000228881836,-9.496050834655762,2.367000102996826
1772389383745815300,9.408815185546874,2.562000036239624,-9.496050834655762,2.3550000190734863
1772389383765872600,9.42887255859375,2.4880502223968506,-9.532050132751465,2.299950122833252
1772389383785929500,9.448929443359376,2.3080501556396484,-9.56100082397461,2.2860000133514404
1772389383805986600,9.468986572265624,2.2170000076293945,-9.53895092010498,2.3650500774383545
1772389383826043400,9.48904345703125,2.2099502086639404,-9.46500015258789,2.439000129699707
1772389383846100200,9.509100341796875,2.4060001373291016,-9.445950508117676,2.3809502124786377
1772389383866157300,9.5291572265625,2.5360500812530518,-9.451050758361816,2.338050127029419
1772389383886214100,9.549214111328125,2.493000030517578,-9.48705005645752,2.307000160217285
1772389383906271200,9.569271240234375,2.323050022125244,-9.48705005645752,2.2829999923706055
1772389383926328000,9.589328125,2.3779501914978027,-9.420000076293945,2.2330501079559326
1772389383946385200,9.60938525390625,2.370000123977661,-9.47700023651123,2.1780002117156982
1772389383966442000,9.62944189453125,2.121000051498413,-9.493950843811035,2.1780002117156982
1772389383986498800,9.649498779296875,2.155050039291382,-9.46500015258789,2.1630001068115234
1772389384006556000,9.669555908203124,2.4180002212524414,-9.544050216674805,2.118000030517578
1772389384026613000,9.689613037109375,2.3389501571655273,-9.547050476074219,2.2639501094818115
1772389384046669800,9.709669921875,2.1600000858306885,-9.436050415039062,2.4630000591278076
1772389384066726700,9.7297265625,2.290950059890747,-9.436050415039062,2.448000192642212
1772389384086783700,9.74978369140625,2.3010001182556152,-9.493950843811035,2.278050184249878
1772389384106840600,9.769840576171875,2.2960500717163086,-9.547050476074219,2.2950000762939453
1772389384126897400,9.7898974609375,2.3179500102996826,-9.481950759887695,2.359950065612793
1772389384146954500,9.80995458984375,2.25600004196167,-9.48900032043457,2.386050224304199
1772389384167011300,9.83001123046875,2.284050226211548,-9.47700023651123,2.359950065612793
1772389384187068200,9.850068115234375,2.373000144958496,-9.51300048828125,2.281050205230713
1772389384207125200,9.870125244140626,2.3800501823425293,-9.529950141906738,2.158950090408325
1772389384227182000,9.89018212890625,2.3080501556396484,-9.472050666809082,2.2039501667022705
1772389384247239000,9.910239013671875,2.3179500102996826,-9.475050926208496,2.2740001678466797
1772389384267296000,9.9302958984375,2.3110501766204834,-9.46500015258789,2.2759501934051514
1772389384287352800,9.950352783203124,2.3269500732421875,-9.484050750732422,2.307000160217285
1772389384307410000,9.970409912109375,2.3179500102996826,-9.46500015258789,2.338050127029419
1772389384327466800,9.990466796875,2.313000202178955,-9.445950508117676,2.3310000896453857
1772389384347523800,10.01052392578125,2.3560500144958496,-9.51300048828125,2.2900500297546387
1772389384367580700,10.03058056640625,2.212050199508667,-9.550950050354004,2.2330501079559326
1772389384387637500,10.050637451171875,2.133000135421753,-9.48705005645752,2.3170502185821533
1772389384407694300,10.0706943359375,2.2870500087738037,-9.469950675964355,2.308950185775757
1772389384427751400,10.09075146484375,2.430000066757202,-9.46500015258789,2.3209500312805176
1772389384447808500,10.11080859375,2.4090001583099365,-9.440999984741211,2.3910000324249268
1772389384467865300,10.130865234375,2.410950183868408,-9.48705005645752,2.3530499935150146
1772389384487922400,10.15092236328125,2.325000047683716,-9.48705005645752,2.2900500297546387
1772389384507979300,10.170979248046875,2.3010001182556152,-9.469950675964355,2.259000062942505
1772389384528036400,10.191036376953125,2.313000202178955,-9.46500015258789,2.25
1772389384548093200,10.21109326171875,2.3749501705169678,-9.46500015258789,2.2159500122070312
1772389384568150000,10.23114990234375,2.4060001373291016,-9.5110502243042,2.2210500240325928
1772389384588207000,10.25120703125,2.350950002670288,-9.47700023651123,2.269050121307373
1772389384608264000,10.271263916015625,2.3749501705169678,-9.469950675964355,2.2980000972747803
1772389384628321000,10.291321044921874,2.2770001888275146,-9.480000495910645,2.2639501094818115
1772389384648377900,10.3113779296875,2.313000202178955,-9.48900032043457,2.3170502185821533
1772389384668435000,10.33143505859375,2.3779501914978027,-9.49905014038086,2.2950000762939453
1772389384688491800,10.35149169921875,2.3370001316070557,-9.49905014038086,2.3359501361846924
1772389384708548600,10.371548583984374,2.3110501766204834,-9.47700023651123,2.3329501152038574
1772389384728605700,10.391605712890625,2.2390501499176025,-9.523050308227539,2.2639501094818115
1772389384748662500,10.41166259765625,2.2170000076293945,-9.469950675964355,2.257050037384033
1772389384768719600,10.4317197265625,2.3010001182556152,-9.47700023651123,2.257050037384033
1772389384788776400,10.4517763671875,2.281949996948242,-9.529950141906738,2.2139999866485596
1772389384808833300,10.471833251953125,2.3389501571655273,-9.46500015258789,2.259000062942505
1772389384828890400,10.491890380859376,2.464050054550171,-9.463050842285156,2.2930500507354736
1772389384848947200,10.511947265625,2.4760501384735107,-9.502950668334961,2.199000120162964
1772389384869004000,10.532004150390625,2.584050178527832,-9.582000732421875,1.9930500984191895
1772389384889061000,10.55206103515625,2.514000177383423,-9.57300090789795,2.110949993133545
1772389384909118000,10.572117919921874,2.425950050354004,-9.336000442504883,2.5420501232147217
1772389384929174800,10.5921748046875,2.0590500831604004,-9.336000442504883,2.6539502143859863
1772389384949231900,10.61223193359375,2.464050054550171,-9.463050842285156,2.451000213623047
1772389384969288700,10.632288818359376,2.6580002307891846,-9.714000701904297,2.0530500411987305
1772389384989345500,10.652345458984374,2.344050168991089,-9.589950561523438,1.9530000686645508
1772389385009402400,10.67240234375,2.205000162124634,-9.337950706481934,2.2420501708984375
