time,seconds_elapsed,z,y,x
1772389443918233000,0.253233154296875,2.212050199508667,-9.673050880432129,2.308950185775757
1772389443998559700,0.333559814453125,1.2790501117706299,-9.784050941467285,2.1130499839782715
1772389444018616300,0.3536162109375,1.360050082206726,-9.654000282287598,2.050950050354004
1772389444038673000,0.3736728515625,1.53000009059906,-9.669000625610352,2.009999990463257
1772389444058729500,0.3937294921875,1.7500500679016113,-9.673050880432129,2.0050501823425293
1772389444078786000,0.4137861328125,1.7809500694274902,-9.714000701904297,2.0460000038146973
1772389444098843000,0.4338427734375,1.516050100326538,-9.597000122070312,2.0340001583099365
1772389444118899500,0.4538994140625,1.3120501041412354,-9.646950721740723,1.8979500532150269
1772389444138956000,0.4739560546875,1.5180001258850098,-9.697050094604492,1.9579501152038574
1772389444159012600,0.4940126953125,1.8769501447677612,-9.606000900268555,1.9810501337051392
1772389444179069400,0.5140693359375,2.086050033569336,-9.645000457763672,2.0869500637054443
1772389444199126000,0.5341259765625,1.9609501361846924,-9.721050262451172,2.07705020904541
1772389444219182600,0.5541826171875,1.7020500898361206,-9.685050010681152,1.9669500589370728
1772389444239239200,0.5742392578125,1.576050043106079,-9.694950103759766,2.1250500679016113
1772389444259295700,0.594295654296875,1.6260000467300415,-9.634950637817383,2.1540000438690186
1772389444279352300,0.614352294921875,1.4989501237869263,-9.669000625610352,2.1850500106811523
1772389444299409000,0.634408935546875,1.4700000286102295,-9.625950813293457,1.9810501337051392
1772389444319465500,0.654465576171875,1.5250500440597534,-9.700050354003906,1.9120501279830933
1772389444339522300,0.674522216796875,1.4080500602722168,-9.666000366210938,2.009999990463257
1772389444359579000,0.694578857421875,1.5250500440597534,-9.705000877380371,2.0029501914978027
1772389444379635500,0.714635498046875,1.8079501390457153,-9.630000114440918,1.8229501247406006
1772389444399692000,0.734692138671875,1.8990000486373901,-9.706950187683105,2.009999990463257
1772389444419748600,0.75474853515625,1.927950143814087,-9.642000198364258,2.1750001907348633
1772389444439805200,0.77480517578125,1.6470000743865967,-9.582000732421875,2.110949993133545
1772389444459861800,0.79486181640625,1.5640500783920288,-9.693000793457031,2.269050121307373
1772389444479918300,0.81491845703125,1.8889501094818115,-9.634950637817383,2.25
1772389444499975000,0.834974853515625,1.815000057220459,-9.681000709533691,2.1160500049591064
1772389444520031700,0.85503173828125,1.6350001096725464,-9.77400016784668,2.1660001277923584
1772389444540088300,0.87508837890625,1.645050048828125,-9.718950271606445,2.190000057220459
1772389444560145000,0.895144775390625,1.5319501161575317,-9.628050804138184,2.0530500411987305
1772389444580201500,0.915201416015625,1.2550500631332397,-9.697050094604492,2.0629501342773438
1772389444600258000,0.935258056640625,1.276050090789795,-9.666000366210938,2.0680501461029053
1772389444620315000,0.95531494140625,1.699950098991394,-9.652050018310547,2.2230000495910645
1772389444640371500,0.975371337890625,1.927950143814087,-9.616050720214844,2.142000198364258
1772389444660428000,0.995427978515625,1.6519501209259033,-9.669000625610352,2.080049991607666
1772389444680484600,1.015484619140625,1.5090000629425049,-9.616050720214844,2.1250500679016113
1772389444700541200,1.035541259765625,1.699950098991394,-9.53895092010498,2.1630001068115234
1772389444720597800,1.05559765625,1.9300501346588135,-9.589950561523438,2.158950090408325
1772389444740654600,1.075654541015625,1.968000054359436,-9.598950386047363,2.1540000438690186
1772389444760711200,1.095711181640625,1.9060500860214233,-9.702000617980957,2.0839500427246094
1772389444780767700,1.115767822265625,1.828950047492981,-9.574950218200684,1.9260001182556152
1772389444800824300,1.13582421875,1.4820001125335693,-9.586950302124023,1.9930500984191895
1772389444820881000,1.155880859375,1.3650000095367432,-9.601950645446777,2.1919500827789307
1772389444840937700,1.175937744140625,1.4440500736236572,-9.664050102233887,2.149049997329712
1772389444860994000,1.195994140625,1.5520501136779785,-9.642000198364258,2.089050054550171
1772389444881051000,1.21605078125,1.7119500637054443,-9.726000785827637,2.1469500064849854
1772389444901107500,1.236107421875,1.7530500888824463,-9.574950218200684,2.1349501609802246
1772389444921164000,1.2561640625,1.5919500589370728,-9.56100082397461,2.058000087738037
1772389444941220400,1.276220458984375,1.6140000820159912,-9.598950386047363,2.1660001277923584
1772389444961277000,1.29627685546875,1.8720000982284546,-9.559050559997559,2.26200008392334
1772389444981333800,1.316333740234375,1.8769501447677612,-9.586950302124023,2.2159500122070312
1772389445001390600,1.336390625,1.746000051498413,-9.705000877380371,2.0940001010894775
1772389445021447000,1.356447021484375,1.7959500551223755,-9.739950180053711,1.9860000610351562
1772389445041503500,1.37650341796875,1.8030000925064087,-9.705000877380371,2.1610500812530518
1772389445061560000,1.39656005859375,1.8490500450134277,-9.724050521850586,2.170950174331665
1772389445081616600,1.41661669921875,1.645050048828125,-9.640050888061523,2.0340001583099365
1772389445101673200,1.436673095703125,1.4580000638961792,-9.609000205993652,2.0340001583099365
1772389445121729800,1.456729736328125,1.6740000247955322,-9.666000366210938,2.0530500411987305
1772389445141786600,1.47678662109375,1.8030000925064087,-9.673050880432129,2.0940001010894775
1772389445161843200,1.49684326171875,2.004000186920166,-9.637950897216797,2.0680501461029053
1772389445181899800,1.516899658203125,2.007000207901001,-9.694950103759766,1.9549500942230225
1772389445201956400,1.536956298828125,1.7020500898361206,-9.702000617980957,2.0490000247955322
1772389445222013000,1.557012939453125,1.6980000734329224,-9.604050636291504,2.2900500297546387
1772389445242069500,1.577069580078125,2.0350501537323,-9.550950050354004,2.2039501667022705
1772389445262126000,1.5971259765625,1.951050043106079,-9.726000785827637,2.0749499797821045
1772389445282183000,1.617182861328125,1.8919501304626465,-9.748050689697266,2.1439499855041504
1772389445302239500,1.637239501953125,2.1379501819610596,-9.661050796508789,2.0050501823425293
1772389445322296000,1.657296142578125,1.8649500608444214,-9.609000205993652,1.8709501028060913
1772389445342352600,1.6773525390625,1.297950029373169,-9.640050888061523,2.098950147628784
1772389445362409200,1.6974091796875,1.1179500818252563,-9.565950393676758,2.199000120162964
1772389445382465800,1.7174658203125,1.5040500164031982,-9.544050216674805,2.209050178527832
1772389445402522600,1.737522705078125,1.954050064086914,-9.640050888061523,2.050950050354004
1772389445422579000,1.757578857421875,1.924950122833252,-9.634950637817383,2.0370001792907715
1772389445442635800,1.7776357421875,1.870050072669983,-9.565950393676758,2.1250500679016113
1772389445462692400,1.7976923828125,1.9750500917434692,-9.568050384521484,2.107950210571289
1772389445482749000,1.8177490234375,1.9200000762939453,-9.633000373840332,2.110949993133545
1772389445502805500,1.837805419921875,1.9369500875473022,-9.571050643920898,2.2900500297546387
1772389445522862000,1.857862060546875,1.9920001029968262,-9.448050498962402,2.2139999866485596
1772389445542918700,1.877918701171875,1.6980000734329224,-9.577950477600098,1.9549500942230225
1772389445562975200,1.897975341796875,1.5229500532150269,-9.646950721740723,1.998000144958496
1772389445583032000,1.918031982421875,1.801050066947937,-9.637950897216797,2.1559500694274902
1772389445603088600,1.938088623046875,2.074050188064575,-9.580050468444824,2.1160500049591064
1772389445623145200,1.958145263671875,2.0190000534057617,-9.661050796508789,1.974000096321106
1772389445643201800,1.978201904296875,1.9060500860214233,-9.681000709533691,2.07705020904541
1772389445663258400,1.99825830078125,2.0190000534057617,-9.64995002746582,2.2350001335144043
1772389445683315000,2.01831494140625,2.056950092315674,-9.609000205993652,2.2930500507354736
1772389445703371500,2.03837158203125,1.8960001468658447,-9.618000030517578,2.2350001335144043
1772389445723428000,2.058427978515625,1.8630000352859497,-9.625950813293457,2.02905011177063
1772389445743485000,2.07848486328125,1.8960001468658447,-9.661050796508789,2.0490000247955322
1772389445763541200,2.098541259765625,2.0020501613616943,-9.601950645446777,2.1780002117156982
1772389445783597800,2.118597900390625,2.0350501537323,-9.544050216674805,2.2139999866485596
1772389445803654700,2.138654541015625,1.7959500551223755,-9.592050552368164,2.1060001850128174
1772389445823711200,2.158711181640625,1.602000117301941,-9.622950553894043,2.0719501972198486
1772389445843767800,2.178767822265625,1.7220001220703125,-9.580050468444824,2.0629501342773438
1772389445863824400,2.198824462890625,1.8510000705718994,-9.634950637817383,2.0370001792907715
1772389445883881000,2.218880859375,1.971000075340271,-9.742950439453125,2.11995005607605
1772389445903937500,2.2389375,1.968000054359436,-9.630000114440918,2.149049997329712
1772389445923994000,2.258994140625,1.8270001411437988,-9.646950721740723,2.299950122833252
1772389445944051000,2.279051025390625,1.8250501155853271,-9.582000732421875,2.341050148010254
1772389445964107500,2.299107421875,2.0350501537323,-9.544050216674805,2.2350001335144043
1772389445984164000,2.3191640625,2.052000045776367,-9.577950477600098,2.1750001907348633
1772389446004220700,2.339220703125,1.984950065612793,-9.562950134277344,2.2829999923706055
1772389446024277200,2.35927734375,2.0470499992370605,-9.52500057220459,2.1130499839782715
1772389446044333800,2.379333740234375,1.831950068473816,-9.64995002746582,1.9620001316070557
1772389446064390400,2.399390380859375,1.603950023651123,-9.592050552368164,2.0749499797821045
1772389446084447000,2.419447021484375,1.8960001468658447,-9.565950393676758,1.998000144958496
1772389446104503600,2.439503662109375,2.086050033569336,-9.616050720214844,2.0029501914978027
1772389446124560100,2.45956005859375,2.026050090789795,-9.613950729370117,2.1130499839782715
1772389446144616700,2.47961669921875,2.0689501762390137,-9.53700065612793,2.070000171661377
1772389446164673500,2.499673583984375,2.056950092315674,-9.577950477600098,2.095950126647949
1772389446184729900,2.519729736328125,1.9489500522613525,-9.592050552368164,2.16795015335083
1772389446204786700,2.53978662109375,1.9039500951766968,-9.562950134277344,2.1439499855041504
1772389446224843300,2.55984326171875,1.951050043106079,-9.613950729370117,2.1040501594543457
1772389446244899800,2.57989990234375,1.9320000410079956,-9.589950561523438,2.1850500106811523
1772389446264956400,2.599956298828125,1.8919501304626465,-9.586950302124023,2.190000057220459
1772389446285013000,2.620012939453125,1.8439500331878662,-9.610950469970703,2.319000005722046
1772389446305069600,2.640069580078125,1.9800001382827759,-9.610950469970703,2.209050178527832
1772389446325126400,2.66012646484375,1.9399501085281372,-9.637950897216797,2.009999990463257
1772389446345182700,2.6801826171875,2.0020501613616943,-9.666000366210938,2.11995005607605
1772389446365239300,2.7002392578125,2.16195011138916,-9.550950050354004,2.247000217437744
1772389446385296000,2.7202958984375,1.9969501495361328,-9.559050559997559,2.1349501609802246
1772389446405352400,2.7403525390625,1.7910001277923584,-9.670950889587402,2.0440499782562256
1772389446425409000,2.760408935546875,1.8510000705718994,-9.592050552368164,2.1010501384735107
1772389446445465600,2.780465576171875,1.9200000762939453,-9.562950134277344,2.07705020904541
1772389446465522200,2.800522216796875,1.894050121307373,-9.598950386047363,2.0749499797821045
1772389446485578800,2.820578857421875,1.9990501403808594,-9.502950668334961,2.190000057220459
1772389446505635000,2.840635009765625,2.2680001258850098,-9.51300048828125,2.1780002117156982
1772389446525691600,2.860691650390625,2.193000078201294,-9.724050521850586,2.137050151824951
1772389446545748200,2.880748291015625,1.9300501346588135,-9.633000373840332,2.0340001583099365
1772389446565804800,2.9008046875,1.6519501209259033,-9.550950050354004,2.0839500427246094
1772389446585861400,2.920861328125,1.6000500917434692,-9.559050559997559,2.227950096130371
1772389446605918000,2.94091796875,1.801050066947937,-9.550950050354004,2.2829999923706055
1772389446625974800,2.960974853515625,2.116950035095215,-9.609000205993652,2.1469500064849854
1772389446646031400,2.98103125,2.2480502128601074,-9.621000289916992,2.032050132751465
1772389446666088000,3.001087890625,2.1979501247406006,-9.568050384521484,2.1630001068115234
1772389446686144500,3.02114453125,2.11395001411438,-9.571050643920898,2.239950180053711
1772389446706201000,3.041201171875,2.1289501190185547,-9.589950561523438,2.1439499855041504
1772389446726257700,3.061257568359375,2.0350501537323,-9.613950729370117,1.990950107574463
1772389446746314200,3.081314208984375,1.8220500946044922,-9.610950469970703,2.092050075531006
1772389446766370800,3.101370849609375,1.9320000410079956,-9.505950927734375,2.2380001544952393
1772389446786427400,3.121427490234375,2.1090002059936523,-9.56100082397461,2.2420501708984375
1772389446806484000,3.14148388671875,2.052000045776367,-9.634950637817383,2.1630001068115234
1772389446826540500,3.16154052734375,2.0209500789642334,-9.562950134277344,2.139000177383423
1772389446846596900,3.181596923828125,2.0350501537323,-9.622950553894043,2.149049997329712
1772389446866653700,3.20165380859375,1.915950059890747,-9.601950645446777,2.1469500064849854
1772389446886710300,3.221710205078125,1.954050064086914,-9.586950302124023,2.2540500164031982
1772389446906766800,3.241766845703125,2.1090002059936523,-9.5149507522583,2.2230000495910645
1772389446926823400,3.261823486328125,1.9990501403808594,-9.609000205993652,2.0839500427246094
1772389446946880000,3.2818798828125,1.8919501304626465,-9.586950302124023,1.9500000476837158
1772389446966936600,3.3019365234375,1.9039500951766968,-9.613950729370117,2.092050075531006
1772389446986993200,3.3219931640625,1.9350000619888306,-9.585000038146973,2.2639501094818115
1772389447007049500,3.342049560546875,2.1529500484466553,-9.529950141906738,2.2330501079559326
1772389447027106300,3.362106201171875,2.245950222015381,-9.56100082397461,2.0370001792907715
1772389447047163000,3.382162841796875,1.9950001239776611,-9.637950897216797,2.118000030517578
1772389447067219500,3.402219482421875,1.9180500507354736,-9.556050300598145,2.1730501651763916
1772389447087276000,3.422276123046875,2.0590500831604004,-9.532050132751465,2.1130499839782715
1772389447107332600,3.44233251953125,2.1480000019073486,-9.589950561523438,2.239950180053711
1772389447127389200,3.46238916015625,2.1670501232147217,-9.52695083618164,2.170950174331665
1772389447147445800,3.48244580078125,2.1289501190185547,-9.640050888061523,2.0560500621795654
1772389447167502300,3.50250244140625,2.0590500831604004,-9.625950813293457,2.1660001277923584
1772389447187559000,3.522558837890625,2.1790502071380615,-9.50100040435791,2.1510000228881836
1772389447207615500,3.542615478515625,2.196000099182129,-9.53700065612793,2.0560500621795654
1772389447227672000,3.562672119140625,2.0380501747131348,-9.553950309753418,2.2900500297546387
1772389447247728600,3.582728759765625,2.1310501098632812,-9.463050842285156,2.3239500522613525
1772389447267785200,3.60278515625,2.095050096511841,-9.589950561523438,2.1610500812530518
1772389447287841800,3.622841796875,1.9609501361846924,-9.586950302124023,2.110949993133545
1772389447307898000,3.642898193359375,2.2870500087738037,-9.547050476074219,2.1610500812530518
1772389447327954700,3.66295458984375,2.3680500984191895,-9.565950393676758,2.1540000438690186
1772389447348011300,3.68301123046875,1.9300501346588135,-9.589950561523438,2.1850500106811523
1772389447368068000,3.703068115234375,1.6260000467300415,-9.468000411987305,2.202000141143799
1772389447388124400,3.72312451171875,1.8079501390457153,-9.505950927734375,2.16795015335083
1772389447408181000,3.743180908203125,1.951050043106079,-9.64995002746582,2.1660001277923584
1772389447428237600,3.763237548828125,2.083050012588501,-9.568050384521484,2.199000120162964
1772389447448294100,3.783294189453125,2.370000123977661,-9.508050918579102,2.059950113296509
1772389447468350700,3.803350830078125,2.370000123977661,-9.654000282287598,2.0530500411987305
1772389447488407300,3.8234072265625,2.0299501419067383,-9.52500057220459,2.2110002040863037
1772389447508463900,3.8434638671875,1.9060500860214233,-9.469950675964355,2.2519500255584717
1772389447528520400,3.8635205078125,1.8030000925064087,-9.562950134277344,2.2980000972747803
1772389447548577000,3.883576904296875,2.083050012588501,-9.508050918579102,2.202000141143799
1772389447568633300,3.90363330078125,2.442000150680542,-9.481950759887695,2.139000177383423
1772389447588690000,3.92368994140625,2.524050235748291,-9.565950393676758,2.266050100326538
1772389447608746800,3.943746826171875,2.373000144958496,-9.535050392150879,2.2759501934051514
1772389447628803000,3.963802978515625,2.104950189590454,-9.550950050354004,2.2110002040863037
1772389447648860000,3.98385986328125,2.0809500217437744,-9.618000030517578,2.1559500694274902
1772389447668916500,4.00391650390625,2.2360501289367676,-9.594000816345215,2.139000177383423
1772389447688972800,4.023972900390625,2.1529500484466553,-9.508050918579102,2.098950147628784
1772389447709029400,4.044029296875,1.9350000619888306,-9.547050476074219,2.269050121307373
1772389447729086000,4.0640859375,1.9950001239776611,-9.451050758361816,2.311950206756592
1772389447749142800,4.084142822265625,2.305950164794922,-9.444000244140625,2.2069501876831055
1772389447769199000,4.10419921875,2.422950029373169,-9.577950477600098,2.013000011444092
1772389447789255700,4.124255615234375,2.253000020980835,-9.577950477600098,2.020050048828125
1772389447809312300,4.144312255859375,2.164950132369995,-9.493950843811035,2.1730501651763916
1772389447829368800,4.164368896484375,2.212050199508667,-9.49905014038086,2.2540500164031982
1772389447849425400,4.18442529296875,2.133000135421753,-9.52695083618164,2.1919500827789307
1772389447869482000,4.20448193359375,2.0500500202178955,-9.550950050354004,2.098950147628784
1772389447889538600,4.22453857421875,2.1600000858306885,-9.502950668334961,2.0560500621795654
1772389447909595100,4.24459521484375,2.121000051498413,-9.51300048828125,2.2159500122070312
1772389447929651700,4.264651611328125,1.8820500373840332,-9.5149507522583,2.2519500255584717
1772389447949708300,4.284708251953125,2.098050117492676,-9.529950141906738,2.2330501079559326
1772389447969764900,4.304764892578125,2.473050117492676,-9.580050468444824,2.137050151824951
1772389447989821400,4.324821533203125,2.509050130844116,-9.594000816345215,2.182950019836426
1772389448009877800,4.344877685546875,2.353950023651123,-9.544050216674805,2.1229500770568848
1772389448029934300,4.364934326171875,2.1000001430511475,-9.56100082397461,2.209050178527832
1772389448049991000,4.384990966796875,2.0929501056671143,-9.559050559997559,2.2420501708984375
1772389448070047500,4.405047607421875,2.3940000534057617,-9.517950057983398,2.1130499839782715
1772389448090104300,4.425104248046875,2.3970000743865967,-9.550950050354004,2.0490000247955322
1772389448110160600,4.44516064453125,2.1409502029418945,-9.544050216674805,2.1610500812530518
1772389448130217200,4.46521728515625,2.0209500789642334,-9.484050750732422,2.2260000705718994
1772389448150273800,4.485273681640625,2.155050039291382,-9.46500015258789,2.16795015335083
1772389448170330000,4.505330078125,2.3989500999450684,-9.5149507522583,2.1469500064849854
1772389448190386700,4.52538671875,2.4379501342773438,-9.54900074005127,2.0940001010894775
1772389448210443300,4.545443359375,2.3940000534057617,-9.586950302124023,2.0410501956939697
1772389448230499800,4.565499755859375,2.095050096511841,-9.606000900268555,1.9650001525878906
1772389448250556400,4.585556396484375,1.8679500818252563,-9.53895092010498,2.1349501609802246
1772389448270612700,4.60561279296875,2.0659501552581787,-9.46500015258789,2.2159500122070312
1772389448290669300,4.62566943359375,2.2770001888275146,-9.490950584411621,2.16795015335083
1772389448310726000,4.645725830078125,2.2320001125335693,-9.550950050354004,2.1780002117156982
1772389448330782500,4.665782470703125,2.2360501289367676,-9.535050392150879,2.2300500869750977
1772389448350839300,4.68583935546875,2.4400501251220703,-9.52695083618164,2.1559500694274902
1772389448370895600,4.7058955078125,2.3419501781463623,-9.547050476074219,2.1010501384735107
1772389448390952200,4.7259521484375,2.203050136566162,-9.5149507522583,2.1349501609802246
1772389448411008800,4.7460087890625,2.2510499954223633,-9.535050392150879,2.1439499855041504
1772389448431065000,4.766065185546875,2.2200000286102295,-9.5149507522583,2.0749499797821045
1772389448451121700,4.78612158203125,2.176950216293335,-9.5110502243042,2.0749499797821045
1772389448471178200,4.80617822265625,2.136000156402588,-9.48900032043457,2.0050501823425293
1772389448491234800,4.82623486328125,2.136000156402588,-9.582000732421875,2.0530500411987305
1772389448511291400,4.84629150390625,2.176950216293335,-9.490950584411621,2.2300500869750977
1772389448531348000,4.866347900390625,2.445000171661377,-9.480000495910645,2.2740001678466797
1772389448551404300,4.886404296875,2.5639500617980957,-9.57300090789795,2.0940001010894775
1772389448571461000,4.906461181640625,2.2960500717163086,-9.642000198364258,2.0149500370025635
1772389448591517700,4.926517578125,2.193000078201294,-9.597000122070312,2.07705020904541
1772389448611574000,4.946573974609375,2.323050022125244,-9.493950843811035,2.1469500064849854
1772389448631630600,4.966630615234375,2.430000066757202,-9.46500015258789,2.0680501461029053
1772389448651687200,4.986687255859375,2.2270500659942627,-9.502950668334961,2.1010501384735107
1772389448671743700,5.00674365234375,2.1000001430511475,-9.493950843811035,2.2139999866485596
1772389448691800300,5.02680029296875,2.245950222015381,-9.523050308227539,2.1040501594543457
1772389448711857000,5.04685693359375,2.4379501342773438,-9.562950134277344,2.0050501823425293
1772389448731913500,5.06691357421875,2.5669500827789307,-9.529950141906738,1.9669500589370728
1772389448751969800,5.0869697265625,2.241000175476074,-9.54900074005127,2.107950210571289
1772389448772026400,5.1070263671875,2.02305006980896,-9.490950584411621,2.2519500255584717
1772389448792083000,5.1270830078125,2.2200000286102295,-9.451050758361816,2.1349501609802246
1772389448812139500,5.147139404296875,2.3490002155303955,-9.568050384521484,1.9669500589370728
1772389448832196000,5.167196044921875,2.284050226211548,-9.553950309753418,2.098950147628784
1772389448852252700,5.187252685546875,2.4060001373291016,-9.48900032043457,2.1540000438690186
1772389448872309200,5.207309326171875,2.320050001144409,-9.556050300598145,2.1660001277923584
1772389448892365600,5.227365478515625,2.104950189590454,-9.57300090789795,2.1949501037597656
1772389448912422100,5.247422119140625,2.2960500717163086,-9.48705005645752,2.1510000228881836
1772389448932478700,5.267478759765625,2.521050214767456,-9.556050300598145,2.158950090408325
1772389448952535000,5.28753515625,2.470950126647949,-9.597000122070312,2.080049991607666
1772389448972591600,5.307591552734375,2.2170000076293945,-9.574950218200684,1.8330000638961792
1772389448992648200,5.327648193359375,2.0089499950408936,-9.51300048828125,2.1280500888824463
1772389449012704800,5.347704833984375,2.052000045776367,-9.444000244140625,2.287950038909912
1772389449032761000,5.367760986328125,2.281949996948242,-9.457950592041016,2.1319501399993896
1772389449052817700,5.387817626953125,2.4469501972198486,-9.577950477600098,2.0719501972198486
1772389449072874200,5.407874267578125,2.470950126647949,-9.553950309753418,2.059950113296509
1772389449092930800,5.427930908203125,2.320050001144409,-9.484050750732422,2.149049997329712
1772389449112987400,5.4479873046875,2.370000123977661,-9.456000328063965,2.2159500122070312
1772389449133044000,5.4680439453125,2.482950210571289,-9.475050926208496,2.2039501667022705
1772389449153100300,5.488100341796875,2.6670000553131104,-9.597000122070312,2.1349501609802246
1772389449173156900,5.508156982421875,2.659950017929077,-9.580050468444824,1.9789501428604126
1772389449193213400,5.52821337890625,2.2320001125335693,-9.48900032043457,1.9789501428604126
1772389449213269800,5.548269775390625,1.870050072669983,-9.45300006866455,2.0680501461029053
1772389449233326600,5.56832666015625,1.8769501447677612,-9.48900032043457,2.259000062942505
1772389449253383000,5.5883828125,2.3490002155303955,-9.48705005645752,2.2110002040863037
1772389449273439700,5.608439697265625,2.5879502296447754,-9.517950057983398,2.095950126647949
1772389449293496000,5.62849609375,2.442000150680542,-9.523050308227539,2.1660001277923584
1772389449313552600,5.648552734375,2.370000123977661,-9.523050308227539,2.070000171661377
1772389449333609200,5.668609130859375,2.265000104904175,-9.53895092010498,1.9579501152038574
1772389449353665500,5.68866552734375,2.1859500408172607,-9.532050132751465,2.142000198364258
1772389449373722000,5.70872216796875,2.433000087738037,-9.407999992370605,2.199000120162964
1772389449393778700,5.72877880859375,2.4570000171661377,-9.475050926208496,2.07705020904541
1772389449413835000,5.7488349609375,2.203050136566162,-9.592050552368164,2.0440499782562256
1772389449433891600,5.7688916015625,2.275050163269043,-9.50100040435791,2.187000036239624
1772389449453948000,5.788947998046875,2.4400501251220703,-9.469950675964355,2.1850500106811523
1772389449474004500,5.80900439453125,2.39205002784729,-9.532050132751465,2.2069501876831055
1772389449494061000,5.82906103515625,2.265000104904175,-9.535050392150879,2.2260000705718994
1772389449514118000,5.849117919921875,2.281949996948242,-9.53700065612793,2.139000177383423
1772389449534174200,5.86917431640625,2.4379501342773438,-9.5110502243042,2.149049997329712
1772389449554230500,5.88923046875,2.5309500694274902,-9.445950508117676,2.2039501667022705
1772389449574287400,5.909287353515625,2.464050054550171,-9.469950675964355,2.209050178527832
1772389449594343700,5.92934375,2.382000207901001,-9.5110502243042,2.1349501609802246
1772389449614400300,5.949400146484375,2.430000066757202,-9.457950592041016,2.0680501461029053
1772389449634456600,5.96945654296875,2.362950086593628,-9.508050918579102,2.0650501251220703
1772389449654513200,5.98951318359375,2.272050142288208,-9.517950057983398,2.1660001277923584
1772389449674569700,6.00956982421875,2.4060001373291016,-9.45300006866455,2.158950090408325
1772389449694626000,6.0296259765625,2.302950143814087,-9.48900032043457,2.1160500049591064
1772389449714682600,6.0496826171875,2.1600000858306885,-9.589950561523438,2.1540000438690186
1772389449734739200,6.0697392578125,2.284050226211548,-9.52500057220459,2.2740001678466797
1772389449754795500,6.08979541015625,2.5069501399993896,-9.480000495910645,2.2110002040863037
1772389449774852000,6.10985205078125,2.490000009536743,-9.502950668334961,2.1949501037597656
1772389449794908400,6.129908447265625,2.4570000171661377,-9.45300006866455,2.25
1772389449814965200,6.14996533203125,2.490000009536743,-9.432000160217285,2.2300500869750977
1772389449835021600,6.170021484375,2.39205002784729,-9.49905014038086,2.1130499839782715
1772389449855078100,6.190078125,2.4379501342773438,-9.48900032043457,2.0149500370025635
1772389449875134700,6.210134765625,2.4880502223968506,-9.396000862121582,2.110949993133545
1772389449895191300,6.23019140625,2.373000144958496,-9.46500015258789,2.16795015335083
1772389449915247600,6.25024755859375,2.263050079345703,-9.544050216674805,2.0839500427246094
1772389449935304200,6.27030419921875,2.302950143814087,-9.50100040435791,1.9690500497817993
1772389449955360500,6.290360595703125,2.2510499954223633,-9.51300048828125,2.089050054550171
1772389449975417000,6.3104169921875,2.284050226211548,-9.481950759887695,2.278050184249878
1772389449995473700,6.3304736328125,2.3560500144958496,-9.448050498962402,2.2950000762939453
1772389450015530200,6.3505302734375,2.5189502239227295,-9.523050308227539,2.2710001468658447
1772389450035586800,6.3705869140625,2.5690500736236572,-9.505950927734375,2.2069501876831055
1772389450055643100,6.39064306640625,2.3800501823425293,-9.493950843811035,2.1060001850128174
1772389450075699700,6.41069970703125,2.1889500617980957,-9.529950141906738,2.070000171661377
1772389450095756300,6.43075634765625,2.281949996948242,-9.52500057220459,2.1610500812530518
1772389450115812600,6.4508125,2.4690001010894775,-9.47700023651123,2.199000120162964
1772389450135869200,6.470869140625,2.490000009536743,-9.481950759887695,2.2330501079559326
1772389450155925800,6.49092578125,2.410950183868408,-9.457950592041016,2.1130499839782715
1772389450175982000,6.510982177734375,2.4180002212524414,-9.523050308227539,2.11995005607605
1772389450196038700,6.53103857421875,2.517000198364258,-9.460050582885742,2.2159500122070312
1772389450216095000,6.551094970703125,2.539950132369995,-9.460050582885742,2.2039501667022705
1772389450236151800,6.57115185546875,2.562000036239624,-9.532050132751465,2.080049991607666
1772389450256208100,6.5912080078125,2.3389501571655273,-9.451050758361816,2.095950126647949
1772389450276264700,6.6112646484375,2.053950071334839,-9.444000244140625,2.1750001907348633
1772389450296321300,6.6313212890625,2.11395001411438,-9.52500057220459,2.1280500888824463
1772389450316377900,6.6513779296875,2.205000162124634,-9.574950218200684,2.190000057220459
1772389450336434200,6.67143408203125,2.290950059890747,-9.424050331115723,2.2759501934051514
1772389450356490800,6.69149072265625,2.5789501667022705,-9.429000854492188,2.26200008392334
1772389450376547000,6.711547119140625,2.581050157546997,-9.475050926208496,2.2230000495910645
1772389450396603600,6.731603759765625,2.4379501342773438,-9.51300048828125,2.2900500297546387
1772389450416660000,6.751659912109375,2.502000093460083,-9.433950424194336,2.1919500827789307
1772389450436716500,6.771716552734375,2.593050241470337,-9.484050750732422,2.16795015335083
1772389450456773000,6.791773193359375,2.584050178527832,-9.568050384521484,2.092050075531006
1772389450476829700,6.81182958984375,2.562000036239624,-9.475050926208496,2.01705002784729
1772389450496886000,6.831885986328125,2.461050033569336,-9.48705005645752,2.07705020904541
1772389450516942300,6.8519423828125,2.2870500087738037,-9.47700023651123,2.1160500049591064
1772389450536999200,6.871999267578125,2.2480502128601074,-9.439050674438477,2.2139999866485596
1772389450557055200,6.89205517578125,2.353950023651123,-9.407999992370605,2.1780002117156982
1772389450577111800,6.91211181640625,2.410950183868408,-9.51300048828125,2.1559500694274902
1772389450597168400,6.93216845703125,2.449050188064575,-9.51300048828125,2.2159500122070312
1772389450617225000,6.952224853515625,2.3970000743865967,-9.432000160217285,2.190000057220459
1772389450637281300,6.97228125,2.370000123977661,-9.508050918579102,2.1280500888824463
1772389450657337900,6.992337890625,2.430000066757202,-9.565950393676758,2.2540500164031982
1772389450677394400,7.01239453125,2.5189502239227295,-9.490950584411621,2.311950206756592
1772389450697450800,7.03245068359375,2.445000171661377,-9.444000244140625,2.1280500888824463
1772389450717507300,7.05250732421875,2.3179500102996826,-9.52695083618164,2.059950113296509
1772389450737563600,7.072563720703125,2.3299500942230225,-9.48705005645752,2.3140501976013184
1772389450757620200,7.0926201171875,2.5600500106811523,-9.379050254821777,2.2860000133514404
1772389450777676500,7.112676513671875,2.623950242996216,-9.508050918579102,2.0050501823425293
1772389450797733000,7.132733154296875,2.55495023727417,-9.53895092010498,2.095950126647949
1772389450817789700,7.152789794921875,2.533050060272217,-9.40095043182373,2.2950000762939453
1772389450837846000,7.172845947265625,2.385000228881836,-9.440999984741211,2.2759501934051514
1772389450857902600,7.192902587890625,2.2960500717163086,-9.493950843811035,2.1660001277923584
1772389450877959200,7.212959228515625,2.2770001888275146,-9.559050559997559,2.137050151824951
1772389450898015700,7.233015625,2.3940000534057617,-9.457950592041016,2.26200008392334
1772389450918072000,7.253072021484375,2.6580002307891846,-9.384000778198242,2.3310000896453857
1772389450938128600,7.273128662109375,2.641050100326538,-9.379050254821777,2.2420501708984375
1772389450958185000,7.29318505859375,2.5360500812530518,-9.468000411987305,2.1559500694274902
1772389450978241500,7.313241455078125,2.509050130844116,-9.529950141906738,2.1850500106811523
1772389450998297900,7.3332978515625,2.470950126647949,-9.429000854492188,2.1540000438690186
1772389451018354400,7.3533544921875,2.3419501781463623,-9.421950340270996,2.0869500637054443
1772389451038410800,7.37341064453125,2.196000099182129,-9.493950843811035,2.187000036239624
1772389451058467300,7.39346728515625,2.253000020980835,-9.469950675964355,2.3530499935150146
1772389451078524000,7.41352392578125,2.623950242996216,-9.432000160217285,2.319000005722046
1772389451098580200,7.433580322265625,2.703000068664551,-9.49905014038086,2.2330501079559326
1772389451118636800,7.45363671875,2.454000234603882,-9.484050750732422,2.311950206756592
1772389451138693000,7.473693115234375,2.422950029373169,-9.396000862121582,2.4409501552581787
1772389451158749700,7.493749755859375,2.382000207901001,-9.436050415039062,2.3170502185821533
1772389451178806000,7.513805908203125,2.290950059890747,-9.505950927734375,2.2159500122070312
1772389451198862600,7.533862548828125,2.470950126647949,-9.38895034790039,2.179949998855591
1772389451218919000,7.5539189453125,2.6290500164031982,-9.440999984741211,2.137050151824951
1772389451238975500,7.5739755859375,2.5570502281188965,-9.46500015258789,2.187000036239624
1772389451259032000,7.594031982421875,2.5759501457214355,-9.384000778198242,2.2950000762939453
1772389451279088400,7.61408837890625,2.5600500106811523,-9.415050506591797,2.2110002040863037
1772389451299145200,7.634145263671875,2.4570000171661377,-9.445950508117676,2.187000036239624
1772389451319201500,7.654201416015625,2.6550002098083496,-9.38895034790039,2.202000141143799
1772389451339257900,7.6742578125,2.9830501079559326,-9.393000602722168,2.209050178527832
1772389451359314400,7.694314453125,2.8350000381469727,-9.502950668334961,2.329050064086914
1772389451379370800,7.714370849609375,2.39205002784729,-9.420000076293945,2.359950065612793
1772389451399427300,7.73442724609375,2.1670501232147217,-9.412050247192383,2.1750001907348633
1772389451419484000,7.75448388671875,2.193000078201294,-9.54900074005127,2.118000030517578
1772389451439540200,7.774540283203125,2.2990500926971436,-9.496050834655762,2.3809502124786377
1772389451459596800,7.7945966796875,2.6070001125335693,-9.421950340270996,2.4940500259399414
1772389451479653000,7.814653076171875,2.6580002307891846,-9.367050170898438,2.287950038909912
1772389451499709400,7.83470947265625,2.4280500411987305,-9.433950424194336,2.266050100326538
1772389451519766300,7.854766357421875,2.2960500717163086,-9.440999984741211,2.218050003051758
1772389451539822600,7.874822509765625,2.335050106048584,-9.429000854492188,2.16795015335083
1772389451559879200,7.894879150390625,2.4400501251220703,-9.436050415039062,2.2159500122070312
1772389451579935500,7.914935546875,2.5380001068115234,-9.393000602722168,2.2639501094818115
1772389451599992000,7.934991943359375,2.5960500240325928,-9.405000686645508,2.2069501876831055
1772389451620048400,7.95504833984375,2.7180001735687256,-9.481950759887695,2.1610500812530518
1772389451640105000,7.97510498046875,2.8210501670837402,-9.415050506591797,2.202000141143799
1772389451660161500,7.99516162109375,2.5069501399993896,-9.421950340270996,2.3209500312805176
1772389451680217900,8.0152177734375,2.233950138092041,-9.396000862121582,2.4049501419067383
1772389451700274200,8.035274169921875,2.3560500144958496,-9.381000518798828,2.341050148010254
1772389451720330800,8.055330810546875,2.6100001335144043,-9.45300006866455,2.338050127029419
1772389451740387000,8.075386962890626,2.800950050354004,-9.451050758361816,2.3310000896453857
1772389451760443600,8.095443603515625,2.7970502376556396,-9.469950675964355,2.2710001468658447
1772389451780500000,8.1155,2.63100004196167,-9.48705005645752,2.2450501918792725
1772389451800556500,8.135556640625,2.4160501956939697,-9.384000778198242,2.257050037384033
1772389451820612900,8.15561279296875,2.353950023651123,-9.381000518798828,2.1660001277923584
1772389451840669400,8.17566943359375,2.4469501972198486,-9.45300006866455,2.149049997329712
1772389451860725800,8.195725830078125,2.662950038909912,-9.440999984741211,2.2260000705718994
1772389451880782300,8.2157822265625,2.8129501342773438,-9.432000160217285,2.137050151824951
1772389451900839000,8.2358388671875,2.5450501441955566,-9.397950172424316,2.2380001544952393
1772389451920895500,8.2558955078125,2.5260000228881836,-9.367050170898438,2.3959500789642334
1772389451940951800,8.275951904296875,2.614950180053711,-9.415050506591797,2.341050148010254
1772389451961008400,8.29600830078125,2.674950122833252,-9.52695083618164,2.149049997329712
1772389451981064700,8.316064697265626,2.517000198364258,-9.457950592041016,2.1730501651763916
1772389452001121300,8.336121337890624,2.086050033569336,-9.412050247192383,2.2230000495910645
1772389452021177600,8.356177490234375,2.1529500484466553,-9.364950180053711,2.311950206756592
1772389452041234000,8.37623388671875,2.5669500827789307,-9.352950096130371,2.3449501991271973
1772389452061290500,8.39629052734375,2.955000162124634,-9.397950172424316,2.2380001544952393
1772389452081347000,8.41634716796875,2.890050172805786,-9.45300006866455,2.1250500679016113
1772389452101403400,8.4364033203125,2.6580002307891846,-9.460050582885742,2.2069501876831055
1772389452121460000,8.4564599609375,2.6959500312805176,-9.407999992370605,2.269050121307373
1772389452141516300,8.476516357421875,2.722050189971924,-9.409950256347656,2.1750001907348633
1772389452161573000,8.496572998046876,2.6430001258850098,-9.460050582885742,2.1439499855041504
1772389452181629400,8.51662939453125,2.623950242996216,-9.439050674438477,2.2139999866485596
1772389452201685800,8.536685791015625,2.602950096130371,-9.417000770568848,2.266050100326538
1772389452221742300,8.556742431640625,2.5380001068115234,-9.427050590515137,2.2759501934051514
1772389452241798700,8.576798583984376,2.6389501094818115,-9.415050506591797,2.2639501094818115
1772389452261855200,8.596855224609374,2.83305025100708,-9.424050331115723,2.2210500240325928
1772389452281911600,8.61691162109375,2.662950038909912,-9.456000328063965,2.3620500564575195
1772389452301968100,8.636968017578125,2.385000228881836,-9.372000694274902,2.379000186920166
1772389452322024400,8.6570244140625,2.5189502239227295,-9.424050331115723,2.287950038909912
1772389452342081000,8.6770810546875,2.5600500106811523,-9.409950256347656,2.0839500427246094
1772389452362137300,8.697137451171875,2.4589500427246094,-9.40095043182373,2.179949998855591
1772389452382194000,8.71719384765625,2.574000120162964,-9.412050247192383,2.2300500869750977
1772389452402250200,8.737250244140625,2.641050100326538,-9.37695026397705,2.1850500106811523
1772389452422306800,8.757306884765624,2.5500001907348633,-9.424050331115723,2.190000057220459
1772389452442363100,8.777363037109374,2.5069501399993896,-9.364950180053711,2.209050178527832
1772389452462419500,8.79741943359375,2.7079501152038574,-9.396000862121582,2.281050205230713
1772389452482476000,8.81747607421875,2.8969502449035645,-9.445950508117676,2.281050205230713
1772389452502532400,8.837532470703126,2.7940502166748047,-9.420000076293945,2.2380001544952393
1772389452522589000,8.8575888671875,2.6860501766204834,-9.412050247192383,2.2759501934051514
1772389452542645500,8.8776455078125,2.7679500579833984,-9.451050758361816,2.3910000324249268
1772389452562702000,8.8977021484375,2.8090500831604004,-9.357000350952148,2.3209500312805176
1772389452582758400,8.91775830078125,2.7300000190734863,-9.340950012207031,2.227950096130371
1772389452602815000,8.93781494140625,2.5860002040863037,-9.45300006866455,2.239950180053711
1772389452622871300,8.957871337890625,2.54295015335083,-9.417000770568848,2.2860000133514404
1772389452642927900,8.977927978515625,2.619000196456909,-9.322050094604492,2.259000062942505
1772389452662984200,8.997984130859376,2.653050184249878,-9.397950172424316,2.259000062942505
1772389452683040800,9.018040771484374,2.611950159072876,-9.381000518798828,2.190000057220459
1772389452703097300,9.038097412109375,2.67900013923645,-9.384000778198242,2.2069501876831055
1772389452723153700,9.058153564453125,2.7340500354766846,-9.412050247192383,2.2350001335144043
1772389452743210200,9.078210205078125,2.7750000953674316,-9.384000778198242,2.16795015335083
1772389452763266600,9.0982666015625,2.7370500564575195,-9.381000518798828,2.197050094604492
1772389452783323100,9.1183232421875,2.5500001907348633,-9.325950622558594,2.311950206756592
1772389452803379500,9.13837939453125,2.593050241470337,-9.381000518798828,2.3449501991271973
1772389452823436000,9.15843603515625,2.788950204849243,-9.396000862121582,2.26200008392334
1772389452843492400,9.178492431640626,2.851950168609619,-9.393000602722168,2.3359501361846924
1772389452863549000,9.198548828125,2.811000108718872,-9.384000778198242,2.3209500312805176
1772389452883605200,9.218605224609375,2.770050048828125,-9.405000686645508,2.257050037384033
1772389452903661800,9.238661865234375,2.572050094604492,-9.396000862121582,2.2900500297546387
1772389452923718100,9.25871826171875,2.599950075149536,-9.313950538635254,2.2860000133514404
1772389452943774700,9.278774658203124,2.8129501342773438,-9.396000862121582,2.1229500770568848
1772389452963831000,9.2988310546875,2.754000186920166,-9.468000411987305,2.1280500888824463
1772389452983887600,9.3188876953125,2.6269500255584717,-9.360000610351562,2.2900500297546387
1772389453003944000,9.33894384765625,2.713050127029419,-9.333000183105469,2.227950096130371
1772389453024000800,9.359000732421874,2.6860501766204834,-9.40095043182373,2.1010501384735107
1772389453044056800,9.379056884765625,2.641050100326538,-9.463050842285156,2.1469500064849854
1772389453064113400,9.399113525390625,2.883000135421753,-9.480000495910645,2.329050064086914
1772389453084169700,9.419169677734375,2.871000051498413,-9.381000518798828,2.367000102996826
1772389453104226600,9.4392265625,2.683950185775757,-9.298050880432129,2.3239500522613525
1772389453124282600,9.45928271484375,2.5480501651763916,-9.373950004577637,2.299950122833252
1772389453144339200,9.479339111328125,2.6890501976013184,-9.436050415039062,2.170950174331665
1772389453164395500,9.4993955078125,2.845050096511841,-9.451050758361816,2.1730501651763916
1772389453184452000,9.5194521484375,2.8210501670837402,-9.301950454711914,2.3020501136779785
1772389453204508700,9.5395087890625,2.763000249862671,-9.319050788879395,2.218050003051758
1772389453224565000,9.55956494140625,2.682000160217285,-9.448050498962402,2.1630001068115234
1772389453244621600,9.57962158203125,2.8470001220703125,-9.456000328063965,2.149049997329712
1772389453264678000,9.599677978515626,2.920950174331665,-9.396000862121582,2.1250500679016113
1772389453284734500,9.619734375,2.67900013923645,-9.322050094604492,2.239950180053711
1772389453304790800,9.639790771484375,2.602950096130371,-9.336000442504883,2.3740501403808594
1772389453324847400,9.659847412109375,2.7199501991271973,-9.336000442504883,2.3359501361846924
1772389453344904000,9.679904052734376,2.871000051498413,-9.403050422668457,2.2110002040863037
1772389453364960300,9.699960205078124,2.7970502376556396,-9.396000862121582,2.25
1772389453385016800,9.720016845703125,2.739000082015991,-9.310050010681152,2.436000108718872
1772389453405073400,9.740073486328125,2.761050224304199,-9.412050247192383,2.2710001468658447
1772389453425130000,9.7601298828125,2.7799501419067383,-9.484050750732422,1.9260001182556152
1772389453445186600,9.7801865234375,2.8399500846862793,-9.429000854492188,2.0629501342773438
1772389453465243000,9.800242919921875,2.892000198364258,-9.271050453186035,2.39805006980896
1772389453485299500,9.820299560546875,2.8369500637054443,-9.310050010681152,2.416950225830078
1772389453505356000,9.84035595703125,2.722050189971924,-9.393000602722168,2.1730501651763916
1772389453525412400,9.860412353515626,2.742000102996826,-9.381000518798828,2.1160500049591064
1772389453545469000,9.880468994140625,3.091050148010254,-9.38895034790039,2.2639501094818115
1772389453565525500,9.900525390625,3.2059502601623535,-9.427050590515137,2.158950090408325
1772389453585581800,9.920581787109375,3.1840500831604004,-9.439050674438477,2.2210500240325928
1772389453605638400,9.940638427734376,2.9350502490997314,-9.336000442504883,2.4820501804351807
1772389453625694000,9.96069384765625,2.461050033569336,-9.409950256347656,2.2759501934051514
1772389453645751300,9.980751220703125,2.320050001144409,-9.348000526428223,2.1349501609802246
1772389453665808100,10.00080810546875,2.7850501537323,-9.20895004272461,2.4630000591278076
1772389453685864400,10.020864501953126,2.943000078201294,-9.26205062866211,2.3310000896453857
1772389453705921000,10.040921142578124,3.0169501304626465,-9.322050094604492,2.341050148010254
1772389453725977600,10.0609775390625,2.962050199508667,-9.345000267028809,2.25
1772389453746034200,10.0810341796875,2.9449501037597656,-9.444000244140625,2.059950113296509
1772389453766090800,10.1010908203125,2.8540501594543457,-9.348000526428223,1.8900001049041748
