time,seconds_elapsed,z,y,x
1772389443998559700,0.333559814453125,-0.03217500075697899,-0.0193875003606081,0.0775500014424324
1772389444018616300,0.3536162109375,-0.016224998980760574,-0.022549999877810478,0.038087498396635056
1772389444038673000,0.3736728515625,-0.0012374999932944775,-0.033275000751018524,0.0147124994546175
1772389444058729500,0.3937294921875,0.004124999977648258,-0.057750001549720764,0.013612499460577965
1772389444078786000,0.4137861328125,0.0008249999955296516,-0.015124999918043613,0.053075000643730164
1772389444098843000,0.4338427734375,-0.0034374999813735485,0.007287499960511923,0.08071249723434448
1772389444118899500,0.4538994140625,-0.005499999970197678,-0.008799999952316284,0.027499999850988388
1772389444138956000,0.4739560546875,0.012649999931454659,-0.07369999587535858,-0.042762499302625656
1772389444159012600,0.4940126953125,0.0019249999895691872,-0.10573749989271164,-0.06091250106692314
1772389444179069400,0.5140693359375,-0.006599999964237213,-0.0705375000834465,0.0008249999955296516
1772389444199126000,0.5341259765625,-0.025712499395012856,-0.03863750025629997,0.09033749997615814
1772389444219182600,0.5541826171875,-0.01718750037252903,-0.022549999877810478,0.1266375035047531
1772389444239239200,0.5742392578125,-0.007699999958276749,-0.05142499879002571,0.1073874980211258
1772389444259295700,0.594295654296875,-0.020487500354647636,-0.06737499684095383,0.08291249722242355
1772389444279352300,0.614352294921875,-0.029012499377131462,-0.0471624992787838,0.0775500014424324
1772389444299409000,0.634408935546875,-0.04166249930858612,-0.02474999986588955,0.030662499368190765
1772389444319465500,0.654465576171875,-0.023649999871850014,0.025299999862909317,0.02969999983906746
1772389444339522300,0.674522216796875,-0.004399999976158142,0.05403750017285347,0.010449999943375587
1772389444359579000,0.694578857421875,-0.014024999924004078,0.03492499887943268,-0.050324998795986176
1772389444379635500,0.714635498046875,-0.0012374999932944775,0.006187499966472387,-0.05664999783039093
1772389444399692000,0.734692138671875,0.025437500327825546,-0.015124999918043613,-0.02681249938905239
1772389444419748600,0.75474853515625,0.015812499448657036,-0.016224998980760574,0.017875000834465027
1772389444439805200,0.77480517578125,0.009349999949336052,0.0030249999836087227,0.05843750014901161
1772389444459861800,0.79486181640625,0.005087499972432852,-0.023649999871850014,0.01691249944269657
1772389444479918300,0.81491845703125,-0.011962499469518661,-0.06847500056028366,0.008387500420212746
1772389444499975000,0.834974853515625,-0.027912499383091927,-0.08648750185966492,0.05939999967813492
1772389444520031700,0.85503173828125,-0.021449999883770943,-0.09927500039339066,0.06792499870061874
1772389444540088300,0.87508837890625,-0.03739999979734421,-0.082225002348423,0.07012499868869781
1772389444560145000,0.895144775390625,-0.042762499302625656,-0.03217500075697899,0.09886249899864197
1772389444580201500,0.915201416015625,-0.031075000762939453,-0.02681249938905239,0.07122500240802765
1772389444600258000,0.935258056640625,-0.00976249948143959,-0.06737499684095383,-0.0193875003606081
1772389444620315000,0.95531494140625,-0.018287500366568565,-0.09184999763965607,-0.0672374963760376
1772389444640371500,0.975371337890625,-0.03849999979138374,-0.04179999977350235,-0.0034374999813735485
1772389444660428000,0.995427978515625,-0.033275000751018524,0.01677500084042549,0.053075000643730164
1772389444680484600,1.015484619140625,-0.022549999877810478,-0.0034374999813735485,0.0147124994546175
1772389444700541200,1.035541259765625,-0.023649999871850014,-0.03437500074505806,-0.020487500354647636
1772389444720597800,1.05559765625,-0.029012499377131462,-0.05458749830722809,0.0030249999836087227
1772389444740654600,1.075654541015625,-0.03423750028014183,-0.05884999781847,0.04881250113248825
1772389444760711200,1.095711181640625,-0.05128749832510948,-0.03753750026226044,0.08291249722242355
1772389444780767700,1.115767822265625,-0.031075000762939453,-0.030112499371170998,0.12870000302791595
1772389444800824300,1.13582421875,0.0019249999895691872,-0.030112499371170998,0.13186250627040863
1772389444820881000,1.155880859375,0.02213750034570694,-0.035337500274181366,0.060499999672174454
1772389444840937700,1.175937744140625,0.011549999937415123,-0.031075000762939453,0.013612499460577965
1772389444860994000,1.195994140625,0.021175000816583633,0.0030249999836087227,-0.011962499469518661
1772389444881051000,1.21605078125,0.02433750033378601,0.03272499889135361,-0.023649999871850014
1772389444901107500,1.236107421875,0.023237500339746475,0.06792499870061874,-0.0034374999813735485
1772389444921164000,1.2561640625,0.036024998873472214,0.09350000321865082,0.006187499966472387
1772389444941220400,1.276220458984375,0.055275000631809235,0.07535000145435333,-0.040699999779462814
1772389444961277000,1.29627685546875,0.038224998861551285,0.0849749967455864,-0.05128749832510948
1772389444981333800,1.316333740234375,0.02433750033378601,0.12443749606609344,0.015812499448657036
1772389445001390600,1.336390625,0.010449999943375587,0.13722500205039978,0.03712499886751175
1772389445021447000,1.356447021484375,0.0317624993622303,0.1264999955892563,0.032862499356269836
1772389445041503500,1.37650341796875,0.03918749839067459,0.0775500014424324,0.04661250114440918
1772389445061560000,1.39656005859375,0.0147124994546175,0.06902500241994858,0.05843750014901161
1772389445081616600,1.41661669921875,0.017875000834465027,0.04977500066161156,0.09143749624490738
1772389445101673200,1.436673095703125,0.023237500339746475,0.017875000834465027,0.03492499887943268
1772389445121729800,1.456729736328125,0.025437500327825546,-0.006599999964237213,-0.004399999976158142
1772389445141786600,1.47678662109375,0.018975000828504562,-0.00976249948143959,-0.00976249948143959
1772389445161843200,1.49684326171875,-0.00013749999925494194,0.007287499960511923,0.0030249999836087227
1772389445181899800,1.516899658203125,-0.0034374999813735485,0.0030249999836087227,0.08607500046491623
1772389445201956400,1.536956298828125,0.013612499460577965,-0.021587500348687172,0.1190750002861023
1772389445222013000,1.557012939453125,0.0008249999955296516,-0.07369999587535858,0.06159999966621399
1772389445242069500,1.577069580078125,-0.04592499881982803,-0.07906249910593033,0.06696250289678574
1772389445262126000,1.5971259765625,-0.042762499302625656,-0.09184999763965607,0.13722500205039978
1772389445282183000,1.617182861328125,-0.04592499881982803,-0.15578749775886536,0.10958749800920486
1772389445302239500,1.637239501953125,-0.06943749636411667,-0.16005000472068787,0.13089999556541443
1772389445322296000,1.657296142578125,-0.0364375002682209,-0.10999999940395355,0.22247499227523804
1772389445342352600,1.6773525390625,-0.00976249948143959,-0.07273750007152557,0.2022625058889389
1772389445362409200,1.6974091796875,-0.002337499987334013,-0.07479999959468842,0.06902500241994858
1772389445382465800,1.7174658203125,-0.014024999924004078,-0.09927500039339066,-0.04922499880194664
1772389445402522600,1.737522705078125,-0.0193875003606081,-0.05664999783039093,-0.04606249928474426
1772389445422579000,1.757578857421875,0.005087499972432852,-0.022549999877810478,0.012649999931454659
1772389445442635800,1.7776357421875,0.006187499966472387,-0.016224998980760574,0.005087499972432852
1772389445462692400,1.7976923828125,0.005087499972432852,-0.0002749999985098839,0.0147124994546175
1772389445482749000,1.8177490234375,0.006187499966472387,0.03382499888539314,0.03712499886751175
1772389445502805500,1.837805419921875,0.004124999977648258,0.05623750016093254,0.03918749839067459
1772389445522862000,1.857862060546875,-0.027912499383091927,0.11371249705553055,0.06270000338554382
1772389445542918700,1.877918701171875,-0.023649999871850014,0.13928750157356262,0.08071249723434448
1772389445562975200,1.897975341796875,0.010449999943375587,0.10092499852180481,-0.0034374999813735485
1772389445583032000,1.918031982421875,-0.00013749999925494194,0.07438749819993973,-0.07150000333786011
1772389445603088600,1.938088623046875,-0.01718750037252903,0.09569999575614929,-0.042762499302625656
1772389445623145200,1.958145263671875,-0.004399999976158142,0.10092499852180481,0.011549999937415123
1772389445643201800,1.978201904296875,0.02969999983906746,0.03918749839067459,0.005087499972432852
1772389445663258400,1.99825830078125,0.02213750034570694,0.0019249999895691872,-0.008662499487400055
1772389445683315000,2.01831494140625,0.0008249999955296516,0.005087499972432852,0.036024998873472214
1772389445703371500,2.03837158203125,-0.018287500366568565,0.008249999955296516,0.055137500166893005
1772389445723428000,2.058427978515625,-0.015124999918043613,-0.03863750025629997,0.04028749838471413
1772389445743485000,2.07848486328125,0.006187499966472387,-0.08648750185966492,0.02969999983906746
1772389445763541200,2.098541259765625,0.009349999949336052,-0.09391249716281891,0.02969999983906746
1772389445783597800,2.118597900390625,-0.011962499469518661,-0.04386249929666519,0.06902500241994858
1772389445803654700,2.138654541015625,-0.0193875003606081,0.009349999949336052,0.09776250272989273
1772389445823711200,2.158711181640625,-0.00976249948143959,-0.0034374999813735485,0.057337500154972076
1772389445843767800,2.178767822265625,-0.004399999976158142,-0.031075000762939453,-0.002337499987334013
1772389445863824400,2.198824462890625,-0.006599999964237213,-0.008799999952316284,-0.016224998980760574
1772389445883881000,2.218880859375,-0.004399999976158142,0.026399999856948853,-0.008662499487400055
1772389445903937500,2.2389375,-0.002337499987334013,0.03918749839067459,0.030662499368190765
1772389445923994000,2.258994140625,-0.010862499475479126,0.04028749838471413,0.03396249935030937
1772389445944051000,2.279051025390625,-0.023649999871850014,0.02419999986886978,0.006187499966472387
1772389445964107500,2.299107421875,-0.03423750028014183,0.0147124994546175,-0.00013749999925494194
1772389445984164000,2.3191640625,-0.023649999871850014,0.023237500339746475,0.04138749837875366
1772389446004220700,2.339220703125,-0.025712499395012856,-0.006599999964237213,0.03918749839067459
1772389446024277200,2.35927734375,-0.04496249929070473,0.003987499978393316,0.038087498396635056
1772389446044333800,2.379333740234375,-0.023649999871850014,0.03272499889135361,0.07218749821186066
1772389446064390400,2.399390380859375,-0.004399999976158142,0.03492499887943268,0.01691249944269657
1772389446084447000,2.419447021484375,-0.011962499469518661,0.05623750016093254,-0.042762499302625656
1772389446104503600,2.439503662109375,0.008387500420212746,0.036024998873472214,-0.012924999929964542
1772389446124560100,2.45956005859375,0.012649999931454659,0.038087498396635056,0.004124999977648258
1772389446144616700,2.47961669921875,0.0030249999836087227,0.05087500065565109,0.007287499960511923
1772389446164673500,2.499673583984375,0.005087499972432852,0.05197500064969063,0.0317624993622303
1772389446184729900,2.519729736328125,0.010449999943375587,0.02956249937415123,0.04661250114440918
1772389446204786700,2.53978662109375,0.0030249999836087227,-0.005499999970197678,0.03492499887943268
1772389446224843300,2.55984326171875,0.007287499960511923,-0.010862499475479126,0.028599999845027924
1772389446244899800,2.57989990234375,0.013612499460577965,-0.014024999924004078,0.03492499887943268
1772389446264956400,2.599956298828125,0.009349999949336052,-0.0034374999813735485,0.04235000163316727
1772389446285013000,2.620012939453125,0.007287499960511923,-0.004537499975413084,0.023237500339746475
1772389446305069600,2.640069580078125,-0.011962499469518661,-0.013062499463558197,0.015812499448657036
1772389446325126400,2.66012646484375,-0.0034374999813735485,-0.0193875003606081,0.026399999856948853
1772389446345182700,2.6801826171875,0.0147124994546175,-0.035337500274181366,0.013612499460577965
1772389446365239300,2.7002392578125,-0.00013749999925494194,-0.040699999779462814,0.04138749837875366
1772389446385296000,2.7202958984375,-0.02474999986588955,0.008249999955296516,0.09143749624490738
1772389446405352400,2.7403525390625,-0.014024999924004078,0.011549999937415123,0.07548750191926956
1772389446425409000,2.760408935546875,-0.005499999970197678,-0.035337500274181366,0.036024998873472214
1772389446445465600,2.780465576171875,-0.00976249948143959,-0.022549999877810478,0.03396249935030937
1772389446465522200,2.800522216796875,0.008387500420212746,-0.021587500348687172,0.03712499886751175
1772389446485578800,2.820578857421875,0.0147124994546175,-0.06847500056028366,0.008387500420212746
1772389446505635000,2.840635009765625,-0.005499999970197678,-0.082225002348423,0.018975000828504562
1772389446525691600,2.860691650390625,-0.015124999918043613,-0.04179999977350235,0.07864999771118164
1772389446545748200,2.880748291015625,-0.0034374999813735485,-0.015124999918043613,0.11811249703168869
1772389446565804800,2.9008046875,0.009349999949336052,0.008249999955296516,0.09459999948740005
1772389446585861400,2.920861328125,0.017875000834465027,0.023237500339746475,0.021175000816583633
1772389446605918000,2.94091796875,0.006187499966472387,0.01251249946653843,-0.04386249929666519
1772389446625974800,2.960974853515625,-0.007699999958276749,0.01677500084042549,-0.05348749831318855
1772389446646031400,2.98103125,0.0030249999836087227,0.025299999862909317,-0.006599999964237213
1772389446666088000,3.001087890625,0.012649999931454659,0.02419999986886978,0.038087498396635056
1772389446686144500,3.02114453125,0.0008249999955296516,0.01677500084042549,0.04881250113248825
1772389446706201000,3.041201171875,-0.015124999918043613,-0.004537499975413084,0.0541750006377697
1772389446726257700,3.061257568359375,-0.00976249948143959,-0.0034374999813735485,0.06902500241994858
1772389446746314200,3.081314208984375,0.0147124994546175,-0.004537499975413084,0.053075000643730164
1772389446766370800,3.101370849609375,0.010449999943375587,-0.010862499475479126,0.008387500420212746
1772389446786427400,3.121427490234375,-0.011962499469518661,0.0030249999836087227,0.02433750033378601
1772389446806484000,3.14148388671875,-0.012924999929964542,-0.00976249948143959,0.045649997889995575
1772389446826540500,3.16154052734375,-0.004399999976158142,-0.021587500348687172,0.03492499887943268
1772389446846596900,3.181596923828125,-0.007699999958276749,-0.014024999924004078,0.045649997889995575
1772389446866653700,3.20165380859375,0.0019249999895691872,-0.01732499897480011,0.04028749838471413
1772389446886710300,3.221710205078125,-0.007699999958276749,-0.03217500075697899,0.006187499966472387
1772389446906766800,3.241766845703125,-0.022549999877810478,-0.0034374999813735485,0.017875000834465027
1772389446926823400,3.261823486328125,-0.02681249938905239,0.02419999986886978,0.05087500065565109
1772389446946880000,3.2818798828125,-0.006599999964237213,0.020075000822544098,0.03492499887943268
1772389446966936600,3.3019365234375,0.011549999937415123,0.030662499368190765,0.018975000828504562
1772389446986993200,3.3219931640625,0.009349999949336052,0.010449999943375587,0.0030249999836087227
1772389447007049500,3.342049560546875,-0.012924999929964542,-0.035337500274181366,-0.020487500354647636
1772389447027106300,3.362106201171875,-0.018287500366568565,0.009349999949336052,0.01691249944269657
1772389447047163000,3.382162841796875,0.007287499960511923,0.0147124994546175,0.05197500064969063
1772389447067219500,3.402219482421875,0.004124999977648258,-0.018287500366568565,0.020075000822544098
1772389447087276000,3.422276123046875,0.004124999977648258,-0.006599999964237213,0.004124999977648258
1772389447107332600,3.44233251953125,0.005087499972432852,-0.005499999970197678,0.012649999931454659
1772389447127389200,3.46238916015625,-0.016224998980760574,-0.005499999970197678,0.01691249944269657
1772389447147445800,3.48244580078125,-0.014024999924004078,0.0008249999955296516,0.036024998873472214
1772389447167502300,3.50250244140625,-0.00013749999925494194,-0.021587500348687172,0.03492499887943268
1772389447187559000,3.522558837890625,-0.015124999918043613,-0.04386249929666519,0.0147124994546175
1772389447207615500,3.542615478515625,-0.0012374999932944775,-0.03217500075697899,0.05843750014901161
1772389447227672000,3.562672119140625,0.01691249944269657,-0.0471624992787838,0.06366249918937683
1772389447247728600,3.582728759765625,-0.012924999929964542,-0.0471624992787838,0.05087500065565109
1772389447267785200,3.60278515625,-0.02474999986588955,-0.02474999986588955,0.08401250094175339
1772389447287841800,3.622841796875,-0.007699999958276749,-0.06201250106096268,0.05939999967813492
1772389447307898000,3.642898193359375,-0.010862499475479126,-0.082225002348423,0.03492499887943268
1772389447327954700,3.66295458984375,-0.02681249938905239,-0.0471624992787838,0.11591249704360962
1772389447348011300,3.68301123046875,-0.01718750037252903,0.005087499972432852,0.15633749961853027
1772389447368068000,3.703068115234375,-0.016224998980760574,-0.004537499975413084,0.07864999771118164
1772389447388124400,3.72312451171875,-0.023649999871850014,0.008249999955296516,0.008387500420212746
1772389447408181000,3.743180908203125,-0.007699999958276749,0.011549999937415123,-0.004399999976158142
1772389447428237600,3.763237548828125,-0.0034374999813735485,-0.004537499975413084,-0.042762499302625656
1772389447448294100,3.783294189453125,-0.012924999929964542,0.010449999943375587,-0.00976249948143959
1772389447468350700,3.803350830078125,0.020075000822544098,0.04235000163316727,0.08923749625682831
1772389447488407300,3.8234072265625,0.017875000834465027,0.03698749840259552,0.10202500224113464
1772389447508463900,3.8434638671875,0.005087499972432852,0.05197500064969063,0.05843750014901161
1772389447528520400,3.8635205078125,-0.0034374999813735485,0.03382499888539314,0.010449999943375587
1772389447548577000,3.883576904296875,-0.004399999976158142,0.005087499972432852,-0.05664999783039093
1772389447568633300,3.90363330078125,0.006187499966472387,-0.0034374999813735485,-0.03217500075697899
1772389447588690000,3.92368994140625,0.005087499972432852,0.011549999937415123,0.038087498396635056
1772389447608746800,3.943746826171875,-0.00976249948143959,0.021037500351667404,0.09459999948740005
1772389447628803000,3.963802978515625,-0.01718750037252903,0.018975000828504562,0.0999625027179718
1772389447648860000,3.98385986328125,-0.018287500366568565,0.0008249999955296516,0.06159999966621399
1772389447668916500,4.00391650390625,-0.008662499487400055,-0.006599999964237213,0.05087500065565109
1772389447688972800,4.023972900390625,0.0030249999836087227,0.007287499960511923,0.08071249723434448
1772389447709029400,4.044029296875,0.007287499960511923,0.008249999955296516,0.05843750014901161
1772389447729086000,4.0640859375,-0.00013749999925494194,-0.021587500348687172,-0.005499999970197678
1772389447749142800,4.084142822265625,-0.021449999883770943,-0.027912499383091927,-0.025712499395012856
1772389447769199000,4.10419921875,-0.014024999924004078,-0.011962499469518661,0.027499999850988388
1772389447789255700,4.124255615234375,0.01691249944269657,-0.006599999964237213,0.06366249918937683
1772389447809312300,4.144312255859375,0.023237500339746475,-0.010862499475479126,0.045649997889995575
1772389447829368800,4.164368896484375,0.008387500420212746,0.005087499972432852,0.03918749839067459
1772389447849425400,4.18442529296875,-0.002337499987334013,0.028462499380111694,0.049912501126527786
1772389447869482000,4.20448193359375,0.005087499972432852,0.02419999986886978,0.02969999983906746
1772389447889538600,4.22453857421875,0.020075000822544098,0.038087498396635056,0.012649999931454659
1772389447909595100,4.24459521484375,0.032862499356269836,0.0625625029206276,0.0317624993622303
1772389447929651700,4.264651611328125,0.02433750033378601,0.0658624991774559,-0.006599999964237213
1772389447949708300,4.284708251953125,0.008387500420212746,0.04028749838471413,-0.08112499862909317
1772389447969764900,4.304764892578125,0.009349999949336052,0.02956249937415123,-0.06091250106692314
1772389447989821400,4.324821533203125,0.013612499460577965,0.017875000834465027,0.006187499966472387
1772389448009877800,4.344877685546875,0.011549999937415123,0.02956249937415123,0.047712501138448715
1772389448029934300,4.364934326171875,0.009349999949336052,0.025299999862909317,0.057337500154972076
1772389448049991000,4.384990966796875,-0.0034374999813735485,-0.0034374999813735485,0.011549999937415123
1772389448070047500,4.405047607421875,-0.015124999918043613,-0.029012499377131462,0.0030249999836087227
1772389448090104300,4.425104248046875,-0.00013749999925494194,-0.007699999958276749,0.06366249918937683
1772389448110160600,4.44516064453125,0.012649999931454659,0.006187499966472387,0.0849749967455864
1772389448130217200,4.46521728515625,0.008387500420212746,-0.0034374999813735485,0.049912501126527786
1772389448150273800,4.485273681640625,-0.004399999976158142,-0.025849999859929085,0.006187499966472387
1772389448170330000,4.505330078125,-0.004399999976158142,-0.031075000762939453,0.020075000822544098
1772389448190386700,4.52538671875,-0.005499999970197678,-0.011962499469518661,0.08071249723434448
1772389448210443300,4.545443359375,-0.004399999976158142,0.007287499960511923,0.1266375035047531
1772389448230499800,4.565499755859375,0.0019249999895691872,0.03272499889135361,0.13928750157356262
1772389448250556400,4.585556396484375,0.01691249944269657,0.011549999937415123,0.07218749821186066
1772389448270612700,4.60561279296875,0.007287499960511923,-0.01732499897480011,0.0008249999955296516
1772389448290669300,4.62566943359375,0.0019249999895691872,0.003987499978393316,-0.00013749999925494194
1772389448310726000,4.645725830078125,0.011549999937415123,0.018975000828504562,0.0147124994546175
1772389448330782500,4.665782470703125,0.012649999931454659,0.009349999949336052,-0.008662499487400055
1772389448350839300,4.68583935546875,-0.002337499987334013,0.02213750034570694,0.0019249999895691872
1772389448370895600,4.7058955078125,0.0030249999836087227,0.02956249937415123,0.04661250114440918
1772389448390952200,4.7259521484375,0.006187499966472387,0.02419999986886978,0.030662499368190765
1772389448411008800,4.7460087890625,-0.002337499987334013,0.018975000828504562,0.0147124994546175
1772389448431065000,4.766065185546875,0.0019249999895691872,0.027499999850988388,0.025437500327825546
1772389448451121700,4.78612158203125,0.005087499972432852,0.036024998873472214,0.015812499448657036
1772389448471178200,4.80617822265625,0.010449999943375587,0.05197500064969063,-0.0012374999932944775
1772389448491234800,4.82623486328125,0.0317624993622303,0.06159999966621399,-0.010862499475479126
1772389448511291400,4.84629150390625,0.036024998873472214,0.013612499460577965,-0.03959999978542328
1772389448531348000,4.866347900390625,0.008387500420212746,0.015812499448657036,-0.05348749831318855
1772389448551404300,4.886404296875,-0.011962499469518661,0.03272499889135361,0.013612499460577965
1772389448571461000,4.906461181640625,-0.004399999976158142,0.0147124994546175,0.05087500065565109
1772389448591517700,4.926517578125,0.011549999937415123,-0.027912499383091927,0.02213750034570694
1772389448611574000,4.946573974609375,0.0030249999836087227,-0.04496249929070473,-0.006599999964237213
1772389448631630600,4.966630615234375,-0.002337499987334013,-0.016224998980760574,0.03396249935030937
1772389448651687200,4.986687255859375,0.011549999937415123,0.01251249946653843,0.06270000338554382
1772389448671743700,5.00674365234375,0.005087499972432852,0.009349999949336052,0.026399999856948853
1772389448691800300,5.02680029296875,-0.00976249948143959,0.0008249999955296516,-0.0034374999813735485
1772389448711857000,5.04685693359375,-0.0012374999932944775,-0.015124999918043613,-0.00013749999925494194
1772389448731913500,5.06691357421875,0.009349999949336052,-0.008799999952316284,0.04455000162124634
1772389448751969800,5.0869697265625,0.017875000834465027,0.02213750034570694,0.09679999947547913
1772389448772026400,5.1070263671875,0.004124999977648258,-0.0012374999932944775,0.047712501138448715
1772389448792083000,5.1270830078125,-0.022549999877810478,-0.02681249938905239,-0.012924999929964542
1772389448812139500,5.147139404296875,-0.00976249948143959,-0.010862499475479126,0.01691249944269657
1772389448832196000,5.167196044921875,0.013612499460577965,-0.02474999986588955,0.025437500327825546
1772389448852252700,5.187252685546875,0.0030249999836087227,-0.016224998980760574,0.02433750033378601
1772389448872309200,5.207309326171875,0.0030249999836087227,0.0019249999895691872,0.06902500241994858
1772389448892365600,5.227365478515625,0.0008249999955296516,-0.027912499383091927,0.04138749837875366
1772389448912422100,5.247422119140625,-0.00013749999925494194,-0.05142499879002571,-0.005499999970197678
1772389448932478700,5.267478759765625,-0.008662499487400055,-0.05142499879002571,0.02213750034570694
1772389448952535000,5.28753515625,-0.02681249938905239,-0.031075000762939453,0.07548750191926956
1772389448972591600,5.307591552734375,-0.0034374999813735485,0.02956249937415123,0.10628750175237656
1772389448992648200,5.327648193359375,0.032862499356269836,0.04235000163316727,0.08607500046491623
1772389449012704800,5.347704833984375,0.007287499960511923,0.011549999937415123,0.010449999943375587
1772389449032761000,5.367760986328125,-0.011962499469518661,-0.0002749999985098839,-0.022549999877810478
1772389449052817700,5.387817626953125,-0.010862499475479126,0.01251249946653843,-0.015124999918043613
1772389449072874200,5.407874267578125,-0.0012374999932944775,0.028462499380111694,0.03396249935030937
1772389449092930800,5.427930908203125,0.004124999977648258,0.01251249946653843,0.04138749837875366
1772389449112987400,5.4479873046875,-0.005499999970197678,-0.03753750026226044,0.013612499460577965
1772389449133044000,5.4680439453125,-0.00976249948143959,-0.11426249891519547,0.004124999977648258
1772389449153100300,5.488100341796875,-0.042762499302625656,-0.11852499842643738,0.02433750033378601
1772389449173156900,5.508156982421875,-0.040699999779462814,-0.07163749635219574,0.1073874980211258
1772389449193213400,5.52821337890625,-0.018287500366568565,-0.03437500074505806,0.1531749963760376
1772389449213269800,5.548269775390625,0.010449999943375587,-0.02681249938905239,0.10422500222921371
1772389449233326600,5.56832666015625,0.01691249944269657,-0.057750001549720764,-0.005499999970197678
1772389449253383000,5.5883828125,-0.00013749999925494194,-0.06847500056028366,-0.06407500058412552
1772389449273439700,5.608439697265625,0.0030249999836087227,-0.020487500354647636,-0.004399999976158142
1772389449293496000,5.62849609375,0.005087499972432852,-0.0012374999932944775,0.04661250114440918
1772389449313552600,5.648552734375,-0.008662499487400055,0.0008249999955296516,0.04235000163316727
1772389449333609200,5.668609130859375,0.004124999977648258,0.009349999949336052,0.05197500064969063
1772389449353665500,5.68866552734375,0.017875000834465027,-0.004537499975413084,0.023237500339746475
1772389449373722000,5.70872216796875,0.0030249999836087227,-0.011962499469518661,-0.0034374999813735485
1772389449393778700,5.72877880859375,-0.010862499475479126,0.027499999850988388,0.04235000163316727
1772389449413835000,5.7488349609375,0.009349999949336052,0.003987499978393316,0.047712501138448715
1772389449433891600,5.7688916015625,0.020075000822544098,-0.016224998980760574,-0.008662499487400055
1772389449453948000,5.788947998046875,0.008387500420212746,-0.01732499897480011,0.005087499972432852
1772389449474004500,5.80900439453125,0.005087499972432852,0.005087499972432852,0.032862499356269836
1772389449494061000,5.82906103515625,-0.00013749999925494194,0.010449999943375587,0.027499999850988388
1772389449514118000,5.849117919921875,-0.002337499987334013,-0.004537499975413084,0.0030249999836087227
1772389449534174200,5.86917431640625,-0.0012374999932944775,-0.01732499897480011,-0.0012374999932944775
1772389449554230500,5.88923046875,-0.008662499487400055,-0.011962499469518661,0.023237500339746475
1772389449574287400,5.909287353515625,-0.0193875003606081,-0.016224998980760574,0.055137500166893005
1772389449594343700,5.92934375,-0.018287500366568565,-0.031075000762939453,0.0541750006377697
1772389449614400300,5.949400146484375,-0.021449999883770943,-0.033275000751018524,0.04028749838471413
1772389449634456600,5.96945654296875,-0.011962499469518661,-0.008799999952316284,0.05843750014901161
1772389449654513200,5.98951318359375,-0.006599999964237213,-0.01732499897480011,0.036024998873472214
1772389449674569700,6.00956982421875,-0.007699999958276749,-0.005499999970197678,0.025437500327825546
1772389449694626000,6.0296259765625,-0.006599999964237213,0.02956249937415123,0.049912501126527786
1772389449714682600,6.0496826171875,0.005087499972432852,0.0317624993622303,0.020075000822544098
1772389449734739200,6.0697392578125,0.0030249999836087227,0.01677500084042549,-0.023649999871850014
1772389449754795500,6.08979541015625,-0.00976249948143959,0.02956249937415123,-0.014024999924004078
1772389449774852000,6.10985205078125,-0.008662499487400055,0.03492499887943268,0.01691249944269657
1772389449794908400,6.129908447265625,-0.008662499487400055,0.011549999937415123,0.009349999949336052
1772389449814965200,6.14996533203125,-0.023649999871850014,0.005087499972432852,0.02969999983906746
1772389449835021600,6.170021484375,-0.021449999883770943,-0.005499999970197678,0.043449997901916504
1772389449855078100,6.190078125,-0.010862499475479126,-0.02681249938905239,0.027499999850988388
1772389449875134700,6.210134765625,0.0008249999955296516,-0.027912499383091927,0.03918749839067459
1772389449895191300,6.23019140625,-0.014024999924004078,-0.010862499475479126,0.055137500166893005
1772389449915247600,6.25024755859375,-0.018287500366568565,-0.002337499987334013,0.03492499887943268
1772389449935304200,6.27030419921875,-0.005499999970197678,0.0030249999836087227,0.018975000828504562
1772389449955360500,6.290360595703125,0.015812499448657036,0.023237500339746475,0.013612499460577965
1772389449975417000,6.3104169921875,0.01691249944269657,0.017875000834465027,-0.015124999918043613
1772389449995473700,6.3304736328125,-0.0012374999932944775,0.007287499960511923,-0.03217500075697899
1772389450015530200,6.3505302734375,-0.011962499469518661,0.006187499966472387,-0.029975000768899918
1772389450035586800,6.3705869140625,-0.01718750037252903,0.0147124994546175,0.011549999937415123
1772389450055643100,6.39064306640625,-0.018287500366568565,0.0317624993622303,0.05843750014901161
1772389450075699700,6.41069970703125,-0.0034374999813735485,0.030662499368190765,0.038087498396635056
1772389450095756300,6.43075634765625,0.005087499972432852,0.0019249999895691872,-0.007699999958276749
1772389450115812600,6.4508125,-0.0012374999932944775,0.0030249999836087227,-0.008662499487400055
1772389450135869200,6.470869140625,-0.012924999929964542,0.02213750034570694,0.026399999856948853
1772389450155925800,6.49092578125,-0.020487500354647636,0.03272499889135361,0.03918749839067459
1772389450175982000,6.510982177734375,-0.008662499487400055,0.02419999986886978,0.032862499356269836
1772389450196038700,6.53103857421875,-0.010862499475479126,0.0019249999895691872,0.032862499356269836
1772389450216095000,6.551094970703125,-0.02681249938905239,-0.029012499377131462,0.047712501138448715
1772389450236151800,6.57115185546875,-0.027912499383091927,-0.014024999924004078,0.07012499868869781
1772389450256208100,6.5912080078125,-0.006599999964237213,0.009349999949336052,0.1116499975323677
1772389450276264700,6.6112646484375,-0.005499999970197678,0.010449999943375587,0.07328750193119049
1772389450296321300,6.6313212890625,-0.006599999964237213,0.03272499889135361,0.007287499960511923
1772389450316377900,6.6513779296875,0.008387500420212746,0.05087500065565109,-0.00976249948143959
1772389450336434200,6.67143408203125,0.011549999937415123,0.030662499368190765,-0.04922499880194664
1772389450356490800,6.69149072265625,-0.00013749999925494194,0.045512501150369644,-0.057750001549720764
1772389450376547000,6.711547119140625,0.0008249999955296516,0.07218749821186066,-0.002337499987334013
1772389450396603600,6.731603759765625,-0.0012374999932944775,0.05087500065565109,-0.0034374999813735485
1772389450416660000,6.751659912109375,-0.012924999929964542,0.028462499380111694,-0.0193875003606081
1772389450436716500,6.771716552734375,-0.020487500354647636,0.03382499888539314,0.004124999977648258
1772389450456773000,6.791773193359375,-0.01718750037252903,0.018975000828504562,0.026399999856948853
1772389450476829700,6.81182958984375,-0.010862499475479126,-0.013062499463558197,0.045649997889995575
1772389450496886000,6.831885986328125,-0.0034374999813735485,-0.0193875003606081,0.0658624991774559
1772389450516942300,6.8519423828125,0.0008249999955296516,-0.015124999918043613,0.06476250290870667
1772389450536999200,6.871999267578125,0.008387500420212746,-0.035337500274181366,0.032862499356269836
1772389450557055200,6.89205517578125,0.0030249999836087227,-0.050324998795986176,0.012649999931454659
1772389450577111800,6.91211181640625,0.006187499966472387,-0.035337500274181366,0.018975000828504562
1772389450597168400,6.93216845703125,0.011549999937415123,-0.03437500074505806,0.027499999850988388
1772389450617225000,6.952224853515625,0.0030249999836087227,-0.022549999877810478,0.038087498396635056
1772389450637281300,6.97228125,0.004124999977648258,-0.0002749999985098839,0.03396249935030937
1772389450657337900,6.992337890625,0.010449999943375587,-0.01732499897480011,0.02433750033378601
1772389450677394400,7.01239453125,-0.011962499469518661,-0.008799999952316284,0.032862499356269836
1772389450697450800,7.03245068359375,-0.02681249938905239,0.020075000822544098,0.0541750006377697
1772389450717507300,7.05250732421875,-0.010862499475479126,0.0317624993622303,0.047712501138448715
1772389450737563600,7.072563720703125,-0.00013749999925494194,0.010449999943375587,0.010449999943375587
1772389450757620200,7.0926201171875,-0.03217500075697899,-0.0002749999985098839,0.0030249999836087227
1772389450777676500,7.112676513671875,-0.03217500075697899,-0.015124999918043613,0.04138749837875366
1772389450797733000,7.132733154296875,-0.00013749999925494194,-0.048124998807907104,0.057337500154972076
1772389450817789700,7.152789794921875,-0.005499999970197678,-0.040699999779462814,0.07122500240802765
1772389450837846000,7.172845947265625,-0.02474999986588955,-0.015124999918043613,0.0849749967455864
1772389450857902600,7.192902587890625,-0.025712499395012856,-0.005499999970197678,0.055137500166893005
1772389450877959200,7.212959228515625,-0.008662499487400055,-0.023649999871850014,0.0317624993622303
1772389450898015700,7.233015625,0.006187499966472387,-0.04496249929070473,-0.0034374999813735485
1772389450918072000,7.253072021484375,-0.008662499487400055,-0.04179999977350235,0.012649999931454659
1772389450938128600,7.273128662109375,-0.020487500354647636,-0.040699999779462814,0.04881250113248825
1772389450958185000,7.29318505859375,-0.01718750037252903,-0.0471624992787838,0.07122500240802765
1772389450978241500,7.313241455078125,-0.012924999929964542,-0.042899999767541885,0.07438749819993973
1772389450998297900,7.3332978515625,-0.010862499475479126,-0.040699999779462814,0.07644999772310257
1772389451018354400,7.3533544921875,-0.00976249948143959,-0.018287500366568565,0.06159999966621399
1772389451038410800,7.37341064453125,0.0147124994546175,-0.022549999877810478,0.03396249935030937
1772389451058467300,7.39346728515625,0.015812499448657036,-0.05664999783039093,-0.029975000768899918
1772389451078524000,7.41352392578125,-0.004399999976158142,-0.048124998807907104,-0.04606249928474426
1772389451098580200,7.433580322265625,-0.005499999970197678,-0.014024999924004078,0.02213750034570694
1772389451118636800,7.45363671875,0.007287499960511923,-0.013062499463558197,0.049912501126527786
1772389451138693000,7.473693115234375,-0.005499999970197678,-0.015124999918043613,0.026399999856948853
1772389451158749700,7.493749755859375,-0.025712499395012856,0.007287499960511923,0.02969999983906746
1772389451178806000,7.513805908203125,-0.016224998980760574,0.008249999955296516,0.004124999977648258
1772389451198862600,7.533862548828125,-0.005499999970197678,-0.007699999958276749,-0.03217500075697899
1772389451218919000,7.5539189453125,-0.0034374999813735485,0.008249999955296516,-0.00976249948143959
1772389451238975500,7.5739755859375,0.007287499960511923,0.017875000834465027,0.007287499960511923
1772389451259032000,7.594031982421875,-0.0012374999932944775,0.02419999986886978,0.010449999943375587
1772389451279088400,7.61408837890625,-0.011962499469518661,0.030662499368190765,0.027499999850988388
1772389451299145200,7.634145263671875,0.0030249999836087227,-0.014024999924004078,0.021175000816583633
1772389451319201500,7.654201416015625,0.008387500420212746,-0.082225002348423,-0.01718750037252903
1772389451339257900,7.6742578125,0.010449999943375587,-0.09184999763965607,0.038087498396635056
1772389451359314400,7.694314453125,0.009349999949336052,-0.08016250282526016,0.13722500205039978
1772389451379370800,7.714370849609375,-0.002337499987334013,-0.07369999587535858,0.16060000658035278
1772389451399427300,7.73442724609375,-0.012924999929964542,-0.06311249732971191,0.10106249898672104
1772389451419484000,7.75448388671875,0.010449999943375587,-0.08758749812841415,0.05087500065565109
1772389451439540200,7.774540283203125,0.036024998873472214,-0.11316250264644623,0.0030249999836087227
1772389451459596800,7.7945966796875,-0.002337499987334013,-0.07369999587535858,-0.00976249948143959
1772389451479653000,7.814653076171875,-0.014024999924004078,-0.007699999958276749,0.05197500064969063
1772389451499709400,7.83470947265625,-0.008662499487400055,0.006187499966472387,0.07218749821186066
1772389451519766300,7.854766357421875,-0.0034374999813735485,0.005087499972432852,0.04028749838471413
1772389451539822600,7.874822509765625,0.0008249999955296516,0.02213750034570694,0.004124999977648258
1772389451559879200,7.894879150390625,0.009349999949336052,0.04124999791383743,-0.008662499487400055
1772389451579935500,7.914935546875,0.0030249999836087227,0.05197500064969063,-0.020487500354647636
1772389451599992000,7.934991943359375,-0.0034374999813735485,0.04455000162124634,-0.011962499469518661
1772389451620048400,7.95504833984375,0.0030249999836087227,0.01677500084042549,-0.007699999958276749
1772389451640105000,7.97510498046875,0.006187499966472387,0.02213750034570694,0.032862499356269836
1772389451660161500,7.99516162109375,0.013612499460577965,0.04235000163316727,0.08401250094175339
1772389451680217900,8.0152177734375,0.005087499972432852,0.03698749840259552,0.038087498396635056
1772389451700274200,8.035274169921875,0.0019249999895691872,0.01251249946653843,-0.02681249938905239
1772389451720330800,8.055330810546875,0.008387500420212746,0.0030249999836087227,-0.03959999978542328
1772389451740387000,8.075386962890626,-0.0012374999932944775,-0.006599999964237213,-0.008662499487400055
1772389451760443600,8.095443603515625,-0.00976249948143959,0.008249999955296516,0.043449997901916504
1772389451780500000,8.1155,-0.006599999964237213,0.013612499460577965,0.07644999772310257
1772389451800556500,8.135556640625,-0.008662499487400055,0.0008249999955296516,0.06902500241994858
1772389451820612900,8.15561279296875,-0.014024999924004078,-0.0002749999985098839,0.025437500327825546
1772389451840669400,8.17566943359375,0.004124999977648258,-0.014024999924004078,-0.002337499987334013
1772389451860725800,8.195725830078125,0.004124999977648258,-0.015124999918043613,-0.00976249948143959
1772389451880782300,8.2157822265625,0.007287499960511923,0.015812499448657036,0.05087500065565109
1772389451900839000,8.2358388671875,0.02213750034570694,0.026399999856948853,0.0882750004529953
1772389451920895500,8.2558955078125,0.011549999937415123,-0.008799999952316284,0.05843750014901161
1772389451940951800,8.275951904296875,-0.01718750037252903,0.0008249999955296516,0.057337500154972076
1772389451961008400,8.29600830078125,-0.03217500075697899,0.05939999967813492,0.06696250289678574
1772389451981064700,8.316064697265626,0.0030249999836087227,0.08717499673366547,0.12333749979734421
1772389452001121300,8.336121337890624,0.007287499960511923,0.04235000163316727,0.06270000338554382
1772389452021177600,8.356177490234375,0.017875000834465027,0.030662499368190765,-0.048124998807907104
1772389452041234000,8.37623388671875,0.005087499972432852,0.007287499960511923,-0.10889999568462372
1772389452061290500,8.39629052734375,-0.004399999976158142,0.027499999850988388,-0.07686249911785126
1772389452081347000,8.41634716796875,0.0008249999955296516,0.0625625029206276,0.0147124994546175
1772389452101403400,8.4364033203125,0.010449999943375587,0.0317624993622303,0.03396249935030937
1772389452121460000,8.4564599609375,0.0008249999955296516,-0.015124999918043613,0.0147124994546175
1772389452141516300,8.476516357421875,-0.006599999964237213,-0.029012499377131462,0.036024998873472214
1772389452161573000,8.496572998046876,0.0030249999836087227,-0.042899999767541885,0.04881250113248825
1772389452181629400,8.51662939453125,0.008387500420212746,-0.04386249929666519,0.05623750016093254
1772389452201685800,8.536685791015625,0.008387500420212746,-0.03863750025629997,0.07218749821186066
1772389452221742300,8.556742431640625,0.004124999977648258,-0.03437500074505806,0.07644999772310257
1772389452241798700,8.576798583984376,0.005087499972432852,-0.06627500057220459,0.05939999967813492
1772389452261855200,8.596855224609374,0.004124999977648258,-0.06311249732971191,0.08181250095367432
1772389452281911600,8.61691162109375,0.008387500420212746,-0.03217500075697899,0.13089999556541443
1772389452301968100,8.636968017578125,-0.008662499487400055,-0.0364375002682209,0.10312499850988388
1772389452322024400,8.6570244140625,-0.0364375002682209,-0.03437500074505806,0.04881250113248825
1772389452342081000,8.6770810546875,-0.0193875003606081,-0.002337499987334013,0.05623750016093254
1772389452362137300,8.697137451171875,-0.002337499987334013,-0.018287500366568565,0.036024998873472214
1772389452382194000,8.71719384765625,-0.004399999976158142,-0.010862499475479126,0.006187499966472387
1772389452402250200,8.737250244140625,-0.008662499487400055,0.020075000822544098,0.017875000834465027
1772389452422306800,8.757306884765624,-0.00013749999925494194,0.038087498396635056,0.021175000816583633
1772389452442363100,8.777363037109374,0.013612499460577965,0.0147124994546175,-0.008662499487400055
1772389452462419500,8.79741943359375,0.011549999937415123,0.006187499966472387,-0.02474999986588955
1772389452482476000,8.81747607421875,0.007287499960511923,0.01677500084042549,0.009349999949336052
1772389452502532400,8.837532470703126,0.0030249999836087227,0.0147124994546175,0.049912501126527786
1772389452522589000,8.8575888671875,0.005087499972432852,-0.002337499987334013,0.0541750006377697
1772389452542645500,8.8776455078125,-0.002337499987334013,-0.020487500354647636,0.03918749839067459
1772389452562702000,8.8977021484375,-0.011962499469518661,-0.0471624992787838,0.06792499870061874
1772389452582758400,8.91775830078125,-0.016224998980760574,-0.04606249928474426,0.07438749819993973
1772389452602815000,8.93781494140625,-0.005499999970197678,-0.03959999978542328,0.0775500014424324
1772389452622871300,8.957871337890625,-0.0012374999932944775,-0.05142499879002571,0.04235000163316727
1772389452642927900,8.977927978515625,0.0008249999955296516,-0.04606249928474426,0.018975000828504562
1772389452662984200,8.997984130859376,0.007287499960511923,-0.03437500074505806,0.026399999856948853
1772389452683040800,9.018040771484374,0.007287499960511923,-0.029012499377131462,0.01691249944269657
1772389452703097300,9.038097412109375,0.011549999937415123,-0.0193875003606081,0.008387500420212746
1772389452723153700,9.058153564453125,0.005087499972432852,-0.010862499475479126,0.018975000828504562
1772389452743210200,9.078210205078125,0.0019249999895691872,0.0019249999895691872,0.0317624993622303
1772389452763266600,9.0982666015625,0.01691249944269657,0.017875000834465027,0.049912501126527786
1772389452783323100,9.1183232421875,0.023237500339746475,0.01677500084042549,0.04235000163316727
1772389452803379500,9.13837939453125,0.011549999937415123,0.0019249999895691872,-0.005499999970197678
1772389452823436000,9.15843603515625,0.011549999937415123,0.011549999937415123,-0.011962499469518661
1772389452843492400,9.178492431640626,0.008387500420212746,0.013612499460577965,0.011549999937415123
1772389452863549000,9.198548828125,-0.002337499987334013,0.01677500084042549,0.01691249944269657
1772389452883605200,9.218605224609375,-0.005499999970197678,0.023237500339746475,0.03712499886751175
1772389452903661800,9.238661865234375,0.004124999977648258,0.0147124994546175,0.023237500339746475
1772389452923718100,9.25871826171875,-0.0034374999813735485,-0.002337499987334013,-0.0193875003606081
1772389452943774700,9.278774658203124,-0.012924999929964542,0.0008249999955296516,-0.020487500354647636
1772389452963831000,9.2988310546875,0.0147124994546175,-0.0002749999985098839,0.010449999943375587
1772389452983887600,9.3188876953125,0.0147124994546175,0.006187499966472387,-0.00013749999925494194
1772389453003944000,9.33894384765625,-0.002337499987334013,0.0008249999955296516,-0.0012374999932944775
1772389453024000800,9.359000732421874,0.009349999949336052,0.0019249999895691872,0.017875000834465027
1772389453044056800,9.379056884765625,0.02213750034570694,-0.007699999958276749,-0.0012374999932944775
1772389453064113400,9.399113525390625,0.021175000816583633,-0.027912499383091927,-0.0012374999932944775
1772389453084169700,9.419169677734375,0.0019249999895691872,-0.0034374999813735485,0.03918749839067459
1772389453104226600,9.4392265625,-0.010862499475479126,0.023237500339746475,0.07012499868869781
1772389453124282600,9.45928271484375,-0.012924999929964542,0.021037500351667404,0.038087498396635056
1772389453144339200,9.479339111328125,-0.008662499487400055,0.0030249999836087227,0.011549999937415123
1772389453164395500,9.4993955078125,0.004124999977648258,-0.0034374999813735485,0.023237500339746475
1772389453184452000,9.5194521484375,0.005087499972432852,0.005087499972432852,0.03918749839067459
1772389453204508700,9.5395087890625,-0.014024999924004078,0.01251249946653843,0.05197500064969063
1772389453224565000,9.55956494140625,-0.004399999976158142,0.003987499978393316,0.04455000162124634
1772389453244621600,9.57962158203125,-0.002337499987334013,0.003987499978393316,0.04138749837875366
1772389453264678000,9.599677978515626,0.006187499966472387,0.0030249999836087227,0.07864999771118164
1772389453284734500,9.619734375,0.015812499448657036,0.007287499960511923,0.0849749967455864
1772389453304790800,9.639790771484375,0.010449999943375587,-0.00976249948143959,0.05087500065565109
1772389453324847400,9.659847412109375,-0.00013749999925494194,-0.016224998980760574,0.012649999931454659
1772389453344904000,9.679904052734376,-0.006599999964237213,0.0030249999836087227,0.026399999856948853
1772389453364960300,9.699960205078124,0.008387500420212746,0.007287499960511923,0.03712499886751175
1772389453385016800,9.720016845703125,-0.007699999958276749,0.011549999937415123,0.021175000816583633
1772389453405073400,9.740073486328125,-0.03849999979138374,0.011549999937415123,0.015812499448657036
1772389453425130000,9.7601298828125,-0.015124999918043613,0.008249999955296516,0.021175000816583633
1772389453445186600,9.7801865234375,0.02969999983906746,0.003987499978393316,0.02433750033378601
1772389453465243000,9.800242919921875,0.028599999845027924,-0.010862499475479126,0.036024998873472214
1772389453485299500,9.820299560546875,-0.012924999929964542,0.003987499978393316,0.043449997901916504
1772389453505356000,9.84035595703125,-0.01718750037252903,-0.002337499987334013,0.04028749838471413
1772389453525412400,9.860412353515626,0.004124999977648258,-0.023649999871850014,0.0147124994546175
1772389453545469000,9.880468994140625,0.008387500420212746,-0.04179999977350235,0.02969999983906746
1772389453565525500,9.900525390625,-0.00013749999925494194,-0.05458749830722809,0.11701250076293945
1772389453585581800,9.920581787109375,0.0019249999895691872,-0.0471624992787838,0.14891250431537628
1772389453605638400,9.940638427734376,-0.005499999970197678,-0.005499999970197678,0.22783750295639038
1772389453625694000,9.96069384765625,-0.05348749831318855,-0.030112499371170998,0.25011250376701355
1772389453645751300,9.980751220703125,-0.007699999958276749,-0.03437500074505806,0.13722500205039978
1772389453665808100,10.00080810546875,-0.029975000768899918,-0.07163749635219574,0.045649997889995575
1772389453685864400,10.020864501953126,-0.03217500075697899,-0.04179999977350235,0.012649999931454659
1772389453705921000,10.040921142578124,-0.02474999986588955,-0.027912499383091927,0.010449999943375587
1772389453725977600,10.0609775390625,-0.042762499302625656,-0.015124999918043613,0.0030249999836087227
1772389453746034200,10.0810341796875,-0.0364375002682209,-0.013062499463558197,-0.00013749999925494194
1772389453766090800,10.1010908203125,0.004124999977648258,-0.021587500348687172,0.04235000163316727
