time,seconds_elapsed,z,y,x
1772408614879239200,0.2022392578125,1.4374899864196777,-7.808401107788086,1.625115990638733
1772408614899299800,0.2222998046875,1.0299919843673706,-7.239520072937012,1.556892991065979
1772408614919360500,0.242360595703125,0.7719939947128296,-5.690017223358154,1.4423140287399292
1772408614939421400,0.26242138671875,1.1367950439453125,-1.5848139524459839,-0.1885479986667633
1772408614959482000,0.282482177734375,1.4318360090255737,3.4057490825653076,-2.1884379386901855
1772408614979542800,0.302542724609375,0.5350689888000488,7.160599231719971,-3.786750078201294
1772408614999603500,0.322603515625,-0.6583449840545654,8.90608024597168,-3.4333999156951904
1772408615019664400,0.342664306640625,-1.95387601852417,9.28326416015625,-1.9907200336456299
1772408615039725000,0.36272509765625,-2.9247000217437744,9.137810707092285,-1.1077760457992554
1772408615059785500,0.382785400390625,-2.8989601135253906,8.314249038696289,-0.578220009803772
1772408615079846400,0.402846435546875,-2.655967950820923,6.888998985290527,-0.20977599918842316
1772408615099907000,0.422906982421875,-2.111974000930786,5.156798839569092,0.05457799881696701
1772408615119967700,0.4429677734375,-1.1735789775848389,3.5638389587402344,-0.3083359897136688
1772408615140028400,0.4630283203125,-0.3436630070209503,2.349471092224121,-0.7162690162658691
1772408615160089000,0.483089111328125,0.2610679864883423,1.427577018737793,-0.9850149750709534
1772408615180149800,0.503149658203125,0.6992549896240234,0.5692610144615173,-1.4104119539260864
1772408615200210700,0.523210693359375,0.9138039946556091,-0.20218999683856964,-1.7755299806594849
1772408615220271400,0.543271240234375,1.2046430110931396,-1.418552041053772,-1.5124239921569824
1772408615240332000,0.56333203125,1.0805139541625977,-3.2972419261932373,-0.397938996553421
1772408615260392700,0.583392822265625,1.0404109954833984,-6.8953938484191895,1.1336480379104614
1772408615280453400,0.603453369140625,1.9739279747009277,-10.188314437866211,2.4677178859710693
1772408615300514000,0.62351416015625,2.56954288482666,-13.496252059936523,4.797375202178955
1772408615320574700,0.64357470703125,3.6932339668273926,-13.702601432800293,4.060298919677734
1772408615340635400,0.663635498046875,2.0217878818511963,-17.058879852294922,3.989840030670166
1772408615360696000,0.683696044921875,1.2150299549102783,-13.652704238891602,1.319870948791504
1772408615380756700,0.7037568359375,0.9664239883422852,-6.727764129638672,-1.347301959991455
1772408615400817400,0.7238173828125,1.4411389827728271,-0.8958110213279724,-3.485841989517212
1772408615420878300,0.74387841796875,0.8177109956741333,6.64975118637085,-4.737473964691162
1772408615440939000,0.76393896484375,-1.081030011177063,11.624601364135742,-2.98357892036438
1772408615460999400,0.78399951171875,-1.8512239456176758,12.389280319213867,-0.4492630064487457
1772408615481060000,0.80406005859375,-2.2641799449920654,12.151424407958984,1.6365890502929688
1772408615501120800,0.824120849609375,-3.0065441131591797,11.127538681030273,2.2836709022521973
1772408615521181700,0.844181640625,-3.2444350719451904,9.112431526184082,1.3141369819641113
1772408615541242400,0.864242431640625,-3.1643478870391846,7.113945007324219,0.2753100097179413
1772408615561303000,0.884302978515625,-3.264277935028076,4.670355796813965,-0.7413520216941833
1772408615581363700,0.90436376953125,-3.3906219005584717,3.077085018157959,-1.589081048965454
1772408615601424400,0.92442431640625,-1.4444979429244995,2.9408679008483887,-2.3648650646209717
1772408615621485000,0.944485107421875,3.070801019668579,1.7854939699172974,-2.7302920818328857
1772408615641545700,0.964545654296875,4.999839782714844,0.505994975566864,-2.7218329906463623
1772408615661606400,0.9846064453125,2.6590731143951416,0.12319599837064743,-1.668666958808899
1772408615681667000,1.0046669921875,0.7680580019950867,-1.163841962814331,2.043466091156006
1772408615701727700,1.024727783203125,0.05444600060582161,-0.6622740030288696,1.0371730327606201
1772408615721788400,1.044788330078125,-4.265242099761963,-1.7810189723968506,-3.8814609050750732
1772408615741849000,1.06484912109375,4.25420618057251,-5.410415172576904,1.5524300336837769
1772408615761910000,1.084909912109375,10.134565353393555,-6.402731895446777,2.8547439575195312
1772408615781970400,1.104970458984375,10.198850631713867,-9.027786254882812,4.378995895385742
1772408615802031000,1.125031005859375,8.021480560302734,-8.551029205322266,5.611996173858643
1772408615822091800,1.145091796875,2.7355849742889404,-6.276023864746094,6.5311970710754395
1772408615842152700,1.165152587890625,-2.05233097076416,-6.0400190353393555,3.9913580417633057
1772408615862213400,1.18521337890625,-0.9650650024414062,-4.797614097595215,1.4370859861373901
1772408615882274000,1.205274169921875,1.7999470233917236,-1.3724910020828247,-0.7559300065040588
1772408615902334700,1.225334716796875,2.8399579524993896,2.1196069717407227,-1.7295440435409546
1772408615922395100,1.24539501953125,1.6511659622192383,4.6852850914001465,-1.8780349493026733
1772408615942456000,1.2654560546875,-2.7198660373687744,5.849827766418457,-3.0800280570983887
1772408615962516700,1.285516845703125,-6.890293121337891,8.397462844848633,-2.8264219760894775
1772408615982577400,1.305577392578125,-7.856234073638916,8.101968765258789,-3.450737953186035
1772408616002638000,1.32563818359375,-6.001787185668945,7.111176013946533,-2.8541901111602783
1772408616022698800,1.34569873046875,-5.343029975891113,5.654541015625,-2.622551918029785
1772408616042759400,1.365759521484375,-3.6408228874206543,4.686832904815674,-1.5292420387268066
1772408616062820000,1.385820068359375,-2.485459089279175,2.7822659015655518,-1.3785929679870605
1772408616082880800,1.405880859375,-0.7659670114517212,1.8082129955291748,-1.24447500705719
1772408616102941400,1.42594140625,-0.7103729844093323,2.092170000076294,-0.5835790038108826
1772408616123002000,1.446002197265625,-1.9498989582061768,1.5601359605789185,-0.9476640224456787
1772408616143062500,1.4660625,-2.170319080352783,0.4345090091228485,-1.4085309505462646
1772408616163123500,1.48612353515625,0.4277440011501312,-1.1323920488357544,-1.5500249862670898
1772408616183184100,1.50618408203125,0.9069949984550476,-0.33471399545669556,1.612779974937439
1772408616203244800,1.526244873046875,2.7135961055755615,1.470628023147583,4.071824073791504
1772408616223305500,1.546305419921875,1.2388770580291748,-3.2706971168518066,2.209459066390991
1772408616243366100,1.5663662109375,-1.3896980285644531,-4.671757221221924,4.209967136383057
1772408616263426600,1.586426513671875,-0.1701579988002777,-6.667806148529053,8.192773818969727
1772408616283487200,1.6064873046875,1.3062729835510254,-9.730244636535645,10.71181869506836
1772408616303548200,1.626548095703125,6.761017799377441,-11.828996658325195,9.347055435180664
1772408616323608600,1.646608642578125,7.812014102935791,-10.110397338867188,7.576045036315918
1772408616343669200,1.666669189453125,4.478409767150879,-8.885116577148438,5.1912360191345215
1772408616363730000,1.68672998046875,3.7163290977478027,-6.192893981933594,0.7665879726409912
1772408616383790600,1.70679052734375,4.009862899780273,0.4680840075016022,1.076470971107483
1772408616403851300,1.726851318359375,-0.2689090073108673,5.111268043518066,-3.896423101425171
1772408616423912000,1.746911865234375,-4.639927864074707,6.973814010620117,-7.128338813781738
1772408616443972600,1.76697265625,-4.550342082977295,9.024651527404785,-7.012270927429199
1772408616464033300,1.787033203125,-4.2226738929748535,9.344522476196289,-6.462616920471191
1772408616484094000,1.807093994140625,-3.845339059829712,8.041216850280762,-5.571692943572998
1772408616504154600,1.827154541015625,-3.3194708824157715,5.971373081207275,-5.238954067230225
1772408616524215300,1.84721533203125,-4.635577201843262,4.230699062347412,-4.847163200378418
1772408616544275700,1.867275634765625,-4.982061862945557,4.2885589599609375,-2.7505300045013428
1772408616564336400,1.88733642578125,-1.464048981666565,4.1052470207214355,-1.062824010848999
1772408616584397300,1.907397216796875,-0.7360389828681946,2.5545969009399414,-1.099058985710144
1772408616604457700,1.927457763671875,-0.31363099813461304,1.6700780391693115,-0.8624470233917236
1772408616624518700,1.9475185546875,-0.47650501132011414,1.8816620111465454,-0.4427579939365387
1772408616644579300,1.967579345703125,-1.894003987312317,1.2317299842834473,-0.899806022644043
1772408616664639700,1.9876396484375,-0.5696030259132385,-0.38501501083374023,-0.8350449800491333
1772408616684700400,2.007700439453125,0.9155169725418091,-2.0816121101379395,-1.096835970878601
1772408616704761000,2.027760986328125,1.642812967300415,-3.4564900398254395,-0.035068999975919724
1772408616724821800,2.04782177734375,3.129451036453247,-4.530792236328125,1.5391440391540527
1772408616744882400,2.06788232421875,3.1395609378814697,-6.783033847808838,4.060114860534668
1772408616764942800,2.08794287109375,8.733247756958008,-11.069626808166504,4.458491802215576
1772408616785003500,2.10800341796875,10.771398544311523,-16.411701202392578,1.4499939680099487
1772408616805064200,2.128064208984375,13.678718566894531,-14.688559532165527,-0.4616039991378784
1772408616825124900,2.148124755859375,11.410975456237793,-11.685249328613281,2.074716091156006
1772408616845185300,2.168185302734375,6.4527812004089355,-5.168997764587402,-0.08742599934339523
1772408616865246000,2.188245849609375,-0.1393750011920929,2.5280001163482666,-1.751541018486023
1772408616885307000,2.208306884765625,-4.83310079574585,7.663200855255127,-1.6404329538345337
1772408616905367300,2.2283671875,-6.716880798339844,9.773759841918945,-1.7451460361480713
1772408616925428000,2.248427978515625,-8.600704193115234,9.294208526611328,-1.3521169424057007
1772408616945488600,2.268488525390625,-9.096563339233398,10.653766632080078,-0.7560930252075195
1772408616965549300,2.28854931640625,-8.462050437927246,10.103013038635254,1.0895249843597412
1772408616985609700,2.308609619140625,-7.57204008102417,7.356810092926025,0.47961899638175964
1772408617005670400,2.32867041015625,-5.667232036590576,5.364648818969727,-1.7755030393600464
1772408617025731000,2.34873095703125,-2.247385025024414,3.9581189155578613,-1.7588030099868774
1772408617045791700,2.368791748046875,-1.692307949066162,2.584095001220703,-0.6798419952392578
1772408617065852400,2.388852294921875,-1.474647045135498,2.159276008605957,-0.8382740020751953
1772408617085912800,2.408912841796875,-0.3501169979572296,1.881019949913025,-0.7586190104484558
1772408617105973500,2.428973388671875,0.7119050025939941,1.0816160440444946,-1.0780949592590332
1772408617126034200,2.4490341796875,0.64792400598526,0.8748930096626282,-0.8336759805679321
1772408617146094800,2.4690947265625,0.788739025592804,0.5559139847755432,-1.078940987586975
1772408617166155500,2.489155517578125,5.972591876983643,-2.4464681148529053,-1.609552025794983
1772408617186216000,2.5092158203125,6.195673942565918,-2.5739738941192627,-2.1244421005249023
1772408617206276600,2.529276611328125,7.2493391036987305,-1.9751789569854736,-0.5467529892921448
1772408617226337300,2.549337158203125,6.1650710105896,-3.072143077850342,0.8065959811210632
1772408617246398000,2.56939794921875,6.123257160186768,-4.202514171600342,1.3468769788742065
1772408617266458600,2.589458740234375,6.641805171966553,-5.355611801147461,3.1767020225524902
1772408617286519000,2.60951904296875,5.995045185089111,-4.9396891593933105,2.9565610885620117
1772408617306579700,2.629579833984375,2.71443510055542,-4.29655122756958,2.903649091720581
1772408617326640400,2.649640380859375,2.108349084854126,-3.2340409755706787,2.0933189392089844
1772408617346701000,2.669701171875,2.5922789573669434,-2.1640329360961914,1.6970549821853638
1772408617366761500,2.689761474609375,-1.1957770586013794,0.9919729828834534,0.7776439785957336
1772408617386822400,2.709822509765625,-3.484621047973633,3.967978000640869,-0.2418839931488037
1772408617406882800,2.7298828125,-4.174897193908691,3.4079830646514893,-0.6975070238113403
1772408617426943500,2.749943603515625,-7.482316970825195,4.120786190032959,-1.607606053352356
1772408617447004200,2.770004150390625,-8.545052528381348,4.26702880859375,-2.1364850997924805
1772408617467064600,2.790064697265625,-5.845643043518066,3.044023036956787,-2.8899879455566406
1772408617487125200,2.810125244140625,-7.295713901519775,3.6016180515289307,-2.491990089416504
1772408617507185700,2.830185546875,-7.202171802520752,2.826894998550415,-2.062391996383667
1772408617527246600,2.85024658203125,-3.8985369205474854,1.8983160257339478,-0.9283130168914795
1772408617547307300,2.870307373046875,-5.042029857635498,2.2058520317077637,-1.2154510021209717
1772408617567367700,2.89036767578125,-0.5920230150222778,1.9734820127487183,-0.8339599967002869
1772408617587428000,2.910427978515625,0.7919809818267822,-0.018014000728726387,1.5360310077667236
1772408617607488800,2.93048876953125,1.859984040260315,0.2527880072593689,0.45122501254081726
1772408617627549400,2.950549560546875,1.820786952972412,0.4398300051689148,-0.2310190051794052
1772408617647610000,2.970610107421875,1.4414299726486206,-0.4649350047111511,0.9055839776992798
1772408617667670500,2.99067041015625,1.6835440397262573,-0.6247479915618896,1.5804669857025146
1772408617687731200,3.010731201171875,2.693234920501709,-3.7197980880737305,3.1371729373931885
1772408617707792000,3.0307919921875,3.096987009048462,-5.881439208984375,-0.3958609998226166
1772408617727852500,3.0508525390625,5.249589920043945,-9.657951354980469,0.10331100225448608
1772408617747913000,3.070912841796875,6.363671779632568,-12.049562454223633,1.6914479732513428
1772408617767973400,3.090973388671875,6.48533821105957,-13.684449195861816,1.3435590267181396
1772408617788034000,3.111033935546875,12.003471374511719,-12.70595932006836,-0.738752007484436
1772408617808094700,3.1310947265625,10.508377075195312,-10.546367645263672,-0.9798020124435425
1772408617828155400,3.1511552734375,2.679500102996826,-5.523493766784668,-1.922240972518921
1772408617848215800,3.1712158203125,-1.8667999505996704,2.95880389213562,-1.786592960357666
1772408617868276500,3.1912763671875,-4.135039806365967,8.301443099975586,-0.93327397108078
1772408617888337200,3.211337158203125,-6.745632171630859,10.456354141235352,0.2365799993276596
1772408617908397600,3.2313974609375,-7.595705032348633,11.476283073425293,0.6508640050888062
1772408617928458000,3.2514580078125,-7.497364044189453,10.937826156616211,0.7766910195350647
1772408617948518700,3.2715185546875,-7.110691070556641,9.169461250305176,-0.02344599924981594
1772408617968579300,3.291579345703125,-6.0421528816223145,7.08676815032959,-0.3795570135116577
1772408617988640000,3.311639892578125,-4.688921928405762,5.0510149002075195,-0.9084460139274597
1772408618008700400,3.331700439453125,-3.1959381103515625,3.1904120445251465,-0.7555559873580933
1772408618028761000,3.351760986328125,-1.8591500520706177,1.8475290536880493,-0.6196449995040894
1772408618048821800,3.37182177734375,-0.916920006275177,0.851622998714447,-1.4045159816741943
1772408618068882200,3.391882080078125,-0.1223360002040863,0.4924989938735962,-1.6164129972457886
1772408618088942800,3.41194287109375,0.5989300012588501,0.4355989992618561,-1.2275300025939941
1772408618109003300,3.432003173828125,0.2383439987897873,0.43647900223731995,-0.5684239864349365
1772408618129064000,3.45206396484375,-0.6717240214347839,0.29798299074172974,0.046059999614953995
1772408618149124600,3.47212451171875,-1.218979001045227,-1.0320130586624146,0.5080479979515076
1772408618169185000,3.49218505859375,-0.9119830131530762,-3.591209888458252,0.8504379987716675
1772408618189245400,3.512245361328125,1.1608129739761353,-5.793768882751465,2.302751064300537
1772408618209306000,3.53230615234375,4.7654500007629395,-8.477415084838867,4.878201007843018
1772408618229366800,3.55236669921875,8.937159538269043,-11.784332275390625,6.405760765075684
1772408618249427200,3.57242724609375,10.128128051757812,-13.40186595916748,6.657408237457275
1772408618269487900,3.59248779296875,8.704103469848633,-11.685493469238281,5.078726768493652
1772408618289548500,3.612548583984375,5.68408203125,-9.744392395019531,4.321381092071533
1772408618309609000,3.63260888671875,1.7680649757385254,-4.326714992523193,2.8595049381256104
1772408618329669600,3.652669677734375,-1.1751470565795898,0.23702800273895264,-0.19879500567913055
1772408618349730000,3.67272998046875,-2.4993178844451904,5.922420978546143,-3.9526360034942627
1772408618369790700,3.692790771484375,-3.6386539936065674,9.413137435913086,-3.762108087539673
1772408618389851100,3.71285107421875,-4.910923957824707,10.859310150146484,-3.4152870178222656
1772408618409911600,3.73291162109375,-5.571938991546631,10.289848327636719,-3.19382905960083
1772408618429972200,3.75297216796875,-5.762351989746094,9.072678565979004,-3.1398630142211914
1772408618450032600,3.77303271484375,-5.482680797576904,7.135743141174316,-2.919891119003296
1772408618470093000,3.793093017578125,-4.887744903564453,5.459794044494629,-2.3527119159698486
1772408618490153700,3.81315380859375,-3.5965960025787354,4.16863489151001,-1.734969973564148
1772408618510214400,3.83321435546875,-2.3292770385742188,2.990108013153076,-1.4487760066986084
1772408618530274800,3.85327490234375,-1.249021053314209,2.1464860439300537,-1.1846200227737427
1772408618550335200,3.873335205078125,-0.3112170100212097,1.204388976097107,-1.5156960487365723
1772408618570396000,3.89339599609375,0.9158260226249695,0.6851109862327576,-1.4589569568634033
1772408618590456600,3.91345654296875,1.6670600175857544,0.5696889758110046,-0.563165009021759
1772408618610517000,3.93351708984375,0.9872480034828186,0.6813510060310364,0.07666700333356857
1772408618630577400,3.953577392578125,-0.0014009999576956034,0.8290809988975525,0.26213300228118896
1772408618650638000,3.97363818359375,0.03327900171279907,-0.8111349940299988,0.7097070217132568
1772408618670698800,3.99369873046875,0.6106230020523071,-3.351306915283203,1.6877650022506714
1772408618690759200,4.01375927734375,3.135698080062866,-5.244246006011963,2.243011951446533
1772408618710819800,4.03381982421875,5.279758930206299,-8.384197235107422,4.418409824371338
1772408618730880300,4.05388037109375,6.7942070960998535,-11.24815845489502,6.750728130340576
1772408618750940700,4.073940673828125,7.657765865325928,-14.001726150512695,7.491782188415527
1772408618771001300,4.09400146484375,8.441411972045898,-14.260580062866211,4.795025825500488
1772408618791061800,4.114061767578125,7.9139299392700195,-10.434864044189453,2.897620916366577
1772408618811122200,4.1341220703125,3.4335439205169678,-3.3678910732269287,1.5188959836959839
1772408618831182800,4.154182861328125,-1.7451640367507935,3.612886905670166,-1.569682002067566
1772408618851243500,4.174243408203125,-4.751331806182861,8.127108573913574,-3.7269461154937744
1772408618871304000,4.194303955078125,-6.105865955352783,10.142487525939941,-4.383156776428223
1772408618891364400,4.2143642578125,-7.765492916107178,10.381190299987793,-4.156125068664551
1772408618911425000,4.234425048828125,-8.92359447479248,9.898551940917969,-3.1352999210357666
1772408618931485400,4.2544853515625,-8.08287525177002,8.851641654968262,-2.261039972305298
1772408618951545900,4.2745458984375,-6.010300159454346,6.897313117980957,-1.8392319679260254
1772408618971606500,4.2946064453125,-3.4618399143218994,4.820250988006592,-1.77218496799469
1772408618991667000,4.3146669921875,-1.0942720174789429,3.004199981689453,-1.7705479860305786
1772408619011727400,4.334727294921875,0.13018199801445007,2.0105600357055664,-1.5788379907608032
1772408619031788000,4.3547880859375,0.469745010137558,1.5852479934692383,-1.4566709995269775
1772408619051848400,4.374848388671875,0.5765960216522217,1.0001980066299438,-1.3013370037078857
1772408619071909000,4.3949091796875,0.20847700536251068,0.5953590273857117,-1.2058689594268799
1772408619091969500,4.414969482421875,-0.31961798667907715,0.3458870053291321,-0.849494993686676
1772408619112030000,4.435030029296875,-0.1868939995765686,-0.2912899851799011,-0.5531960129737854
1772408619132090600,4.455090576171875,0.16648399829864502,-1.4010319709777832,0.31584200263023376
1772408619152151000,4.475151123046875,0.37718701362609863,-3.751224994659424,1.888674020767212
1772408619172211700,4.495211669921875,2.1097500324249268,-6.064980983734131,3.2941389083862305
1772408619192272100,4.515272216796875,6.355000019073486,-9.443183898925781,5.1233110427856445
1772408619212332800,4.535332763671875,11.419999122619629,-13.2361478805542,6.894649028778076
1772408619232393200,4.555393310546875,13.688798904418945,-14.915319442749023,7.716518878936768
1772408619252453600,4.57545361328125,9.626238822937012,-12.82105541229248,6.221216201782227
1772408619272514300,4.595514404296875,4.049790859222412,-7.828042984008789,2.814573049545288
1772408619292574700,4.61557470703125,-0.042566001415252686,-1.0888340473175049,-0.7363409996032715
1772408619312635100,4.63563525390625,-3.3668529987335205,5.280932903289795,-2.61387300491333
1772408619332695800,4.65569580078125,-5.543881893157959,8.965547561645508,-4.115097999572754
1772408619352756200,4.675756103515625,-6.539906024932861,10.066038131713867,-4.7096781730651855
1772408619372816600,4.695816650390625,-6.597524166107178,10.184030532836914,-4.369342803955078
1772408619392877300,4.715877197265625,-6.350819110870361,9.69682502746582,-3.8322739601135254
1772408619412937700,4.735937744140625,-5.451855182647705,7.966259956359863,-2.8226189613342285
1772408619432998100,4.755998046875,-4.039884090423584,5.845808029174805,-2.2124950885772705
1772408619453058600,4.77605859375,-2.9199070930480957,3.887845993041992,-1.882796049118042
1772408619473119200,4.796119140625,-2.155925989151001,2.449476957321167,-1.5558370351791382
1772408619493180000,4.816179931640625,-1.743939995765686,2.245181083679199,-1.1894689798355103
1772408619513240000,4.836239990234375,-1.7087520360946655,2.0433449745178223,-0.602774977684021
1772408619533300700,4.85630078125,-1.8478020429611206,1.9482760429382324,-0.5342199802398682
1772408619553361400,4.876361328125,-1.7638410329818726,1.6370209455490112,-0.9249759912490845
1772408619573421600,4.896421630859375,-1.1158729791641235,0.8328160047531128,-1.1439809799194336
1772408619593482200,4.916482177734375,-0.25509798526763916,-0.13054600358009338,-1.0687849521636963
1772408619613542700,4.936542724609375,0.25512099266052246,-1.066836953163147,-0.42622798681259155
1772408619633603300,4.956603271484375,0.9224960207939148,-2.4774699211120605,0.6078169941902161
1772408619653663700,4.976663818359375,1.7571970224380493,-4.447575092315674,1.5486539602279663
1772408619673724200,4.99672412109375,2.2769579887390137,-7.367660045623779,2.5285229682922363
1772408619693784600,5.01678466796875,3.1871659755706787,-12.606927871704102,4.905218124389648
1772408619713845000,5.036844970703125,8.632933616638184,-16.998342514038086,7.228174209594727
1772408619733905700,5.05690576171875,11.838345527648926,-19.745075225830078,9.517739295959473
1772408619753966300,5.07696630859375,8.791476249694824,-15.650459289550781,8.207792282104492
1772408619774026800,5.09702685546875,3.3491809368133545,-5.59236478805542,5.867033004760742
1772408619794087200,5.117087158203125,1.4977439641952515,3.936506986618042,1.9568270444869995
1772408619814147600,5.137147705078125,-1.588204026222229,10.936405181884766,-1.5569380521774292
1772408619834208000,5.1572080078125,-6.132163047790527,14.170724868774414,-3.7143499851226807
1772408619854268400,5.177268310546875,-8.34653091430664,13.945379257202148,-4.718679904937744
1772408619874329000,5.1973291015625,-8.23802375793457,11.708303451538086,-4.496543884277344
1772408619894389500,5.217389404296875,-7.058419227600098,9.565842628479004,-3.7292349338531494
1772408619914450200,5.2374501953125,-5.560335159301758,7.17587423324585,-3.270587921142578
1772408619934510600,5.257510498046875,-4.063467979431152,4.725499153137207,-3.1604700088500977
1772408619954571000,5.277571044921875,-1.629173994064331,2.9563989639282227,-3.030776023864746
1772408619974631700,5.297631591796875,0.8766599893569946,1.5683189630508423,-3.022221088409424
1772408619994691800,5.31769189453125,2.0629279613494873,0.9714549779891968,-2.924976110458374
1772408620014752500,5.33775244140625,2.2287418842315674,0.5891640186309814,-2.4783809185028076
1772408620034813000,5.35781298828125,1.8637930154800415,0.6689310073852539,-1.8923050165176392
1772408620054873300,5.377873291015625,0.7230349779129028,0.5007449984550476,-1.6514439582824707
1772408620074933800,5.397933837890625,-0.427170991897583,-0.033803001046180725,-1.3179550170898438
1772408620094994400,5.417994384765625,-0.9569370150566101,-1.01904296875,-0.6383640170097351
1772408620115054800,5.438054931640625,-0.5527499914169312,-2.8016340732574463,0.6765080094337463
1772408620135115300,5.458115234375,0.3545989990234375,-6.474106788635254,3.478005886077881
1772408620155175700,5.47817578125,2.4284799098968506,-10.419286727905273,6.1992058753967285
1772408620175236000,5.498236083984375,5.900383949279785,-14.235428810119629,7.962563991546631
1772408620195296500,5.518296630859375,8.169905662536621,-16.73554229736328,9.19725227355957
1772408620215357200,5.538357177734375,7.927925109863281,-15.907632827758789,8.487401008605957
1772408620235417300,5.558417236328125,5.1127400398254395,-10.85810661315918,5.56832218170166
1772408620255478000,5.57847802734375,2.0677919387817383,-2.8584859371185303,0.8346570134162903
1772408620275538400,5.598538330078125,-0.22656500339508057,5.939609050750732,-2.8450729846954346
1772408620295598800,5.618598876953125,-2.502851963043213,12.074888229370117,-5.0152587890625
1772408620315659300,5.6386591796875,-4.3526811599731445,13.491110801696777,-5.998607158660889
1772408620335720000,5.658719970703125,-6.132544994354248,11.986488342285156,-6.139685153961182
1772408620355780000,5.678780029296875,-7.537236213684082,9.998790740966797,-5.391747951507568
1772408620375840800,5.6988408203125,-7.502589225769043,8.055031776428223,-3.8365979194641113
1772408620395901200,5.718901123046875,-6.310070991516113,5.988026142120361,-2.5580790042877197
1772408620415961600,5.738961669921875,-4.44085693359375,4.100821018218994,-1.8128629922866821
1772408620436022000,5.75902197265625,-2.420685052871704,2.788655996322632,-1.4254900217056274
1772408620456082400,5.77908251953125,-0.44374799728393555,1.9701249599456787,-1.2899919748306274
1772408620476143000,5.79914306640625,1.2442009449005127,1.3177000284194946,-1.3111939430236816
1772408620496203300,5.819203369140625,2.282560110092163,0.8373600244522095,-1.4993549585342407
1772408620516264000,5.839263916015625,1.956447958946228,0.7106879949569702,-1.5290839672088623
1772408620536324400,5.859324462890625,0.7435590028762817,1.031749963760376,-1.3088669776916504
1772408620556384800,5.879384765625,-0.006752000190317631,1.0190000534057617,-0.6566929817199707
1772408620576445200,5.899445068359375,0.09619700163602829,0.5088000297546387,0.0818450003862381
1772408620596505600,5.919505615234375,0.5113580226898193,-0.9313589930534363,1.2798759937286377
1772408620616566000,5.93956591796875,1.0490859746932983,-4.7170867919921875,2.7054998874664307
1772408620636626400,5.95962646484375,2.408068895339966,-9.650470733642578,4.446000099182129
1772408620656686800,5.979686767578125,5.795255184173584,-13.462776184082031,7.519199848175049
1772408620676747300,5.999747314453125,8.694604873657227,-15.265419960021973,9.45776081085205
1772408620696808000,6.019807861328125,8.23568344116211,-15.393937110900879,9.715007781982422
1772408620716868000,6.0398681640625,7.390946865081787,-11.631149291992188,6.678407192230225
1772408620736928800,6.0599287109375,4.144758224487305,-7.329719066619873,2.3123250007629395
1772408620756989200,6.0799892578125,1.0518059730529785,-0.7253760099411011,-1.6573389768600464
1772408620777049600,6.100049560546875,-0.5529540181159973,6.372499942779541,-3.8578710556030273
1772408620797110000,6.120110107421875,-2.004762887954712,11.512399673461914,-4.777496814727783
1772408620817170400,6.14017041015625,-4.387010097503662,13.348320007324219,-4.869197845458984
1772408620837230800,6.16023095703125,-5.944008827209473,12.65385627746582,-4.745758056640625
1772408620857291300,6.180291259765625,-6.693606853485107,10.551884651184082,-4.325406074523926
1772408620877351700,6.2003515625,-6.748485088348389,7.975906848907471,-3.813123941421509
1772408620897412000,6.220412109375,-6.486787796020508,5.36552619934082,-3.310499906539917
1772408620917472500,6.240472412109375,-5.659030914306641,3.3044209480285645,-2.8035991191864014
1772408620937533000,6.260532958984375,-3.5096240043640137,1.9099359512329102,-2.5916800498962402
1772408620957593300,6.28059326171875,-1.3732990026474,1.259948968887329,-2.5725440979003906
1772408620977653800,6.30065380859375,-0.21063899993896484,0.9015589952468872,-2.4508349895477295
1772408620997714200,6.320714111328125,0.14908799529075623,0.8908470273017883,-2.171067953109741
1772408621017774600,6.340774658203125,0.13127000629901886,1.1774779558181763,-1.5496540069580078
1772408621037835300,6.360835205078125,0.014615999534726143,1.3291820287704468,-0.4357230067253113
1772408621057895400,6.3808955078125,-0.33470600843429565,1.2801460027694702,0.5386210083961487
1772408621077955800,6.400955810546875,-0.14696499705314636,0.5337160229682922,0.6108959913253784
1772408621098016500,6.4210166015625,0.39122700691223145,-1.1682260036468506,1.0151170492172241
1772408621118076700,6.44107666015625,2.0409820079803467,-4.763381004333496,2.3560938835144043
1772408621138137000,6.46113720703125,6.020784854888916,-9.163504600524902,4.296074867248535
1772408621158197800,6.48119775390625,9.564628601074219,-11.453203201293945,5.396059989929199
1772408621178258200,6.501258056640625,10.42530345916748,-12.726561546325684,7.203248023986816
1772408621198318300,6.521318359375,9.286642074584961,-13.096450805664062,8.340996742248535
1772408621218379000,6.54137890625,8.862113952636719,-10.82036018371582,6.895197868347168
1772408621238439400,6.561439453125,5.861690998077393,-7.080287933349609,4.128958225250244
1772408621258499600,6.58149951171875,1.2053519487380981,-1.2298309803009033,0.16956700384616852
1772408621278560300,6.601560302734375,-2.4677178859710693,5.313735008239746,-2.9883460998535156
1772408621298620700,6.62162060546875,-5.050174236297607,10.027788162231445,-4.68507719039917
1772408621318681000,6.64168115234375,-7.108939170837402,11.46703052520752,-5.301661014556885
1772408621338741500,6.661741455078125,-8.140751838684082,10.545625686645508,-4.775729179382324
1772408621358802000,6.681802001953125,-7.858201026916504,9.150899887084961,-4.220582962036133
1772408621378862300,6.7018623046875,-5.978559970855713,7.3511199951171875,-3.9396660327911377
1772408621398922800,6.7219228515625,-3.668447971343994,4.752895832061768,-3.5749330520629883
1772408621418983200,6.741983154296875,-1.9155579805374146,3.2983169555664062,-2.5727460384368896
1772408621439043600,6.762043701171875,-0.9220470190048218,2.3242530822753906,-2.0005970001220703
1772408621459104000,6.78210400390625,-0.22243699431419373,1.710602045059204,-1.6116780042648315
1772408621479164400,6.802164306640625,0.1284489929676056,1.6268819570541382,-1.6477420330047607
1772408621499224800,6.822224853515625,0.21795900166034698,1.3127050399780273,-1.3221930265426636
1772408621519285200,6.84228515625,0.2375669926404953,0.48936399817466736,-0.46735501289367676
1772408621539345700,6.862345703125,0.5692539811134338,0.7090910077095032,0.22531500458717346
1772408621559406000,6.882406005859375,0.9842029809951782,0.21527299284934998,0.3178519904613495
1772408621579466200,6.90246630859375,1.4577620029449463,-1.1389809846878052,0.865481972694397
1772408621599526700,6.922526611328125,3.8518099784851074,-4.4551849365234375,2.14278507232666
1772408621619587000,6.942587158203125,6.971047878265381,-7.088147163391113,2.652627944946289
1772408621639647500,6.9626474609375,9.486438751220703,-7.687317848205566,3.529301881790161
1772408621659708000,6.9827080078125,8.089151382446289,-7.737854957580566,5.741042137145996
1772408621679768300,7.002768310546875,5.042520046234131,-9.239883422851562,7.0864338874816895
1772408621699828500,7.022828369140625,2.4172160625457764,-7.201507091522217,5.663547039031982
1772408621719889200,7.04288916015625,2.0833730697631836,-4.638805866241455,3.822037935256958
1772408621739949300,7.06294921875,3.2506980895996094,-2.0262439250946045,1.1960300207138062
1772408621760009700,7.083009765625,2.0925590991973877,1.6966029405593872,-1.862373948097229
1772408621780070000,7.10306982421875,-2.3675520420074463,5.107683181762695,-3.8747000694274902
1772408621800130600,7.123130615234375,-6.726041793823242,7.413346767425537,-5.021359920501709
1772408621820191000,7.14319091796875,-8.76003360748291,7.448277950286865,-5.240287780761719
1772408621840251100,7.163251220703125,-9.370427131652832,6.822621822357178,-4.542630195617676
1772408621860311800,7.183311767578125,-8.537941932678223,5.975697040557861,-3.3245038986206055
1772408621880372000,7.2033720703125,-5.635153770446777,4.544558048248291,-2.3012030124664307
1772408621900432400,7.223432373046875,-2.854522943496704,2.793246030807495,-1.7857619524002075
1772408621920492800,7.243492919921875,-0.7740179896354675,1.5417970418930054,-1.4150099754333496
1772408621940553200,7.26355322265625,-0.3992139995098114,1.2238370180130005,-1.3160079717636108
1772408621960613600,7.283613525390625,-1.0049710273742676,1.2430700063705444,-1.5576059818267822
1772408621980674000,7.303674072265625,-1.9375770092010498,1.4328559637069702,-1.3932850360870361
1772408622000734500,7.323734375,-2.370060920715332,1.3358850479125977,-1.2530280351638794
1772408622020795000,7.343794921875,-2.0688490867614746,0.7983070015907288,-0.9080219864845276
1772408622040855000,7.36385498046875,-1.1702790260314941,0.3418459892272949,-0.44801801443099976
1772408622060915500,7.38391552734375,0.3221760094165802,-0.5625219941139221,0.17998500168323517
1772408622080976000,7.403975830078125,2.774540901184082,-1.679618000984192,1.2375880479812622
1772408622101036500,7.42403662109375,6.540432929992676,-2.8492939472198486,2.49967098236084
1772408622121097000,7.444096923828125,8.665146827697754,-4.157034873962402,3.309335947036743
1772408622141157000,7.4641572265625,6.286517143249512,-4.966429233551025,4.361868858337402
1772408622161217800,7.4842177734375,3.3188130855560303,-5.442742824554443,5.743895053863525
1772408622181278200,7.5042783203125,2.3926498889923096,-4.572594165802002,5.207915782928467
1772408622201338400,7.52433837890625,3.910120964050293,-4.117275238037109,4.450332164764404
1772408622221398800,7.544398681640625,4.102496147155762,-4.075419902801514,4.075466156005859
1772408622241459200,7.564459228515625,3.237997055053711,-2.647536039352417,2.417172908782959
1772408622261519600,7.58451953125,1.8535970449447632,0.0019710001070052385,0.3441390097141266
1772408622281580000,7.604580078125,-0.8467209935188293,2.3231759071350098,-0.795087993144989
1772408622301640200,7.62464013671875,-3.8701770305633545,3.6441409587860107,-1.7352709770202637
1772408622321700600,7.64470068359375,-5.9809417724609375,4.146512985229492,-3.1906158924102783
1772408622341761000,7.664760986328125,-4.849554061889648,4.550809860229492,-4.358892917633057
1772408622361821400,7.684821533203125,-3.134843111038208,4.203847885131836,-4.691914081573486
1772408622381881900,7.7048818359375,-3.314275026321411,3.65107798576355,-4.406332015991211
1772408622401942300,7.7249423828125,-3.4802188873291016,3.1320629119873047,-3.869065046310425
1772408622422002400,7.74500244140625,-2.6313750743865967,2.000849962234497,-3.3560519218444824
1772408622442062800,7.765062744140625,-1.6434999704360962,1.341480016708374,-2.8728408813476562
1772408622462123300,7.785123291015625,-0.3052000105381012,1.0291839838027954,-2.183073043823242
1772408622482183400,7.805183349609375,0.5870389938354492,0.9753469824790955,-1.3080580234527588
1772408622502244000,7.825244140625,0.2208310067653656,1.2082769870758057,-0.3936469852924347
1772408622522304300,7.84530419921875,0.16146500408649445,0.9586219787597656,0.16748200356960297
1772408622542365000,7.865364990234375,0.00837200041860342,-0.09230200201272964,0.38678500056266785
1772408622562425300,7.88542529296875,-0.5493019819259644,-1.0354410409927368,1.399027943611145
1772408622582485500,7.905485595703125,0.42295798659324646,-3.166753053665161,2.753622055053711
1772408622602546000,7.9255458984375,3.7303659915924072,-5.8662028312683105,3.1260979175567627
1772408622622606300,7.9456064453125,6.673093795776367,-6.451362133026123,7.262477874755859
1772408622642666800,7.965666748046875,8.468073844909668,-7.965089797973633,9.969982147216797
1772408622662727200,7.98572705078125,7.8744587898254395,-11.064872741699219,9.171184539794922
1772408622682787600,8.00578759765625,6.600368022918701,-13.523097038269043,6.160949230194092
1772408622702848000,8.025847900390625,5.099494934082031,-9.029677391052246,1.7927589416503906
1772408622722908400,8.045908447265624,1.0307949781417847,-2.33174204826355,-0.9753929972648621
1772408622742968800,8.06596875,-3.228163003921509,4.421006202697754,-2.5059139728546143
1772408622763029200,8.086029296875,-6.68333101272583,9.132804870605469,-3.753530979156494
1772408622783089700,8.106089599609374,-8.614664077758789,10.855043411254883,-3.7836248874664307
1772408622803149800,8.12614990234375,-9.214132308959961,9.728034973144531,-3.418100118637085
1772408622823210500,8.14621044921875,-8.334505081176758,7.944827079772949,-3.6272799968719482
1772408622843270700,8.166270751953125,-5.876404762268066,6.1494622230529785,-3.4106240272521973
1772408622863331000,8.1863310546875,-3.0491230487823486,4.341169834136963,-2.8396990299224854
1772408622883391500,8.2063916015625,-0.6144980192184448,2.21453595161438,-2.682158946990967
1772408622903451600,8.22645166015625,0.38199999928474426,0.6532279849052429,-3.1705269813537598
1772408622923512300,8.24651220703125,-0.41999900341033936,0.4289819896221161,-3.0948219299316406
1772408622943572500,8.266572509765625,-1.4471989870071411,1.2207859754562378,-2.349457025527954
1772408622963633000,8.2866328125,-1.6553590297698975,1.3702290058135986,-1.7267659902572632
1772408622983693000,8.306693115234374,-0.9298869967460632,0.9993829727172852,-1.4102129936218262
1772408623003753500,8.32675341796875,-0.5143100023269653,0.6307060122489929,-1.1721700429916382
1772408623023814000,8.34681396484375,-0.19064800441265106,0.27656498551368713,-0.472135990858078
1772408623043874300,8.366874267578124,0.5178809762001038,-0.4147469997406006,0.30229100584983826
1772408623063934700,8.386934814453125,1.7415050268173218,-1.7605979442596436,0.9274320006370544
1772408623083995000,8.406994873046875,4.034004211425781,-3.205277919769287,1.49794602394104
1772408623104055300,8.42705517578125,6.25920295715332,-4.053822994232178,2.4919559955596924
1772408623124115700,8.44711572265625,5.203361988067627,-4.543858051300049,3.9503650665283203
1772408623144176000,8.467176025390625,2.258690118789673,-5.481485843658447,5.1274919509887695
1772408623164236500,8.487236572265624,-0.8114479780197144,-6.409988880157471,6.65319299697876
1772408623184296700,8.507296630859376,-0.1547580063343048,-7.227191925048828,6.092955112457275
1772408623204357400,8.527357421875,4.229793071746826,-7.6025519371032715,4.944764137268066
1772408623224417500,8.54741748046875,7.095833778381348,-4.653242111206055,3.583009958267212
1772408623244478000,8.56747802734375,5.542266845703125,0.6078060269355774,2.3336079120635986
1772408623264538400,8.587538330078125,1.0586129426956177,4.639044761657715,0.09328600019216537
1772408623284598500,8.6075986328125,-1.8443080186843872,5.769636154174805,-3.3901710510253906
1772408623304659000,8.627658935546876,-4.445847034454346,5.979709148406982,-6.276937007904053
1772408623324719600,8.6477197265625,-6.062277793884277,6.242967128753662,-6.903149127960205
1772408623344779800,8.66777978515625,-5.665021896362305,5.43837308883667,-5.595318794250488
1772408623364840200,8.687840087890624,-4.39041805267334,4.8794989585876465,-3.717055082321167
1772408623384900400,8.707900390625,-2.708333969116211,3.7171990871429443,-2.544044017791748
1772408623404960800,8.727960693359375,-1.253067970275879,3.0081589221954346,-2.158435106277466
1772408623425021200,8.748021240234374,-0.43125399947166443,2.7017269134521484,-1.1235480308532715
1772408623445081600,8.76808154296875,-0.3890030086040497,2.042980909347534,-0.5476379990577698
1772408623465141800,8.788141845703125,-1.2824029922485352,1.3911850452423096,-1.0725109577178955
1772408623485202200,8.8082021484375,-1.717121958732605,0.9825479984283447,-1.2140079736709595
1772408623505262600,8.8282626953125,-1.1960970163345337,-0.12116099894046783,-1.1360069513320923
1772408623525323000,8.848322998046875,-1.230478048324585,-0.6769289970397949,-0.6640049815177917
1772408623545383400,8.868383544921874,-0.04998200014233589,-1.4479429721832275,0.6447950005531311
1772408623565443600,8.888443603515626,2.8544139862060547,-3.7015540599823,3.023036003112793
1772408623585504000,8.90850390625,7.385931015014648,-6.861242771148682,5.937629222869873
1772408623605564400,8.928564453125,9.135945320129395,-8.160994529724121,7.82770299911499
1772408623625624800,8.948624755859376,6.400755882263184,-8.853595733642578,8.211762428283691
1772408623645685200,8.968685302734375,3.169404983520508,-9.768477439880371,6.897408962249756
1772408623665745700,8.98874560546875,1.416322946548462,-9.030782699584961,3.7843270301818848
1772408623685805800,9.008805908203126,3.3170580863952637,-7.0374250411987305,2.3170619010925293
1772408623705866200,9.0288662109375,2.6960461139678955,-2.293139934539795,0.2504499852657318
1772408623725926700,9.0489267578125,-0.5495619773864746,3.4174880981445312,-2.8356399536132812
1772408623745987000,9.068987060546876,-4.354849815368652,7.698790073394775,-3.885312080383301
1772408623766047500,9.089047607421875,-7.540679931640625,9.23103141784668,-3.2250490188598633
1772408623786108000,9.10910791015625,-8.974143981933594,8.749625205993652,-3.1216390132904053
1772408623806168000,9.12916796875,-9.032915115356445,7.86929988861084,-2.917310953140259
1772408623826228500,9.149228515625,-7.191930770874023,6.574639797210693,-2.684248924255371
1772408623846288600,9.16928857421875,-4.907145023345947,4.44371223449707,-3.6337990760803223
1772408623866349300,9.189349365234374,-2.5753159523010254,2.6317689418792725,-3.8494389057159424
1772408623886409700,9.20940966796875,0.021345999091863632,1.3846149444580078,-3.7715508937835693
1772408623906470100,9.22947021484375,1.248276948928833,0.4948920011520386,-3.6708409786224365
1772408623926530300,9.2495302734375,1.2458219528198242,0.7287129759788513,-2.871073007583618
1772408623946591000,9.269591064453126,1.1422569751739502,1.034970998764038,-1.733657956123352
1772408623966651100,9.289651123046875,0.34100601077079773,1.1303759813308716,-0.49972599744796753
1772408623986711600,9.309711669921874,-0.23279500007629395,0.5963010191917419,-0.3477810025215149
1772408624006772000,9.32977197265625,0.0009629999985918403,-0.13975800573825836,-0.571025013923645
1772408624026832100,9.34983203125,0.5967710018157959,-0.6806060075759888,0.8911790251731873
1772408624046892500,9.369892578125,1.778216004371643,-2.3196849822998047,3.120943069458008
1772408624066952700,9.38995263671875,2.82977294921875,-4.457348823547363,4.903954982757568
1772408624087013400,9.410013427734375,3.8254189491271973,-5.871478080749512,6.947964191436768
1772408624107073800,9.43007373046875,5.511535167694092,-7.56838321685791,8.299171447753906
1772408624127134000,9.450134033203126,6.4092278480529785,-11.030706405639648,8.073737144470215
1772408624147194400,9.4701943359375,6.016182899475098,-6.2773637771606445,3.779789924621582
1772408624167254800,9.4902548828125,2.0681450366973877,-1.4186910390853882,1.2094320058822632
1772408624187315000,9.51031494140625,-1.126283049583435,0.410645991563797,-0.4204539954662323
