time,seconds_elapsed,z,y,x
1772408614879239200,0.2022392578125,5.764950275421143,-21.02400016784668,7.432950496673584
1772408614899299800,0.2222998046875,5.614950180053711,-22.264951705932617,7.753950595855713
1772408614919360500,0.242360595703125,5.550000190734863,-22.138051986694336,7.999950408935547
1772408614939421400,0.26242138671875,6.199050426483154,-18.429000854492188,6.322050094604492
1772408614959482000,0.282482177734375,6.8520002365112305,-12.586950302124023,3.775050163269043
1772408614979542800,0.302542724609375,6.088950157165527,-7.042050361633301,1.2300000190734863
1772408614999603500,0.322603515625,4.7310004234313965,-3.0700502395629883,0.7249500155448914
1772408615019664400,0.342664306640625,2.947050094604492,-0.3720000088214874,1.6699501276016235
1772408615039725000,0.36272509765625,1.2450000047683716,1.7670000791549683,2.2759501934051514
1772408615059785500,0.382785400390625,0.5460000038146973,3.022050142288208,2.6610000133514404
1772408615079846400,0.402846435546875,0.12495000660419464,3.3190500736236572,2.9770500659942627
1772408615099907000,0.422906982421875,0.14100000262260437,2.8759500980377197,3.255000114440918
1772408615119967700,0.4429677734375,0.7860000133514404,2.1739501953125,2.8150501251220703
1772408615140028400,0.4630283203125,1.53000009059906,1.546950101852417,2.227950096130371
1772408615160089000,0.483089111328125,2.200050115585327,0.9820500612258911,1.7130000591278076
1772408615180149800,0.503149658203125,2.8129501342773438,0.2659500241279602,0.934950053691864
1772408615200210700,0.523210693359375,3.2560501098632812,-0.5560500025749207,0.12600000202655792
1772408615220271400,0.543271240234375,3.8479502201080322,-2.127000093460083,0.010950000956654549
1772408615240332000,0.56333203125,3.9940502643585205,-4.830000400543213,1.0260000228881836
1772408615260392700,0.583392822265625,4.213950157165527,-10.152000427246094,2.8410000801086426
1772408615280453400,0.603453369140625,5.641050338745117,-15.991950988769531,4.792050361633301
1772408615300514000,0.62351416015625,6.879000186920166,-22.674001693725586,8.320950508117676
1772408615320574700,0.64357470703125,8.926050186157227,-26.305952072143555,8.599050521850586
1772408615340635400,0.663635498046875,7.759950160980225,-33.927001953125,9.526050567626953
1772408615360696000,0.683696044921875,7.25700044631958,-33.934051513671875,7.1860504150390625
1772408615380756700,0.7037568359375,7.249950408935547,-28.69095230102539,4.182000160217285
1772408615400817400,0.7238173828125,8.085000038146973,-23.083051681518555,1.171950101852417
1772408615420878300,0.74387841796875,7.666050434112549,-13.875000953674316,-1.264050006866455
1772408615440939000,0.76393896484375,5.4970502853393555,-5.994000434875488,-0.2560500204563141
1772408615460999400,0.78399951171875,4.264050006866455,-2.1319501399993896,2.1660001277923584
1772408615481060000,0.80406005859375,3.2850000858306885,0.6679500341415405,4.660950183868408
1772408615501120800,0.824120849609375,1.7910001277923584,2.425950050354004,5.878950119018555
1772408615521181700,0.844181640625,0.742050051689148,2.6890501976013184,5.238000392913818
1772408615541242400,0.864242431640625,0.031050002202391624,2.4690001010894775,4.267950057983398
1772408615561303000,0.884302978515625,-0.8850000500679016,1.1929500102996826,3.06600022315979
1772408615581363700,0.90436376953125,-1.858950138092041,0.36900001764297485,1.821000099182129
1772408615601424400,0.92442431640625,-0.2740500271320343,0.9679500460624695,0.4540500342845917
1772408615621485000,0.944485107421875,5.008950233459473,0.25905001163482666,-0.5940000414848328
1772408615641545700,0.964545654296875,8.188050270080566,-0.8940000534057617,-1.2660000324249268
1772408615661606400,0.9846064453125,6.511950492858887,-1.2460500001907349,-0.6300000548362732
1772408615681667000,1.0046669921875,4.813050270080566,-2.824050188064575,3.5929501056671143
1772408615701727700,1.024727783203125,4.113000392913818,-2.4880502223968506,2.845950126647949
1772408615721788400,1.044788330078125,-1.27305006980896,-4.051949977874756,-3.0430500507354736
1772408615741849000,1.06484912109375,8.3100004196167,-9.034049987792969,2.77905011177063
1772408615761910000,1.084909912109375,16.72395133972168,-11.62695026397705,4.795050144195557
1772408615781970400,1.104970458984375,19.338001251220703,-16.509000778198242,7.414050579071045
1772408615802031000,1.125031005859375,19.165950775146484,-18.169950485229492,10.050000190734863
1772408615822091800,1.145091796875,14.563950538635254,-17.46405029296875,12.601950645446777
1772408615842152700,1.165152587890625,9.262950897216797,-18.738000869750977,11.059950828552246
1772408615862213400,1.18521337890625,10.1089506149292,-18.694950103759766,8.86500072479248
1772408615882274000,1.205274169921875,13.324050903320312,-15.61305046081543,6.4830002784729
1772408615902334700,1.225334716796875,15.07395076751709,-11.590950965881348,5.07705020904541
1772408615922395100,1.24539501953125,14.29800033569336,-7.854000568389893,4.459050178527832
1772408615942456000,1.2654560546875,9.247050285339355,-5.227050304412842,2.4870002269744873
1772408615962516700,1.285516845703125,3.3540000915527344,-0.5800500512123108,2.0340001583099365
1772408615982577400,1.305577392578125,0.4240500330924988,1.1500500440597534,0.5470499992370605
1772408616002638000,1.32563818359375,0.7780500650405884,1.9369500875473022,0.4300500154495239
1772408616022698800,1.34569873046875,0.10095000267028809,1.894050121307373,0.006000000052154064
1772408616042759400,1.365759521484375,0.8929500579833984,2.098050117492676,0.7170000076293945
1772408616062820000,1.385820068359375,1.4269500970840454,0.8890500664710999,0.5230500102043152
1772408616082880800,1.405880859375,2.955000162124634,0.36705002188682556,0.3460500240325928
1772408616102941400,1.42594140625,2.83305025100708,1.1740500926971436,0.8610000610351562
1772408616123002000,1.446002197265625,1.1059499979019165,1.0320000648498535,0.25995001196861267
1772408616143062500,1.4660625,0.3430500030517578,0.015000000596046448,-0.5530500411987305
1772408616163123500,1.48612353515625,3.0480000972747803,-1.8349500894546509,-1.081950068473816
1772408616183184100,1.50618408203125,3.7540502548217773,-1.1209501028060913,2.4840002059936523
1772408616203244800,1.526244873046875,6.238950252532959,1.0519500970840454,5.961000442504883
1772408616223305500,1.546305419921875,5.074050426483154,-4.507050037384033,4.651050090789795
1772408616243366100,1.5663662109375,2.098050117492676,-7.0759501457214355,7.704000473022461
1772408616263426600,1.586426513671875,3.2749502658843994,-10.738950729370117,13.735050201416016
1772408616283487200,1.6064873046875,5.077950477600098,-16.234050750732422,18.93195152282715
1772408616303548200,1.626548095703125,12.223050117492676,-21.28995132446289,19.90395164489746
1772408616323608600,1.646608642578125,15.226950645446777,-22.099050521850586,20.02695083618164
1772408616343669200,1.666669189453125,13.012950897216797,-23.095050811767578,18.94005012512207
1772408616363730000,1.68672998046875,13.18005084991455,-21.951000213623047,14.707050323486328
1772408616383790600,1.70679052734375,14.47605037689209,-15.172950744628906,15.286050796508789
1772408616403851300,1.726851318359375,10.129950523376465,-9.25200080871582,9.339000701904297
1772408616423912000,1.746911865234375,4.599000453948975,-5.646000385284424,4.324950218200684
1772408616443972600,1.76697265625,3.550950050354004,-1.339050054550171,2.688000202178955
1772408616464033300,1.787033203125,2.823000192642212,1.3170000314712524,1.6219500303268433
1772408616484094000,1.807093994140625,2.2390501499176025,2.0239500999450684,1.120050072669983
1772408616504154600,1.827154541015625,1.9350000619888306,1.4470500946044922,0.14295001327991486
1772408616524215300,1.84721533203125,-0.5400000214576721,0.7639500498771667,-0.6769500374794006
1772408616544275700,1.867275634765625,-2.1319501399993896,1.894050121307373,0.7320000529289246
1772408616564336400,1.88733642578125,1.0200001001358032,2.7370500564575195,2.1540000438690186
1772408616584397300,1.907397216796875,1.5640500783920288,1.8250501155853271,1.8430501222610474
1772408616604457700,1.927457763671875,1.908000111579895,1.3579500913619995,1.864050030708313
1772408616624518700,1.9475185546875,1.6260000467300415,2.0400002002716064,2.1730501651763916
1772408616644579300,1.967579345703125,-0.2650500237941742,1.6980000734329224,1.4910000562667847
1772408616664639700,1.9876396484375,0.9169500470161438,-0.015000000596046448,1.3470001220703125
1772408616684700400,2.007700439453125,2.63100004196167,-2.2320001125335693,0.8110500574111938
1772408616704761000,2.027760986328125,3.769050121307373,-4.471050262451172,1.864050030708313
1772408616724821800,2.04782177734375,6.03795051574707,-6.678000450134277,3.8230502605438232
1772408616744882400,2.06788232421875,6.832950115203857,-10.62600040435791,7.359000205993652
1772408616764942800,2.08794287109375,14.610000610351562,-17.680049896240234,8.872050285339355
1772408616785003500,2.10800341796875,19.341001510620117,-27.124950408935547,6.22605037689209
1772408616805064200,2.128064208984375,25.668001174926758,-29.074050903320312,4.198950290679932
1772408616825124900,2.148124755859375,26.253002166748047,-28.992000579833984,7.254000186920166
1772408616845185300,2.168185302734375,22.908000946044922,-23.76795196533203,5.070000171661377
1772408616865246000,2.188245849609375,16.2810001373291,-15.439050674438477,2.968050241470337
1772408616885307000,2.208306884765625,10.378950119018555,-8.38800048828125,2.668950080871582
1772408616905367300,2.2283671875,6.816000461578369,-3.8340001106262207,2.1280500888824463
1772408616925428000,2.248427978515625,2.782050132751465,-1.9900500774383545,2.182950019836426
1772408616945488600,2.268488525390625,0.012000000104308128,2.0329501628875732,2.590050220489502
1772408616965549300,2.28854931640625,-1.4689500331878662,4.008000373840332,4.70805025100708
1772408616985609700,2.308609619140625,-2.4720001220703125,3.100950241088867,4.218000411987305
1772408617005670400,2.32867041015625,-1.9840500354766846,2.4499502182006836,1.519050121307373
1772408617025731000,2.34873095703125,0.8740500211715698,2.0329501628875732,1.0960500240325928
1772408617045791700,2.368791748046875,1.0060499906539917,1.3050000667572021,2.0050501823425293
1772408617065852400,2.388852294921875,0.8550000190734863,1.420050024986267,1.636950135231018
1772408617085912800,2.408912841796875,1.8919501304626465,1.6120500564575195,1.527000069618225
1772408617105973500,2.428973388671875,3.132000207901001,1.0830000638961792,0.9379500150680542
1772408617126034200,2.4490341796875,3.229950189590454,1.0950000286102295,0.9739500284194946
1772408617146094800,2.4690947265625,3.5680501461029053,0.9150000214576721,0.45900002121925354
1772408617166155500,2.489155517578125,10.245000839233398,-2.6989500522613525,-0.4740000367164612
1772408617186216000,2.5092158203125,12.016950607299805,-3.4699501991271973,-1.519950032234192
1772408617206276600,2.529276611328125,14.883000373840332,-3.364950180053711,-0.07905000448226929
1772408617226337300,2.549337158203125,15.34005069732666,-5.230050086975098,1.4760000705718994
1772408617246398000,2.56939794921875,16.828950881958008,-7.411050319671631,2.3530499935150146
1772408617266458600,2.589458740234375,19.00800132751465,-9.903000831604004,4.9770002365112305
1772408617286519000,2.60951904296875,19.860000610351562,-10.722000122070312,5.496000289916992
1772408617306579700,2.629579833984375,17.257951736450195,-11.152950286865234,6.169050216674805
1772408617326640400,2.649640380859375,17.17905044555664,-10.89900016784668,5.881950378417969
1772408617346701000,2.669701171875,18.310951232910156,-10.369950294494629,5.910000324249268
1772408617366761500,2.689761474609375,14.224050521850586,-6.966000556945801,5.185050010681152
1772408617386822400,2.709822509765625,11.064000129699707,-2.9980502128601074,4.105050086975098
1772408617406882800,2.7298828125,9.330000877380371,-2.7060000896453857,3.475050210952759
1772408617426943500,2.749943603515625,4.152000427246094,-0.9630000591278076,2.1630001068115234
1772408617447004200,2.770004150390625,0.9529500603675842,0.25005000829696655,1.0999500751495361
1772408617467064600,2.790064697265625,2.1910500526428223,-0.21195000410079956,-0.37605002522468567
1772408617487125200,2.810125244140625,-1.0830000638961792,1.2460500001907349,-0.6010500192642212
1772408617507185700,2.830185546875,-2.7900002002716064,1.1779500246047974,-0.687000036239624
1772408617527246600,2.85024658203125,-0.46095001697540283,0.7240500450134277,0.21495001018047333
1772408617547307300,2.870307373046875,-2.8650002479553223,1.5829501152038574,-0.37605002522468567
1772408617567367700,2.89036767578125,1.437000036239624,1.8439500331878662,-0.20295001566410065
1772408617587428000,2.910427978515625,3.019050121307373,-0.15195000171661377,2.5510501861572266
1772408617607488800,2.93048876953125,4.5520501136779785,0.18195000290870667,1.579050064086914
1772408617627549400,2.950549560546875,4.968000411987305,0.47895002365112305,0.8389500379562378
1772408617647610000,2.970610107421875,4.948950290679932,-0.5419500470161438,2.202000141143799
1772408617667670500,2.99067041015625,5.611950397491455,-0.8580000400543213,3.2719502449035645
1772408617687731200,3.010731201171875,7.294950485229492,-4.882950305938721,5.613000392913818
1772408617707792000,3.0307919921875,8.473050117492676,-8.515049934387207,1.9810501337051392
1772408617727852500,3.0508525390625,11.938050270080566,-14.706000328063965,2.5060501098632812
1772408617747913000,3.070912841796875,14.643000602722168,-20.110050201416016,4.5169501304626465
1772408617767973400,3.090973388671875,16.386001586914062,-25.165950775146484,4.504950046539307
1772408617788034000,3.111033935546875,24.904951095581055,-27.364051818847656,2.2380001544952393
1772408617808094700,3.1310947265625,26.03700065612793,-27.84105110168457,1.752000093460083
1772408617828155400,3.1511552734375,18.87795066833496,-24.199050903320312,0.32895001769065857
1772408617848215800,3.1712158203125,13.864951133728027,-14.97705078125,0.018000001087784767
1772408617868276500,3.1912763671875,10.563000679016113,-7.558950424194336,0.6379500031471252
1772408617888337200,3.211337158203125,6.2659502029418945,-2.7900002002716064,1.867050051689148
1772408617908397600,3.2313974609375,3.517050266265869,1.0990500450134277,2.4439501762390137
1772408617928458000,3.2514580078125,1.741050124168396,3.2950501441955566,2.764050245285034
1772408617948518700,3.2715185546875,0.34995001554489136,3.819000244140625,1.9579501152038574
1772408617968579300,3.291579345703125,-0.09195000678300858,3.5080502033233643,1.5070500373840332
1772408617988640000,3.311639892578125,0.08895000070333481,2.734950065612793,0.7510500550270081
1772408618008700400,3.331700439453125,0.7830000519752502,1.67205011844635,0.7150500416755676
1772408618028761000,3.351760986328125,1.6549500226974487,0.7909500598907471,0.6960000395774841
1772408618048821800,3.37182177734375,2.3680500984191895,0.00795000046491623,-0.43995001912117004
1772408618068882200,3.391882080078125,3.132000207901001,-0.22800001502037048,-1.055999994277954
1772408618088942800,3.41194287109375,4.003050327301025,-0.17595000565052032,-0.9739500284194946
1772408618109003300,3.432003173828125,3.702000141143799,-0.06599999964237213,-0.45705002546310425
1772408618129064000,3.45206396484375,2.623950242996216,-0.13005000352859497,0.16905000805854797
1772408618149124600,3.47212451171875,1.771950125694275,-1.7179501056671143,0.7579500079154968
1772408618169185000,3.49218505859375,1.8510000705718994,-5.175000190734863,1.3129500150680542
1772408618189245400,3.512245361328125,4.213950157165527,-8.826000213623047,3.3409502506256104
1772408618209306000,3.53230615234375,9.010050773620605,-13.629000663757324,7.135950565338135
1772408618229366800,3.55236669921875,15.415950775146484,-19.882051467895508,10.2649507522583
1772408618249427200,3.57242724609375,19.13895034790039,-24.850051879882812,12.181050300598145
1772408618269487900,3.59248779296875,19.891050338745117,-26.05500030517578,11.872050285339355
1772408618289548500,3.612548583984375,18.292051315307617,-26.55000114440918,12.195000648498535
1772408618309609000,3.63260888671875,14.818050384521484,-22.213951110839844,11.44800090789795
1772408618329669600,3.652669677734375,11.581050872802734,-17.59095001220703,8.34000015258789
1772408618349730000,3.67272998046875,9.631950378417969,-10.425000190734863,3.598050117492676
1772408618369790700,3.692790771484375,7.582950592041016,-4.581000328063965,2.848050117492676
1772408618389851100,3.71285107421875,5.08305025100708,-0.42000001668930054,2.341050148010254
1772408618409911600,3.73291162109375,3.0289502143859863,1.5829501152038574,1.7640000581741333
1772408618429972200,3.75297216796875,1.3980001211166382,2.634000062942505,1.0330500602722168
1772408618450032600,3.77303271484375,0.30705001950263977,2.4810001850128174,0.5230500102043152
1772408618470093000,3.793093017578125,-0.31995001435279846,2.1700501441955566,0.5020500421524048
1772408618490153700,3.81315380859375,0.07200000435113907,1.9210500717163086,0.6859500408172607
1772408618510214400,3.83321435546875,0.7570500373840332,1.4899500608444214,0.6100500226020813
1772408618530274800,3.85327490234375,1.5250500440597534,1.1830500364303589,0.5779500007629395
1772408618550335200,3.873335205078125,2.385000228881836,0.5419500470161438,-0.13199999928474426
1772408618570396000,3.89339599609375,3.841050148010254,0.19395001232624054,-0.43995001912117004
1772408618590456600,3.91345654296875,5.008950233459473,0.22095000743865967,0.3150000274181366
1772408618610517000,3.93351708984375,4.576050281524658,0.5029500126838684,0.9739500284194946
1772408618630577400,3.953577392578125,3.5869500637054443,0.8580000400543213,1.2250500917434692
1772408618650638000,3.97363818359375,3.630000114440918,-0.9850500226020813,1.8499500751495361
1772408618670698800,3.99369873046875,4.360050201416016,-4.3630499839782715,3.2500500679016113
1772408618690759200,4.01375927734375,7.669050216674805,-7.567050457000732,4.3660502433776855
1772408618710819800,4.03381982421875,11.133000373840332,-12.802950859069824,7.6459503173828125
1772408618730880300,4.05388037109375,14.346000671386719,-18.47895050048828,11.665950775146484
1772408618750940700,4.073940673828125,17.124000549316406,-24.733051300048828,14.280000686645508
1772408618771001300,4.09400146484375,20.0179500579834,-28.5570011138916,12.781950950622559
1772408618791061800,4.114061767578125,21.469051361083984,-27.340051651000977,11.6089506149292
1772408618811122200,4.1341220703125,17.847000122070312,-21.11505126953125,10.609950065612793
1772408618831182800,4.154182861328125,12.232050895690918,-13.231050491333008,7.129050254821777
1772408618851243500,4.174243408203125,8.038050651550293,-6.6850504875183105,4.039950370788574
1772408618871304000,4.194303955078125,5.1570000648498535,-2.134050130844116,2.287950038909912
1772408618891364400,4.2143642578125,1.5559500455856323,0.7000500559806824,1.4760000705718994
1772408618911425000,4.234425048828125,-1.8330000638961792,2.6920502185821533,1.7130000591278076
1772408618931485400,4.2544853515625,-3.013050079345703,3.8580002784729004,2.0220000743865967
1772408618951545900,4.2745458984375,-2.4430501461029053,3.6280500888824463,1.9840500354766846
1772408618971606500,4.2946064453125,-0.7600500583648682,2.7559502124786377,1.6080000400543213
1772408618991667000,4.3146669921875,1.3339500427246094,1.6909500360488892,1.1670000553131104
1772408619011727400,4.334727294921875,2.5909500122070312,1.2000000476837158,0.9640500545501709
1772408619031788000,4.3547880859375,3.0480000972747803,1.1710500717163086,0.7219500541687012
1772408619051848400,4.374848388671875,3.2989501953125,0.8359500169754028,0.5520000457763672
1772408619071909000,4.3949091796875,2.9830501079559326,0.5800500512123108,0.3460500240325928
1772408619091969500,4.414969482421875,2.3749501705169678,0.41700002551078796,0.4900500178337097
1772408619112030000,4.435030029296875,2.461050033569336,-0.29295000433921814,0.6480000019073486
1772408619132090600,4.455090576171875,2.8560001850128174,-1.7530500888824463,1.596000075340271
1772408619152151000,4.475151123046875,3.160950183868408,-5.041050434112549,3.6409502029418945
1772408619172211700,4.495211669921875,5.4210004806518555,-8.871000289916992,5.869950294494629
1772408619192272100,4.515272216796875,11.254950523376465,-14.610000610351562,8.980050086975098
1772408619212332800,4.535332763671875,19.174951553344727,-21.712051391601562,12.475050926208496
1772408619232393200,4.555393310546875,24.865951538085938,-27.1200008392334,15.22605037689209
1772408619252453600,4.57545361328125,23.209951400756836,-28.231050491333008,15.286050796508789
1772408619272514300,4.595514404296875,18.64605140686035,-25.195051193237305,12.583050727844238
1772408619292574700,4.61557470703125,14.542950630187988,-18.727951049804688,8.848050117492676
1772408619312635100,4.63563525390625,10.37700080871582,-11.038050651550293,6.31695032119751
1772408619332695800,4.65569580078125,6.814050197601318,-5.112000465393066,3.787050247192383
1772408619352756200,4.675756103515625,4.183050155639648,-1.495050072669983,2.0149500370025635
1772408619372816600,4.695816650390625,2.4760501384735107,1.168950080871582,1.2630000114440918
1772408619392877300,4.715877197265625,1.1350500583648682,3.1060502529144287,0.8419500589370728
1772408619412937700,4.735937744140625,0.6709500551223755,3.3670501708984375,1.1460000276565552
1772408619432998100,4.755998046875,1.072950005531311,2.7079501152038574,1.2030000686645508
1772408619453058600,4.77605859375,1.4629501104354858,1.7220001220703125,1.062000036239624
1772408619473119200,4.796119140625,1.6879501342773438,0.8959500193595886,1.0000500679016113
1772408619493180000,4.816179931640625,1.6639500856399536,1.2529500722885132,1.0690500736236572
1772408619513240000,4.836239990234375,1.2720000743865967,1.5619500875473022,1.5049500465393066
1772408619533300700,4.85630078125,0.6709500551223755,1.954050064086914,1.440000057220459
1772408619553361400,4.876361328125,0.3139500021934509,2.052000045776367,0.8179500102996826
1772408619573421600,4.896421630859375,0.6829500198364258,1.4560500383377075,0.3130500018596649
1772408619593482200,4.916482177734375,1.4800500869750977,0.4600500166416168,0.12105000764131546
1772408619613542700,4.936542724609375,2.053950071334839,-0.7429500222206116,0.6570000052452087
1772408619633603300,4.956603271484375,2.952000141143799,-2.77305006980896,1.8430501222610474
1772408619653663700,4.976663818359375,4.225950241088867,-5.854950428009033,3.1710002422332764
1772408619673724200,4.99672412109375,5.314950466156006,-10.617000579833984,4.783050060272217
1772408619693784600,5.01678466796875,7.0219502449035645,-19.00800132751465,8.3860502243042
1772408619713845000,5.036844970703125,14.62605094909668,-27.649051666259766,12.516000747680664
1772408619733905700,5.05690576171875,20.791051864624023,-35.33205032348633,17.18505096435547
1772408619753966300,5.07696630859375,19.94205093383789,-35.14995193481445,17.926950454711914
1772408619774026800,5.09702685546875,15.337050437927246,-26.490001678466797,17.053050994873047
1772408619794087200,5.117087158203125,13.860000610351562,-15.976950645446777,13.632000923156738
1772408619814147600,5.137147705078125,10.37700080871582,-6.243000507354736,9.729000091552734
1772408619834208000,5.1572080078125,4.300050258636475,0.534000039100647,6.643050193786621
1772408619854268400,5.177268310546875,-0.0010500000789761543,3.7950000762939453,4.459050178527832
1772408619874329000,5.1973291015625,-1.9519500732421875,4.485000133514404,3.556950092315674
1772408619894389500,5.217389404296875,-2.53695011138916,4.734000205993652,3.3919501304626465
1772408619914450200,5.2374501953125,-2.428950071334839,4.138050079345703,3.0330002307891846
1772408619934510600,5.257510498046875,-1.9480501413345337,2.8690500259399414,2.3530499935150146
1772408619954571000,5.277571044921875,0.07905000448226929,1.8390001058578491,1.725000023841858
1772408619974631700,5.297631591796875,2.803950071334839,0.843000054359436,0.9780000448226929
1772408619994691800,5.31769189453125,4.50600004196167,0.48900002241134644,0.3439500033855438
1772408620014752500,5.33775244140625,5.229000091552734,0.25394999980926514,0.17100000381469727
1772408620034813000,5.35781298828125,5.329950332641602,0.5010000467300415,0.28395000100135803
1772408620054873300,5.377873291015625,4.369950294494629,0.45795002579689026,0.11205000430345535
1772408620074933800,5.397933837890625,3.112950086593628,-0.08505000174045563,0.11595000326633453
1772408620094994400,5.417994384765625,2.344050168991089,-1.324950098991394,0.6360000371932983
1772408620115054800,5.438054931640625,2.6100001335144043,-3.8080501556396484,2.11995005607605
1772408620135115300,5.458115234375,3.6060001850128174,-9.098999977111816,5.791050434112549
1772408620155175700,5.47817578125,6.28695011138916,-15.64905071258545,10.062000274658203
1772408620175236000,5.498236083984375,11.2339506149292,-23.023950576782227,13.81605052947998
1772408620195296500,5.518296630859375,15.546000480651855,-29.707950592041016,17.35004997253418
1772408620215357200,5.538357177734375,17.286001205444336,-32.857051849365234,18.762001037597656
1772408620235417300,5.558417236328125,15.748950958251953,-30.522001266479492,17.235000610351562
1772408620255478000,5.57847802734375,13.221000671386719,-23.23695182800293,12.70995044708252
1772408620275538400,5.598538330078125,10.870050430297852,-12.954000473022461,8.319000244140625
1772408620295598800,5.618598876953125,7.968000411987305,-3.799950122833252,4.8949503898620605
1772408620315659300,5.6386591796875,5.029950141906738,0.9889500737190247,2.4120001792907715
1772408620335720000,5.658719970703125,1.7170500755310059,2.4810001850128174,0.736050009727478
1772408620355780000,5.678780029296875,-1.5720000267028809,2.992950201034546,0.1360500007867813
1772408620375840800,5.6988408203125,-3.412950277328491,3.063000202178955,0.7320000529289246
1772408620395901200,5.718901123046875,-3.7980000972747803,2.493000030517578,1.371000051498413
1772408620415961600,5.738961669921875,-3.0390000343322754,1.6309500932693481,1.6630500555038452
1772408620436022000,5.75902197265625,-1.6240500211715698,1.015950083732605,1.6939500570297241
1772408620456082400,5.77908251953125,0.24195000529289246,0.690000057220459,1.5070500373840332
1772408620476143000,5.79914306640625,2.241000175476074,0.36705002188682556,1.158000111579895
1772408620496203300,5.819203369140625,3.850050210952759,0.09600000083446503,0.595050036907196
1772408620516264000,5.839263916015625,4.012950420379639,0.1469999998807907,0.18300001323223114
1772408620536324400,5.859324462890625,2.9860501289367676,0.7260000109672546,0.07605000585317612
1772408620556384800,5.879384765625,2.233950138092041,0.9679500460624695,0.5640000104904175
1772408620576445200,5.899445068359375,2.3610000610351562,0.5850000381469727,1.3230000734329224
1772408620596505600,5.919505615234375,2.9040000438690186,-1.0879501104354858,2.8410000801086426
1772408620616566000,5.93956591796875,3.7039501667022705,-6.052950382232666,4.942950248718262
1772408620636626400,5.95962646484375,5.665050506591797,-13.39905071258545,7.795050144195557
1772408620656686800,5.979686767578125,10.50105094909668,-20.577001571655273,12.748050689697266
1772408620676747300,5.999747314453125,15.574050903320312,-26.196001052856445,17.05095100402832
1772408620696808000,6.019807861328125,17.1739501953125,-30.172950744628906,19.737001419067383
1772408620716868000,6.0398681640625,18.177000045776367,-29.317951202392578,18.37005043029785
1772408620736928800,6.0599287109375,15.967050552368164,-26.84895133972168,14.581951141357422
1772408620756989200,6.0799892578125,13.137001037597656,-20.42595100402832,10.198050498962402
1772408620777049600,6.100049560546875,11.394001007080078,-11.73495101928711,7.033050537109375
1772408620797110000,6.120110107421875,9.440999984741211,-3.7170002460479736,4.918950080871582
1772408620817170400,6.14017041015625,5.962050437927246,1.4560500383377075,3.6100502014160156
1772408620837230800,6.16023095703125,2.9190001487731934,3.9250502586364746,2.5470001697540283
1772408620857291300,6.180291259765625,0.49605002999305725,4.461000442504883,1.8859500885009766
1772408620877351700,6.2003515625,-1.2460500001907349,3.879000186920166,1.4449501037597656
1772408620897412000,6.220412109375,-2.605950117111206,2.6100001335144043,1.120050072669983
1772408620917472500,6.240472412109375,-3.1930501461029053,1.3750500679016113,0.9259500503540039
1772408620937533000,6.260532958984375,-1.9210500717163086,0.45795002579689026,0.4900500178337097
1772408620957593300,6.28059326171875,-0.1279500126838684,0.12300000339746475,-0.13395000994205475
1772408620977653800,6.30065380859375,0.9820500612258911,-0.010050000622868538,-0.6250500082969666
1772408620997714200,6.320714111328125,1.3789501190185547,0.20205001533031464,-0.8880000710487366
1772408621017774600,6.340774658203125,1.39395010471344,0.7830000519752502,-0.6540000438690186
1772408621037835300,6.360835205078125,1.281000018119812,1.26705002784729,0.35100001096725464
1772408621057895400,6.3808955078125,0.8479500412940979,1.537950038909912,1.4599500894546509
1772408621077955800,6.400955810546875,0.999000072479248,0.9250500202178955,1.6849501132965088
1772408621098016500,6.4210166015625,1.6350001096725464,-1.0690500736236572,2.3430001735687256
1772408621118076700,6.44107666015625,3.7950000762939453,-5.854950428009033,4.273050308227539
1772408621138137000,6.46113720703125,9.280050277709961,-12.546000480651855,7.2870001792907715
1772408621158197800,6.48119775390625,15.214950561523438,-17.698951721191406,9.736050605773926
1772408621178258200,6.501258056640625,18.682050704956055,-22.15395164489746,13.344000816345215
1772408621198318300,6.521318359375,19.86495018005371,-25.798051834106445,16.56705093383789
1772408621218379000,6.54137890625,21.65595054626465,-26.22705078125,16.845001220703125
1772408621238439400,6.561439453125,20.121000289916992,-24.25695037841797,15.111001014709473
1772408621258499600,6.58149951171875,15.766050338745117,-18.714000701904297,11.194050788879395
1772408621278560300,6.601560302734375,11.47605037689209,-10.842000961303711,7.288950443267822
1772408621298620700,6.62162060546875,7.630950450897217,-3.621000289916992,4.420950412750244
1772408621318681000,6.64168115234375,3.7950000762939453,0.6850500106811523,2.4790501594543457
1772408621338741500,6.661741455078125,0.7279500365257263,2.4000000953674316,1.8109500408172607
1772408621358802000,6.681802001953125,-0.9540000557899475,3.29295015335083,1.311000108718872
1772408621378862300,6.7018623046875,-0.5689499974250793,3.331050157546997,0.6070500016212463
1772408621398922800,6.7219228515625,0.8239500522613525,1.9210500717163086,0.07800000160932541
1772408621418983200,6.741983154296875,2.098050117492676,1.2910500764846802,0.43695002794265747
1772408621439043600,6.762043701171875,2.860950231552124,0.89805006980896,0.5089499950408936
1772408621459104000,6.78210400390625,3.5050501823425293,0.7120500206947327,0.49500003457069397
1772408621479164400,6.802164306640625,3.888000249862671,1.0350000858306885,0.046950001269578934
1772408621499224800,6.822224853515625,4.0320000648498535,1.0489500761032104,0.04200000315904617
1772408621519285200,6.84228515625,4.111050128936768,0.34800001978874207,0.7800000309944153
1772408621539345700,6.862345703125,4.585050106048584,0.7450500130653381,1.5289500951766968
1772408621559406000,6.882406005859375,5.245950222015381,0.3049500286579132,1.7010000944137573
1772408621579466200,6.90246630859375,6.084000110626221,-1.3339500427246094,2.4649500846862793
1772408621599526700,6.922526611328125,9.440999984741211,-5.764050483703613,4.278000354766846
1772408621619587000,6.942587158203125,14.302950859069824,-10.168950080871582,5.451000213623047
1772408621639647500,6.9626474609375,19.189950942993164,-12.690000534057617,7.210050106048584
1772408621659708000,6.9827080078125,19.815000534057617,-14.67495059967041,10.857000350952148
1772408621679768300,7.002768310546875,18.02895164489746,-18.487051010131836,13.974000930786133
1772408621699828500,7.022828369140625,16.00800132751465,-18.249000549316406,13.966950416564941
1772408621719889200,7.04288916015625,16.195051193237305,-16.846050262451172,13.081050872802734
1772408621739949300,7.06294921875,18.175050735473633,-14.740050315856934,10.753950119018555
1772408621760009700,7.083009765625,17.53995132446289,-10.593000411987305,7.2300004959106445
1772408621780070000,7.10306982421875,12.487950325012207,-5.905050277709961,4.249050140380859
1772408621800130600,7.123130615234375,6.448050498962402,-1.746000051498413,1.8469500541687012
1772408621820191000,7.14319091796875,2.2240500450134277,0.15105000138282776,0.31800001859664917
1772408621840251100,7.163251220703125,-0.7290000319480896,1.2310500144958496,-0.12000000476837158
1772408621860311800,7.183311767578125,-2.0310001373291016,1.8780001401901245,0.2670000195503235
1772408621880372000,7.2033720703125,-0.5370000004768372,1.5829501152038574,0.7150500416755676
1772408621900432400,7.223432373046875,1.53000009059906,0.5299500226974487,0.7840500473976135
1772408621920492800,7.243492919921875,3.4170000553131104,-0.3360000252723694,0.8010000586509705
1772408621940553200,7.26355322265625,3.6919500827789307,-0.34800001978874207,0.5710500478744507
1772408621960613600,7.283613525390625,2.8350000381469727,-0.018000001087784767,-0.06000000238418579
1772408621980674000,7.303674072265625,1.4179500341415405,0.5299500226974487,-0.2440500110387802
1772408622000734500,7.323734375,0.3930000066757202,0.7669500112533569,-0.41700002551078796
1772408622020795000,7.343794921875,0.1770000010728836,0.42900002002716064,-0.2989500164985657
1772408622040855000,7.36385498046875,0.7830000519752502,0.0580500029027462,0.04905000329017639
1772408622060915500,7.38391552734375,2.3560500144958496,-0.987000048160553,0.7219500541687012
1772408622080976000,7.403975830078125,5.502000331878662,-2.524050235748291,2.089050054550171
1772408622101036500,7.42403662109375,10.903050422668457,-4.40595006942749,3.9760501384735107
1772408622121097000,7.444096923828125,15.193950653076172,-6.753000259399414,5.613000392913818
1772408622141157000,7.4641572265625,14.386950492858887,-8.803950309753418,7.7560505867004395
1772408622161217800,7.4842177734375,12.249000549316406,-10.641000747680664,10.57395076751709
1772408622181278200,7.5042783203125,11.920950889587402,-10.914000511169434,11.34000015258789
1772408622201338400,7.52433837890625,14.416050910949707,-11.48805046081543,11.695050239562988
1772408622221398800,7.544398681640625,15.634050369262695,-12.46500015258789,12.339000701904297
1772408622241459200,7.564459228515625,15.579000473022461,-11.69895076751709,11.284950256347656
1772408622261519600,7.58451953125,14.658000946044922,-9.049050331115723,9.298050880432129
1772408622281580000,7.604580078125,11.746050834655762,-6.147000312805176,7.960050582885742
1772408622301640200,7.62464013671875,7.755000591278076,-3.9150002002716064,6.586050510406494
1772408622321700600,7.64470068359375,4.14900016784668,-2.376000165939331,4.33305025100708
1772408622341761000,7.664760986328125,4.068000316619873,-0.8340000510215759,2.0749499797821045
1772408622361821400,7.684821533203125,4.999050140380859,-0.13005000352859497,0.5689499974250793
1772408622381881900,7.7048818359375,3.9910502433776855,0.22995001077651978,-0.24705001711845398
1772408622401942300,7.7249423828125,2.955000162124634,0.4939500093460083,-0.6769500374794006
1772408622422002400,7.74500244140625,3.1459500789642334,-0.13695000112056732,-1.0030500888824463
1772408622442062800,7.765062744140625,3.7230002880096436,-0.46095001697540283,-1.237950086593628
1772408622462123300,7.785123291015625,4.984950065612793,-0.5160000324249268,-1.0939500331878662
1772408622482183400,7.805183349609375,6.02400016784668,-0.325950026512146,-0.5460000038146973
1772408622502244000,7.825244140625,5.713050365447998,0.208950012922287,0.27000001072883606
1772408622522304300,7.84530419921875,5.694000244140625,0.19905000925064087,0.8730000257492065
1772408622542365000,7.865364990234375,5.54295015335083,-0.8749500513076782,1.1890500783920288
1772408622562425300,7.88542529296875,4.8480000495910645,-2.07705020904541,2.5510501861572266
1772408622582485500,7.905485595703125,5.926050186157227,-4.999950408935547,4.594050407409668
1772408622602546000,7.9255458984375,10.165950775146484,-9.166050910949707,5.748000144958496
1772408622622606300,7.9456064453125,14.77695083618164,-11.36400032043457,11.700000762939453
1772408622642666800,7.965666748046875,18.68895149230957,-14.869050979614258,16.90005111694336
1772408622662727200,7.98572705078125,20.064001083374023,-20.73495101928711,18.39405059814453
1772408622682787600,8.00578759765625,20.44005012512207,-26.57400131225586,16.92405128479004
1772408622702848000,8.025847900390625,20.214000701904297,-24.33795166015625,13.003951072692871
1772408622722908400,8.045908447265624,16.402950286865234,-18.223051071166992,9.991950035095215
1772408622742968800,8.06596875,11.337000846862793,-10.36500072479248,7.8349504470825195
1772408622763029200,8.086029296875,6.211050510406494,-3.3700501918792725,5.64900016784668
1772408622783089700,8.106089599609374,2.1259500980377197,1.0660500526428223,4.672950267791748
1772408622803149800,8.12614990234375,-0.7770000100135803,2.3710501194000244,4.183950424194336
1772408622823210500,8.14621044921875,-1.9810501337051392,2.574000120162964,3.0679502487182617
1772408622843270700,8.166270751953125,-0.9919500350952148,2.31600022315979,2.431950092315674
1772408622863331000,8.1863310546875,1.072950005531311,1.593000054359436,2.2930500507354736
1772408622883391500,8.2063916015625,3.3540000915527344,0.019950000569224358,1.7800500392913818
1772408622903451600,8.22645166015625,4.446000099182129,-1.3780500888824463,0.4990500211715698
1772408622923512300,8.24651220703125,3.538950204849243,-1.495050072669983,-0.19905000925064087
1772408622943572500,8.266572509765625,2.1499500274658203,-0.39795002341270447,-0.040950000286102295
1772408622963633000,8.2866328125,1.5280500650405884,0.09405000507831573,0.15000000596046448
1772408622983693000,8.306693115234374,2.0209500789642334,-0.027000000700354576,0.11400000751018524
1772408623003753500,8.32675341796875,2.3080501556396484,-0.23805001378059387,0.05895000323653221
1772408623023814000,8.34681396484375,2.584050178527832,-0.5230500102043152,0.6409500241279602
1772408623043874300,8.366874267578124,3.421950101852417,-1.3180500268936157,1.4910000562667847
1772408623063934700,8.386934814453125,5.0809502601623535,-3.103950262069702,2.3479502201080322
1772408623083995000,8.406994873046875,8.381999969482422,-5.350050449371338,3.29295015335083
1772408623104055300,8.42705517578125,12.172050476074219,-7.212000370025635,4.909950256347656
1772408623124115700,8.44711572265625,12.417000770568848,-8.838000297546387,7.3560004234313965
1772408623144176000,8.467176025390625,10.03695011138916,-11.146050453186035,9.814950942993164
1772408623164236500,8.487236572265624,6.763950347900391,-13.677000999450684,13.003951072692871
1772408623184296700,8.507296630859376,7.381950378417969,-16.30095100402832,13.966950416564941
1772408623204357400,8.527357421875,12.82395076751709,-18.577051162719727,14.055000305175781
1772408623224417500,8.54741748046875,17.46405029296875,-16.791000366210938,13.588951110839844
1772408623244478000,8.56747802734375,17.296051025390625,-11.377950668334961,12.922950744628906
1772408623264538400,8.587538330078125,13.077000617980957,-6.1870503425598145,10.705950736999512
1772408623284598500,8.6075986328125,9.712950706481934,-3.613950252532959,6.375000476837158
1772408623304659000,8.627658935546876,6.000000476837158,-1.9090501070022583,1.918950080871582
1772408623324719600,8.6477197265625,2.868000030517578,-0.08505000174045563,-0.4330500066280365
1772408623344779800,8.66777978515625,1.8490500450134277,0.46995002031326294,-0.5239500403404236
1772408623364840200,8.687840087890624,2.026050090789795,1.13100004196167,0.4249500334262848
1772408623384900400,8.707900390625,3.031050205230713,0.89805006980896,0.9619500637054443
1772408623404960800,8.727960693359375,4.173000335693359,0.9409500360488892,0.8080500364303589
1772408623425021200,8.748021240234374,4.88700008392334,1.3099501132965088,1.5619500875473022
1772408623445081600,8.76808154296875,4.8319501876831055,1.1620500087738037,2.001000165939331
1772408623465141800,8.788141845703125,3.6180002689361572,0.8580000400543213,1.2079501152038574
1772408623485202200,8.8082021484375,2.754000186920166,0.6949500441551208,0.7630500197410583
1772408623505262600,8.8282626953125,2.9760000705718994,-0.43905001878738403,0.556950032711029
1772408623525323000,8.848322998046875,2.634000062942505,-1.1640000343322754,0.8629500269889832
1772408623545383400,8.868383544921874,3.8020501136779785,-2.296950101852417,2.3329501152038574
1772408623565443600,8.888443603515626,7.420050144195557,-5.47605037689209,5.467050075531006
1772408623585504000,8.90850390625,13.798050880432129,-10.35105037689209,9.865950584411621
1772408623605564400,8.928564453125,17.832000732421875,-13.690950393676758,13.713000297546387
1772408623625624800,8.948624755859376,16.696950912475586,-16.5970516204834,16.15005111694336
1772408623645685200,8.968685302734375,14.257950782775879,-19.954050064086914,16.560001373291016
1772408623665745700,8.98874560546875,12.859050750732422,-21.474000930786133,14.392951011657715
1772408623685805800,9.008805908203126,15.58905029296875,-21.240001678466797,13.504950523376465
1772408623705866200,9.0288662109375,15.642001152038574,-17.068950653076172,11.500950813293457
1772408623725926700,9.0489267578125,12.259050369262695,-10.504050254821777,7.7059502601623535
1772408623745987000,9.068987060546876,7.365000247955322,-4.297950267791748,5.685000419616699
1772408623766047500,9.089047607421875,2.293950080871582,-0.45795002579689026,5.539050102233887
1772408623786108000,9.10910791015625,-1.3830000162124634,1.2480000257492065,4.861950397491455
1772408623806168000,9.12916796875,-3.700050115585327,2.335050106048584,4.336950302124023
1772408623826228500,9.149228515625,-3.6570000648498535,2.683950185775757,3.8989500999450684
1772408623846288600,9.16928857421875,-2.5990500450134277,1.6639500856399536,2.0410501956939697
1772408623866349300,9.189349365234374,-0.9109500646591187,0.5100000500679016,0.8629500269889832
1772408623886409700,9.20940966796875,1.6909500360488892,-0.3910500109195709,-0.0019500000635161996
1772408623906470100,9.22947021484375,3.229950189590454,-1.1569499969482422,-0.8190000653266907
1772408623926530300,9.2495302734375,3.538950204849243,-0.7410000562667847,-0.7369500398635864
1772408623946591000,9.269591064453126,3.721050262451172,-0.17595000565052032,-0.032999999821186066
1772408623966651100,9.289651123046875,3.0049500465393066,0.20205001533031464,1.075950026512146
1772408623986711600,9.309711669921874,2.373000144958496,-0.18300001323223114,1.141050100326538
1772408624006772000,9.32977197265625,2.6070001125335693,-0.9540000557899475,0.7750500440597534
1772408624026832100,9.34983203125,3.3520500659942627,-1.665000081062317,2.4600000381469727
1772408624046892500,9.369892578125,4.978050231933594,-3.8839502334594727,5.47005033493042
1772408624066952700,9.38995263671875,6.736950397491455,-7.135950565338135,8.479050636291504
1772408624087013400,9.410013427734375,8.689050674438477,-10.018050193786621,12.259950637817383
1772408624107073800,9.43007373046875,11.752950668334961,-13.606950759887695,15.68595027923584
1772408624127134000,9.450134033203126,14.253000259399414,-19.827001571655273,17.47905158996582
1772408624147194400,9.4701943359375,15.36405086517334,-16.6429500579834,14.130001068115234
1772408624167254800,9.4902548828125,11.932950973510742,-12.139050483703613,11.862000465393066
1772408624187315000,9.51031494140625,8.457000732421875,-10.207050323486328,10.12695026397705
