time,seconds_elapsed,z,y,x
1772402028345897200,0.229897216796875,-1.0785460472106934,-0.7658140063285828,0.13436199724674225
1772402028365954000,0.2499541015625,0.7211620211601257,-1.0606509447097778,-0.08611000329256058
1772402028386011000,0.270010986328125,1.1721299886703491,-1.457321047782898,-0.6856880187988281
1772402028406067700,0.290067626953125,1.1617039442062378,-1.3306570053100586,-1.1797499656677246
1772402028426124500,0.31012451171875,2.0157630443573,-0.652525007724762,-0.7541999816894531
1772402028446181400,0.330181396484375,2.413409948348999,-0.40202000737190247,-0.06576000154018402
1772402028466238200,0.35023828125,1.9491280317306519,-0.13521599769592285,0.14259099960327148
1772402028486295000,0.370294921875,1.3241020441055298,0.11742600053548813,0.46447300910949707
1772402028506351900,0.390351806640625,0.8048819899559021,0.20674100518226624,0.8275780081748962
1772402028526409000,0.410408935546875,0.4007050096988678,-0.14820599555969238,0.7332630157470703
1772402028546465500,0.430465576171875,0.022964000701904297,-0.19696499407291412,0.5522099733352661
1772402028566522600,0.450522705078125,-0.5480279922485352,-0.20957200229167938,0.6505680084228516
1772402028586579500,0.470579345703125,-1.0152230262756348,-0.3516570031642914,0.3748539984226227
1772402028606636000,0.490635986328125,-0.8217790126800537,-0.4157260060310364,0.13668300211429596
1772402028626692900,0.51069287109375,-0.4910230040550232,-0.10058099776506424,0.06934700161218643
1772402028646750000,0.53075,-0.015217999927699566,0.2699350118637085,0.693077027797699
1772402028666806500,0.550806640625,0.0814250037074089,-0.013651000335812569,2.0448620319366455
1772402028686863400,0.57086328125,0.582738995552063,-0.8725209832191467,2.4630889892578125
1772402028706920200,0.590920166015625,1.5197919607162476,-2.8932158946990967,0.9576709866523743
1772402028726977000,0.61097705078125,1.2310340404510498,-3.1513729095458984,-1.4346619844436646
1772402028747033900,0.631033935546875,0.8624269962310791,-2.205099105834961,-3.31892991065979
1772402028767091000,0.651091064453125,-0.025257999077439308,-1.4536800384521484,-3.745543956756592
1772402028787147800,0.671147705078125,-1.8890060186386108,-0.8877429962158203,-2.268435001373291
1772402028807204400,0.691204345703125,-1.5248039960861206,0.10980500280857086,-0.48514801263809204
1772402028827261200,0.71126123046875,-0.4118439853191376,0.1758439987897873,-0.02731800079345703
1772402028847318000,0.731318115234375,-0.26387500762939453,0.971875011920929,-0.08905400335788727
1772402028867374800,0.751374755859375,-0.5695000290870667,1.4463000297546387,-0.49764299392700195
1772402028887431700,0.771431640625,-1.0724010467529297,2.076240062713623,-0.8597149848937988
1772402028907488500,0.791488525390625,-1.3715200424194336,2.2833919525146484,-0.6661720275878906
1772402028927545300,0.81154541015625,-1.941215991973877,2.1923129558563232,-0.4753369987010956
1772402028947602200,0.831602294921875,-2.844172954559326,1.9402509927749634,-0.3458699882030487
1772402028967659000,0.851658935546875,-3.8137381076812744,1.525001049041748,-0.5470960140228271
1772402028987715800,0.8717158203125,-4.466190814971924,1.0440000295639038,-0.7000759840011597
1772402029007772700,0.891772705078125,-4.194552898406982,0.7512000203132629,-0.5328609943389893
1772402029027829500,0.91182958984375,-3.1564419269561768,0.5545600056648254,0.39531001448631287
1772402029047886300,0.93188623046875,-1.8763530254364014,0.32524800300598145,1.1162480115890503
1772402029067943200,0.951943115234375,-0.3538829982280731,0.27939799427986145,1.555398941040039
1772402029087999700,0.971999755859375,1.1648930311203003,0.502718985080719,2.0123190879821777
1772402029108056800,0.992056884765625,2.239914894104004,0.6933749914169312,2.4930551052093506
1772402029128113700,1.01211376953125,2.05593204498291,0.8514999747276306,3.1896440982818604
1772402029148170500,1.03217041015625,2.3863449096679688,1.6699999570846558,5.173315048217773
1772402029168227600,1.0522275390625,5.971476078033447,1.3567999601364136,7.318652153015137
1772402029188284200,1.0722841796875,8.443581581115723,0.06464000046253204,5.286121845245361
1772402029208341000,1.092341064453125,7.407664775848389,-0.3906869888305664,1.8232970237731934
1772402029228397800,1.112397705078125,5.626932144165039,-0.2397489994764328,0.11143700033426285
1772402029248455000,1.132454833984375,3.7087459564208984,-1.3645999431610107,2.1235499382019043
1772402029268511500,1.152511474609375,4.434196949005127,-3.441279888153076,1.4844399690628052
1772402029288568600,1.172568603515625,2.379357099533081,-4.7130231857299805,-4.539647102355957
1772402029308625400,1.19262548828125,-3.2469139099121094,-5.482419013977051,-8.118118286132812
1772402029328682200,1.21268212890625,-8.456730842590332,-3.142735004425049,-7.450493812561035
1772402029348738800,1.23273876953125,-10.271784782409668,-1.7077879905700684,-4.633194923400879
1772402029368796000,1.2527958984375,-8.405427932739258,-0.47343000769615173,-2.9521560668945312
1772402029388852700,1.272852783203125,-5.082740783691406,-0.22434400022029877,-1.38652503490448
1772402029408909600,1.29290966796875,-2.5725929737091064,0.32692399621009827,-0.6380199790000916
1772402029428966400,1.31296630859375,-0.7940739989280701,1.0407390594482422,-0.4336160123348236
1772402029449023200,1.333023193359375,0.6231399774551392,1.630990982055664,-0.3084920048713684
1772402029469080000,1.353080078125,1.155311942100525,2.0919930934906006,-0.16439400613307953
1772402029489137000,1.373136962890625,0.8898490071296692,2.595194101333618,0.22768400609493256
1772402029509194000,1.393194091796875,0.28867998719215393,2.8673551082611084,0.591746985912323
1772402029529250800,1.413250732421875,-0.08105599880218506,2.751483917236328,0.6837980151176453
1772402029549307400,1.433307373046875,0.7375550270080566,2.385188102722168,0.7558379769325256
1772402029569364500,1.453364501953125,1.6852439641952515,2.124150037765503,0.519070029258728
1772402029589421300,1.47342138671875,2.1985960006713867,1.797719955444336,0.5896559953689575
1772402029609478100,1.49347802734375,2.2452759742736816,1.453376054763794,0.48692500591278076
1772402029629535000,1.513534912109375,1.5322209596633911,1.1698999404907227,0.2743400037288666
1772402029649591800,1.533591796875,1.2489769458770752,0.7519199848175049,0.24427199363708496
1772402029669648600,1.553648681640625,1.8879810571670532,0.3455359935760498,0.11701700091362
1772402029689705500,1.57370556640625,2.5039849281311035,-0.028370000422000885,0.2984139919281006
1772402029709762600,1.593762451171875,2.6159870624542236,-0.46909600496292114,0.9211310148239136
1772402029729819400,1.6138193359375,1.7215900421142578,-0.788877010345459,1.211305022239685
1772402029749876200,1.633876220703125,0.8156710267066956,-0.8479009866714478,1.297044038772583
1772402029769933000,1.65393310546875,0.8141379952430725,-0.9119210243225098,1.1600350141525269
1772402029789990000,1.673989990234375,1.1049089431762695,-0.7447360157966614,0.4760279953479767
1772402029810046700,1.694046630859375,1.1255279779434204,-0.21658900380134583,0.2944220006465912
1772402029830103800,1.714103759765625,-0.009976999834179878,0.40352800488471985,2.33473801612854
1772402029850160600,1.73416064453125,0.24321800470352173,-1.51397705078125,4.062990188598633
1772402029870217500,1.754217529296875,1.3609750270843506,-4.947981834411621,2.1663920879364014
1772402029890274300,1.7742744140625,0.7839789986610413,-4.933585166931152,-2.338886022567749
1772402029910331100,1.7943310546875,0.5663830041885376,-2.9356679916381836,-3.6399080753326416
1772402029930388200,1.81438818359375,0.7843070030212402,-1.664533019065857,-1.4551270008087158
1772402029950445000,1.834445068359375,0.08504500240087509,-0.3300260007381439,0.31189799308776855
1772402029970502000,1.854501953125,-0.39676201343536377,0.45997801423072815,1.2135180234909058
1772402029990558700,1.874558837890625,-0.49020999670028687,0.8471819758415222,0.8388149738311768
1772402030010615600,1.894615478515625,-1.05696702003479,0.8153449892997742,-0.9321479797363281
1772402030030672400,1.91467236328125,-1.858373999595642,1.2826759815216064,-2.6417179107666016
1772402030050729200,1.934729248046875,-2.8426990509033203,1.6733410358428955,-3.013374090194702
1772402030070786300,1.954786376953125,-4.210958957672119,1.7674729824066162,-2.6018989086151123
1772402030090843100,1.974843017578125,-5.195967197418213,1.8339780569076538,-2.051119089126587
1772402030110900200,1.994900146484375,-5.0679731369018555,1.9207830429077148,-1.4704960584640503
1772402030130956800,2.014956787109375,-4.57197904586792,1.965425968170166,-1.3467960357666016
1772402030151013600,2.035013671875,-3.939182996749878,1.7963409423828125,-1.1214369535446167
1772402030171070700,2.05507080078125,-2.662545919418335,1.33787202835083,-0.7307490110397339
1772402030191127600,2.07512744140625,-1.0172369480133057,1.1566979885101318,-0.40219900012016296
1772402030211184400,2.095184326171875,0.38861000537872314,1.3253580331802368,0.24303999543190002
1772402030231241200,2.1152412109375,0.7036880254745483,1.4130860567092896,0.6664320230484009
1772402030251298300,2.13529833984375,0.6917499899864197,1.2624690532684326,1.2211450338363647
1772402030271355100,2.155355224609375,2.3838000297546387,0.90277498960495,1.7809159755706787
1772402030291412000,2.175411865234375,4.3414411544799805,0.11101999878883362,1.9439330101013184
1772402030311468800,2.19546875,4.997951984405518,-0.6847829818725586,1.0895459651947021
1772402030331525600,2.215525634765625,5.442361831665039,1.7961729764938354,0.7796369791030884
1772402030351582700,2.235582763671875,15.325089454650879,3.690537929534912,6.602109909057617
1772402030371639600,2.2556396484375,14.078472137451172,-2.5035688877105713,8.349686622619629
1772402030391696400,2.2756962890625,0.5651760101318359,-6.521255016326904,-0.965848982334137
1772402030411753500,2.29575341796875,-7.944659233093262,-7.029004096984863,-4.979879856109619
1772402030431810000,2.31581005859375,-8.357325553894043,-5.79520320892334,-4.369503974914551
1772402030451867100,2.3358671875,-6.871461868286133,-3.4985620975494385,-3.913203001022339
1772402030471924000,2.355924072265625,-4.8939690589904785,-2.8660500049591064,-2.864161968231201
1772402030491980800,2.375980712890625,-3.59517502784729,-2.0456409454345703,-1.4177299737930298
1772402030512037600,2.39603759765625,-2.6809399127960205,-1.2725119590759277,-0.008582999929785728
1772402030532094700,2.4160947265625,-1.6223520040512085,0.35879001021385193,0.7763320207595825
1772402030552151600,2.436151611328125,-0.6122810244560242,2.1278319358825684,1.2282660007476807
1772402030572208400,2.45620849609375,-0.35702499747276306,3.592664957046509,1.6586129665374756
1772402030592265200,2.47626513671875,-0.6176199913024902,4.441332817077637,1.726889967918396
1772402030612322000,2.496322021484375,-0.3268960118293762,4.315465927124023,1.3343119621276855
1772402030632379000,2.51637890625,0.49288201332092285,3.701172113418579,0.5842499732971191
1772402030652436000,2.53643603515625,0.7503060102462769,3.2977380752563477,-0.03259899839758873
1772402030672492800,2.556492919921875,0.3690440058708191,2.9029901027679443,-0.1828799992799759
1772402030692549600,2.576549560546875,0.1896349936723709,2.6287920475006104,-0.055904000997543335
1772402030712606500,2.5966064453125,0.2669079899787903,1.8326330184936523,-0.5351229906082153
1772402030732663300,2.616663330078125,1.2687259912490845,0.9317070245742798,-1.1200979948043823
1772402030752720100,2.63672021484375,1.857380986213684,0.6997650265693665,-0.6776779890060425
1772402030772777000,2.65677685546875,1.6987040042877197,0.24941200017929077,-0.08774299919605255
1772402030792834000,2.676833984375,1.6845639944076538,-0.1396690011024475,0.28420498967170715
1772402030812891000,2.696890869140625,2.3188509941101074,-0.47013500332832336,0.6217640042304993
1772402030832947700,2.71694775390625,2.67828106880188,-1.163308024406433,0.4134109914302826
1772402030853004800,2.7370048828125,3.616225004196167,-1.733046054840088,0.012329000048339367
1772402030873061400,2.757061279296875,4.488180160522461,-1.8136370182037354,-0.03413600102066994
1772402030893118500,2.777118408203125,3.3897440433502197,-1.4125089645385742,0.7582899928092957
1772402030913175300,2.79717529296875,1.3997950553894043,-2.1332080364227295,1.830631971359253
1772402030933232000,2.817232177734375,0.2726359963417053,-3.972965955734253,1.6477049589157104
1772402030953289000,2.8372890625,-1.0498900413513184,-5.063172817230225,1.073364019393921
1772402030973346000,2.857345947265625,-1.7991119623184204,-3.9793379306793213,-0.6005079746246338
1772402030993403000,2.87740283203125,-1.2992889881134033,-2.4002699851989746,-1.0996060371398926
1772402031013459500,2.89745947265625,-1.4610309600830078,-1.3914159536361694,-0.8124849796295166
1772402031033516500,2.9175166015625,-1.784024953842163,-0.6131330132484436,-0.14838799834251404
1772402031053573400,2.937573486328125,-1.8656200170516968,0.24309299886226654,0.2780889868736267
1772402031073630200,2.957630126953125,-1.1548960208892822,1.5296740531921387,0.30487099289894104
1772402031093687300,2.977687255859375,0.048882000148296356,2.6445391178131104,-0.09930200129747391
1772402031113744100,2.997744140625,-0.20409299433231354,2.918031930923462,-0.9698420166969299
1772402031133800700,3.01780078125,-1.582474946975708,2.7696259021759033,-1.3294730186462402
1772402031153857800,3.03785791015625,-2.9211790561676025,2.2172999382019043,-1.3243789672851562
1772402031173914600,3.05791455078125,-4.269743919372559,1.7186399698257446,-1.6579029560089111
1772402031193971500,3.077971435546875,-5.164595127105713,1.5677119493484497,-1.959921956062317
1772402031214028300,3.0980283203125,-5.048476219177246,1.319769024848938,-1.7463380098342896
1772402031234085400,3.11808544921875,-4.6875810623168945,1.1614149808883667,-1.1114699840545654
1772402031254142200,3.13814208984375,-3.8972649574279785,1.237131953239441,-0.17877599596977234
1772402031274199300,3.15819921875,-3.0106120109558105,1.252105951309204,0.6281780004501343
1772402031294255900,3.178255859375,-0.9676889777183533,1.162484049797058,0.7593430280685425
1772402031314312700,3.198312744140625,2.235447883605957,0.48038700222969055,0.8770740032196045
1772402031334369800,3.218369873046875,4.9027581214904785,-0.2732889950275421,0.9488589763641357
1772402031354426600,3.238426513671875,5.84140682220459,-0.7050309777259827,1.1846870183944702
1772402031374483700,3.258483642578125,6.253125190734863,0.06637399643659592,1.8261499404907227
1772402031394540500,3.27854052734375,12.17770004272461,3.1242990493774414,5.587319850921631
1772402031414597400,3.298597412109375,20.38376235961914,0.9682390093803406,8.529855728149414
1772402031434654200,3.318654296875,12.76540756225586,-5.444606781005859,7.18788480758667
1772402031454711000,3.3387109375,-2.7812728881835938,-10.174886703491211,-1.8416919708251953
1772402031474768000,3.358767822265625,-12.129819869995117,-8.858308792114258,-6.253354072570801
1772402031494825000,3.378824951171875,-13.956656455993652,-5.287446975708008,-5.906682968139648
1772402031514881800,3.3988818359375,-12.970125198364258,-3.5523569583892822,-5.1141462326049805
1772402031534938600,3.418938720703125,-7.774499893188477,-1.5946860313415527,-3.540117025375366
1772402031554995500,3.438995361328125,-2.7676000595092773,-0.2973490059375763,-1.2632930278778076
1772402031575052300,3.45905224609375,-0.6236799955368042,0.7181199789047241,0.37896400690078735
1772402031595109000,3.479109130859375,-0.31734299659729004,1.4592959880828857,0.9447720050811768
1772402031615166200,3.499166259765625,-0.483474999666214,2.866636037826538,0.051017001271247864
1772402031635223000,3.51922314453125,-0.26037999987602234,3.826909065246582,-0.110385000705719
1772402031655279900,3.53927978515625,-0.2067040055990219,4.054327011108398,0.712490975856781
1772402031675336700,3.559336669921875,0.010635999962687492,3.775460958480835,1.439592957496643
1772402031695393800,3.579393798828125,0.5373089909553528,3.5491690635681152,1.2548739910125732
1772402031715450400,3.599450439453125,0.9778469800949097,3.2361350059509277,0.7934989929199219
1772402031735507200,3.619507080078125,1.2550770044326782,2.7361080646514893,0.21159900724887848
1772402031755564300,3.639564208984375,1.5136619806289673,2.1696860790252686,-0.23552000522613525
1772402031775621000,3.65962109375,1.4389289617538452,1.3869489431381226,-0.8796160221099854
1772402031795678000,3.679677978515625,1.4727439880371094,0.8343589901924133,-1.4660929441452026
1772402031815734500,3.699734619140625,1.9429949522018433,0.6322870254516602,-1.3592740297317505
1772402031835792000,3.7197919921875,2.402395009994507,0.32023000717163086,-0.6426190137863159
1772402031855848400,3.739848388671875,2.4523160457611084,-0.15901599824428558,-0.14209499955177307
1772402031875905300,3.7599052734375,2.1770529747009277,-0.6256129741668701,-0.1768759936094284
1772402031895962000,3.779962158203125,2.6472420692443848,-1.1188900470733643,-0.1535010039806366
1772402031916019200,3.800019287109375,3.5865941047668457,-0.9087120294570923,0.007598999887704849
1772402031936076000,3.820075927734375,3.3676750659942627,-1.0413689613342285,0.38767901062965393
1772402031956132600,3.840132568359375,2.638139009475708,-2.297895908355713,1.524543046951294
1772402031976189700,3.860189697265625,2.02891206741333,-4.119915962219238,2.236433982849121
1772402031996246500,3.88024658203125,-0.3864690065383911,-5.623133182525635,2.3443479537963867
1772402032016303400,3.900303466796875,-2.15557599067688,-5.40570592880249,1.3546780347824097
1772402032036360400,3.9203603515625,-1.214859962463379,-3.733365058898926,0.09174200147390366
1772402032056417300,3.940417236328125,0.18891100585460663,-2.080291986465454,-0.5010049939155579
1772402032076474000,3.96047412109375,0.04552900046110153,-0.8522329926490784,-0.5696039795875549
1772402032096531000,3.980531005859375,-1.0611759424209595,0.051812998950481415,-0.4980829954147339
1772402032116587800,4.000587890625,-2.327341079711914,1.3918499946594238,-0.9176660180091858
1772402032136644600,4.02064453125,-2.3698720932006836,2.195880889892578,-1.0973329544067383
1772402032156701700,4.04070166015625,-2.7750980854034424,3.104703903198242,-1.535465955734253
1772402032176758500,4.060758544921875,-3.5064780712127686,3.662163019180298,-1.2587729692459106
1772402032196815400,4.0808154296875,-3.876383066177368,3.272130012512207,-0.9454180002212524
1772402032216872200,4.1008720703125,-3.9803059101104736,2.7961039543151855,-0.9531340003013611
1772402032236929000,4.120928955078125,-4.025044918060303,2.4400830268859863,-0.9601070284843445
1772402032256985900,4.14098583984375,-3.9304358959198,2.0704660415649414,-0.8232859969139099
1772402032277043000,4.16104296875,-3.234747886657715,1.7963730096817017,-0.5842289924621582
1772402032297099500,4.181099609375,-2.2557990550994873,1.6306979656219482,-0.44018301367759705
1772402032317156400,4.20115625,-1.9022389650344849,1.5493580102920532,0.04705300182104111
1772402032337213200,4.221213134765625,-0.7865909934043884,1.3426870107650757,0.5648419857025146
1772402032357270300,4.241270263671875,0.615526020526886,0.9669489860534668,0.821474015712738
1772402032377327000,4.2613271484375,2.264420986175537,0.034359000623226166,1.2235790491104126
1772402032397384000,4.281384033203125,3.9179370403289795,-1.0485119819641113,1.6116629838943481
1772402032417440800,4.301440673828125,4.331949234008789,-1.4364099502563477,1.1469299793243408
1772402032437497600,4.32149755859375,5.144759178161621,0.18767200410366058,1.8967440128326416
1772402032457554400,4.341554443359375,12.099807739257812,0.261337012052536,6.83979606628418
1772402032477611300,4.361611328125,18.785446166992188,-1.9749289751052856,11.319835662841797
1772402032497668000,4.381668212890625,12.371557235717773,-8.748744010925293,2.695067882537842
1772402032517725000,4.401724853515625,-3.7843539714813232,-8.935794830322266,-7.962344169616699
1772402032537782000,4.421781982421875,-12.094682693481445,-5.103035926818848,-8.07067584991455
1772402032557838800,4.4418388671875,-15.355746269226074,-3.3280279636383057,-6.404540061950684
1772402032577895400,4.4618955078125,-12.198996543884277,-2.6432220935821533,-4.8708319664001465
1772402032597952500,4.481952392578125,-8.78959846496582,-1.7065789699554443,-3.019865036010742
1772402032618009300,4.50200927734375,-4.536478042602539,0.3283360004425049,-1.0134919881820679
1772402032638066200,4.522066162109375,-1.1035820245742798,0.9082689881324768,0.7836049795150757
1772402032658123300,4.542123291015625,0.5331339836120605,1.105815052986145,0.8452839851379395
1772402032678179800,4.562179931640625,1.3001070022583008,3.104651927947998,-0.1901720017194748
1772402032698236700,4.582236572265625,1.3840850591659546,3.761322021484375,-0.4721370041370392
1772402032718293500,4.60229345703125,1.1552679538726807,3.226656913757324,0.22548900544643402
1772402032738350600,4.6223505859375,2.0274150371551514,3.1485259532928467,0.7579910159111023
1772402032758407400,4.642407470703125,2.677931070327759,2.8292200565338135,1.0407929420471191
1772402032778464000,4.662464111328125,2.72794508934021,2.696176052093506,1.3078340291976929
1772402032798521000,4.68252099609375,1.9199559688568115,2.6969408988952637,1.4158669710159302
1772402032818578000,4.702577880859375,0.43116500973701477,2.495151996612549,0.6326940059661865
1772402032838634800,4.722634765625,-0.4038679897785187,1.7889219522476196,-0.04344400018453598
1772402032858691600,4.742691650390625,-0.07989399880170822,1.3063369989395142,0.5092440247535706
1772402032878748400,4.76274853515625,0.2744840085506439,0.37466999888420105,0.9169949889183044
1772402032898805200,4.78280517578125,1.7467880249023438,-0.9986630082130432,0.22959600389003754
1772402032918862000,4.802862060546875,1.9350299835205078,-0.9133309721946716,0.9516770243644714
1772402032938919200,4.822919189453125,2.126422882080078,-1.6986639499664307,2.152540922164917
1772402032958975700,4.842975830078125,1.573138952255249,-1.766131043434143,1.8900330066680908
1772402032979032800,4.86303271484375,1.3521100282669067,-1.5937050580978394,1.2152260541915894
1772402032999089700,4.883089599609375,2.784888982772827,-2.218964099884033,0.5681809782981873
1772402033019146200,4.903146240234375,2.939910888671875,-3.467971086502075,0.49854499101638794
1772402033039203300,4.923203369140625,0.755128026008606,-5.009576797485352,-0.7827630043029785
1772402033059260200,4.94326025390625,-0.9094970226287842,-4.797262191772461,-1.4406110048294067
1772402033079317000,4.96331689453125,-0.30039700865745544,-3.665009021759033,-1.3244889974594116
1772402033099373800,4.983373779296875,0.47968098521232605,-2.704008102416992,-0.09799099713563919
1772402033119430700,5.0034306640625,-0.5586540102958679,-2.002405881881714,0.5480070114135742
1772402033139487500,5.023487548828125,-1.8061230182647705,-0.3515250086784363,0.4592050015926361
1772402033159544600,5.043544677734375,-2.1808979511260986,1.4523789882659912,0.6241639852523804
1772402033179601200,5.06360107421875,-0.9823179841041565,3.270703077316284,0.9777309894561768
1772402033199658000,5.083657958984375,-0.5730540156364441,4.2653632164001465,0.44538500905036926
1772402033219714800,5.10371484375,-1.9680429697036743,4.427490234375,-0.41009101271629333
1772402033239771600,5.123771728515625,-3.6272339820861816,4.0211920738220215,-1.513672947883606
1772402033259828500,5.143828369140625,-4.62818717956543,3.4217538833618164,-2.542937994003296
1772402033279885300,5.16388525390625,-5.250549793243408,3.0838029384613037,-3.0631508827209473
1772402033299942100,5.183942138671875,-4.348440170288086,2.7718420028686523,-2.4849209785461426
1772402033319999000,5.2039990234375,-3.0091519355773926,2.2942728996276855,-1.575935959815979
1772402033340055800,5.224055908203125,-1.764920949935913,1.8138179779052734,-0.5983489751815796
1772402033360112600,5.244112548828125,-0.4039370119571686,1.3574550151824951,-0.024279000237584114
1772402033380169500,5.26416943359375,0.5808500051498413,1.062764048576355,0.09657599776983261
1772402033400226300,5.284226318359375,1.3358800411224365,0.5846109986305237,0.12526099383831024
1772402033420283100,5.304283203125,3.1831040382385254,-0.04751000180840492,0.6634079813957214
1772402033440340000,5.324340087890625,4.594482898712158,-0.946008026599884,1.4595270156860352
1772402033460396800,5.344396728515625,5.0603861808776855,-2.1512069702148438,2.3052210807800293
1772402033480453600,5.36445361328125,4.361908912658691,-2.395364999771118,2.1233770847320557
1772402033500510500,5.384510498046875,4.50072717666626,-0.7994920015335083,3.08030104637146
1772402033520567300,5.4045673828125,9.486982345581055,0.061204999685287476,5.066641807556152
1772402033540624100,5.4246240234375,10.019986152648926,-0.07343500107526779,5.074112892150879
1772402033560681000,5.444680908203125,1.471189022064209,-4.387547969818115,2.000890016555786
1772402033580737800,5.46473779296875,-7.92304801940918,-6.6284379959106445,0.6407120227813721
1772402033600794600,5.484794677734375,-9.064838409423828,-6.802751064300537,-1.6554299592971802
1772402033620851500,5.5048515625,-5.561470985412598,-3.5094010829925537,-1.5883439779281616
1772402033640908300,5.524908203125,-5.795577049255371,-2.337920904159546,-2.9530749320983887
1772402033660965000,5.544965087890625,-4.161261081695557,-1.4127360582351685,-2.321660041809082
1772402033681022000,5.56502197265625,-3.9306089878082275,-0.2317889928817749,-0.9877279996871948
1772402033701078800,5.585078857421875,-3.829287052154541,1.0345669984817505,-0.566182017326355
1772402033721135600,5.605135498046875,-2.609829902648926,1.8620539903640747,-0.753745973110199
1772402033741192400,5.6251923828125,-0.1462640017271042,2.236844062805176,-1.4109959602355957
1772402033761249300,5.645249267578125,1.3309880495071411,2.9558749198913574,-1.9583970308303833
1772402033781305900,5.665305908203125,1.3311899900436401,3.6454989910125732,-1.5971180200576782
1772402033801362700,5.68536279296875,0.8729519844055176,3.90120005607605,-0.7112939953804016
1772402033821419800,5.705419677734375,0.29996201395988464,3.360158920288086,-0.2642349898815155
1772402033841476400,5.725476318359375,0.18636900186538696,2.5257270336151123,-0.29938799142837524
1772402033861533400,5.745533447265625,1.6242949962615967,1.9149819612503052,-0.6419100165367126
1772402033881590300,5.76559033203125,2.544235944747925,1.1527849435806274,-1.203927993774414
1772402033901647000,5.785647216796875,2.1465890407562256,0.5910279750823975,-0.9783419966697693
1772402033921704000,5.805703857421875,1.6676709651947021,-0.07917600125074387,-0.6602740287780762
1772402033941760800,5.8257607421875,2.162935972213745,-0.5913410186767578,-0.3106189966201782
1772402033961817300,5.8458173828125,2.864748954772949,-1.2242729663848877,0.05950399860739708
1772402033981874400,5.86587451171875,2.3565990924835205,-1.964218020439148,0.25080299377441406
1772402034001931300,5.88593115234375,2.842879056930542,-2.3145740032196045,0.22144199907779694
1772402034021987800,5.90598779296875,4.212703227996826,-2.4468600749969482,0.4051539897918701
1772402034042044700,5.926044677734375,4.28536319732666,-2.2718870639801025,0.8929229974746704
1772402034062101500,5.9461015625,2.287489891052246,-2.529510021209717,1.6895380020141602
1772402034082158300,5.966158447265625,0.5803920030593872,-3.244407892227173,2.378031015396118
1772402034102215200,5.986215087890625,0.06591399759054184,-4.012327194213867,3.921623945236206
1772402034122272000,6.00627197265625,-0.6520689725875854,-3.918661117553711,5.173299789428711
1772402034142328600,6.02632861328125,-1.4656540155410767,-2.4701290130615234,3.3930389881134033
1772402034162385700,6.0463857421875,-1.4269230365753174,-0.6321030259132385,0.9928309917449951
1772402034182442200,6.066442138671875,-1.3239389657974243,0.3047170042991638,-1.385733962059021
1772402034202499000,6.0864990234375,-2.2407500743865967,1.2397730350494385,-3.6157870292663574
1772402034222556000,6.106555908203125,-3.322999954223633,2.2078189849853516,-3.4030299186706543
1772402034242612700,6.12661279296875,-3.323199987411499,3.264655113220215,-1.9704240560531616
1772402034262669600,6.146669677734375,-3.1217598915100098,3.866123914718628,-1.0611389875411987
1772402034282726400,6.166726318359375,-3.2462079524993896,3.89129900932312,-1.3353110551834106
1772402034302783200,6.186783203125,-3.3361659049987793,3.457839012145996,-2.0594489574432373
1772402034322840000,6.206840087890625,-3.1177330017089844,3.015872001647949,-2.398758888244629
1772402034342896600,6.226896728515625,-2.6661860942840576,2.8470969200134277,-2.0470070838928223
1772402034362953700,6.24695361328125,-1.9241490364074707,2.4880781173706055,-1.1992050409317017
1772402034383010300,6.26701025390625,-1.9321190118789673,2.1344621181488037,-0.24496400356292725
1772402034403067100,6.287067138671875,-1.5032949447631836,1.9867689609527588,0.8680279850959778
1772402034423124000,6.3071240234375,-0.5842360258102417,1.5150150060653687,1.4992220401763916
1772402034443180800,6.327180908203125,1.095810055732727,1.1144119501113892,1.4865779876708984
1772402034463237600,6.347237548828125,2.944648027420044,0.6291300058364868,1.6468620300292969
1772402034483294200,6.367294189453125,3.4821178913116455,-0.04469500109553337,2.608690023422241
1772402034503351000,6.38735107421875,3.21689510345459,-0.3517560064792633,2.644551992416382
1772402034523408100,6.407408203125,3.4719150066375732,-0.8134049773216248,1.4836410284042358
1772402034543464700,6.427464599609375,4.336732864379883,-0.6795240044593811,2.7341129779815674
1772402034563521500,6.447521484375,7.615785121917725,-0.6108189821243286,4.276889801025391
1772402034583578000,6.467578125,7.580628871917725,0.7233440279960632,3.587912082672119
1772402034603635000,6.487635009765625,3.9581029415130615,-1.3917239904403687,1.2927299737930298
1772402034623692000,6.507692138671875,-5.179117202758789,-5.198978900909424,-1.0578160285949707
1772402034643748600,6.52774853515625,-9.464893341064453,-8.861584663391113,0.272146999835968
1772402034663805400,6.547805419921875,-4.213514804840088,-6.3364667892456055,-6.172682762145996
1772402034683862300,6.5678623046875,-1.8324110507965088,-4.159573078155518,-6.240546226501465
1772402034703919000,6.587919189453125,-1.385928988456726,-2.7220590114593506,-5.886837005615234
1772402034723975700,6.6079755859375,-1.7311429977416992,-1.6104470491409302,-3.4566690921783447
1772402034744032500,6.628032470703125,-4.190514087677002,-0.7507579922676086,-1.1525349617004395
1772402034764089300,6.64808935546875,-3.870811939239502,0.42099300026893616,-0.41322800517082214
1772402034784146200,6.668146240234375,0.00494999997317791,1.1999950408935547,-0.311381995677948
1772402034804203000,6.688203125,3.668760061264038,1.9335949420928955,-0.24270600080490112
1772402034824259800,6.708259765625,5.02780818939209,2.9044768810272217,-0.2445639967918396
1772402034844316700,6.728316650390625,3.963046073913574,3.381181001663208,-0.044450998306274414
1772402034864373200,6.748373291015625,2.157636880874634,3.7313449382781982,0.8676379919052124
1772402034884430000,6.76843017578125,0.9005089998245239,3.622675895690918,1.6597100496292114
1772402034904487000,6.78848681640625,-0.3139919936656952,3.442141056060791,1.6957679986953735
1772402034924543700,6.808543701171875,-0.5271940231323242,3.1369121074676514,1.6766140460968018
1772402034944600300,6.828600341796875,-0.46015501022338867,2.639930009841919,1.6012909412384033
1772402034964657200,6.8486572265625,-0.31212401390075684,1.9679440259933472,1.172232985496521
1772402034984714000,6.8687138671875,0.7494999766349792,1.1247550249099731,0.9569860100746155
1772402035004770800,6.888770751953125,0.7724000215530396,0.3078039884567261,0.5047889947891235
1772402035024827600,6.90882763671875,0.17151999473571777,-0.6729559898376465,0.18383100628852844
1772402035044884500,6.928884521484375,0.5604159832000732,-1.2303650379180908,0.03586500138044357
1772402035064941000,6.948941162109375,2.135533094406128,-1.8250919580459595,-0.14410699903964996
1772402035084998100,6.968998046875,1.8908259868621826,-2.354473114013672,-0.379285991191864
1772402035105055000,6.989054931640625,0.28866100311279297,-1.858778953552246,-0.26902899146080017
1772402035125111600,7.009111572265625,1.2957279682159424,-1.718222975730896,0.07757599651813507
1772402035145168400,7.02916845703125,2.0285820960998535,-2.2481789588928223,0.034060999751091
1772402035165225200,7.04922509765625,2.2364659309387207,-2.08974289894104,-0.1855510026216507
1772402035185282000,7.069281982421875,1.4347729682922363,-1.7277940511703491,-0.20443999767303467
1772402035205338600,7.089338623046875,-0.007381000090390444,-1.8742350339889526,-0.5251520276069641
1772402035225395700,7.109395751953125,-1.1091059446334839,-1.8857879638671875,-0.24972200393676758
1772402035245452300,7.129452392578125,-1.1992839574813843,-0.8390300273895264,-0.04457699880003929
1772402035265509000,7.149509033203125,-1.05942702293396,-0.04082300141453743,-0.14846199750900269
1772402035285566000,7.16956591796875,-1.1595419645309448,0.766539990901947,-0.26436901092529297
1772402035305622800,7.189622802734375,-0.8220329880714417,1.2316319942474365,-0.5122950077056885
1772402035325679400,7.209679443359375,-0.27282699942588806,1.8397059440612793,-1.1570359468460083
1772402035345736200,7.229736083984375,-0.3950609862804413,2.3333640098571777,-1.170428991317749
1772402035365793000,7.24979296875,-1.5776489973068237,2.6042909622192383,-1.2499430179595947
1772402035385849900,7.269849853515625,-2.997318983078003,2.4010329246520996,-1.5519540309906006
1772402035405906400,7.289906494140625,-4.076254844665527,2.6144258975982666,-1.6263630390167236
1772402035425963300,7.30996337890625,-3.7050039768218994,2.185141086578369,-1.592290997505188
1772402035446020000,7.33002001953125,-3.031203031539917,1.5801130533218384,-1.2466319799423218
1772402035466077000,7.350076904296875,-3.072161912918091,1.0896899700164795,-0.778905987739563
1772402035486133500,7.370133544921875,-3.023329973220825,0.8733519911766052,-0.1407250016927719
1772402035506190300,7.3901904296875,-2.3994638919830322,0.9210820198059082,1.2218199968338013
1772402035526247200,7.4102470703125,-1.9707709550857544,0.9128649830818176,1.594256043434143
1772402035546304000,7.430303955078125,-0.9102159738540649,0.07189200073480606,1.7962039709091187
1772402035566360600,7.450360595703125,1.0206259489059448,-0.385684996843338,2.5769639015197754
1772402035586417400,7.47041748046875,3.005300998687744,-0.2605479955673218,3.968770980834961
1772402035606474000,7.490473876953125,4.393040180206299,-0.3612380027770996,4.136616230010986
1772402035626530800,7.51053076171875,4.512032985687256,-0.5569909811019897,3.2308928966522217
1772402035646587600,7.530587646484375,5.469625949859619,-0.12399200350046158,2.4431140422821045
1772402035666644500,7.55064453125,9.41090202331543,0.7376049757003784,2.3392910957336426
1772402035686701000,7.570701171875,10.467120170593262,0.6740840077400208,0.500232994556427
1772402035706758000,7.5907578125,2.4592959880828857,-2.8559319972991943,-2.8982129096984863
1772402035726814700,7.610814697265625,-8.188562393188477,-6.148746013641357,-0.8377699851989746
1772402035746871300,7.630871337890625,-7.610048770904541,-8.394996643066406,-2.633415937423706
1772402035766928100,7.65092822265625,-3.314439058303833,-5.131997108459473,-3.2227330207824707
1772402035786985000,7.67098486328125,-3.886751890182495,-3.2535979747772217,-2.5077860355377197
1772402035807041500,7.69104150390625,-4.0478010177612305,-2.190877914428711,-2.4982290267944336
1772402035827098400,7.711098388671875,-3.734241008758545,-0.8927019834518433,-1.5865830183029175
1772402035847155200,7.7311552734375,-3.5641930103302,0.07143799960613251,0.014732999727129936
1772402035867212000,7.7512119140625,-1.9433540105819702,1.369150996208191,1.2781859636306763
1772402035887268600,7.7712685546875,0.05251599848270416,2.3225200176239014,1.633749008178711
1772402035907325400,7.791325439453125,1.7716130018234253,2.974816083908081,1.8509989976882935
1772402035927382300,7.81138232421875,2.4532899856567383,3.7630529403686523,2.0111989974975586
1772402035947438800,7.83143896484375,2.0962319374084473,3.893641948699951,0.6009590029716492
1772402035967495700,7.85149560546875,0.9897850155830383,3.168513059616089,-1.03603196144104
1772402035987552500,7.871552490234375,1.4718290567398071,2.2876110076904297,-1.8320250511169434
1772402036007609300,7.891609375,1.8494629859924316,1.772487998008728,-2.2928199768066406
1772402036027666000,7.911666015625,1.977970004081726,1.4923900365829468,-1.893455982208252
1772402036047723000,7.931722900390625,2.511176109313965,1.2499120235443115,-1.2539650201797485
1772402036067779600,7.951779541015625,3.1217410564422607,0.888729989528656,-0.21517199277877808
1772402036087836400,7.97183642578125,2.5813920497894287,0.2589839994907379,0.6726620197296143
1772402036107893200,7.991893310546875,0.7323139905929565,-0.33681198954582214,1.097329020500183
1772402036127950000,8.0119501953125,0.24905100464820862,-0.4230490028858185,1.1362630128860474
1772402036148006700,8.032006591796875,0.743241012096405,-0.7464389801025391,1.1506110429763794
1772402036168063500,8.0520634765625,1.0713930130004883,-1.0739519596099854,1.460487961769104
1772402036188120300,8.072120361328125,2.630713939666748,-1.5695619583129883,2.3691909313201904
1772402036208177000,8.092177001953125,2.334172010421753,-3.2860488891601562,2.443351984024048
1772402036228233700,8.112233642578126,-0.13586199283599854,-4.509638786315918,1.820281982421875
1772402036248290300,8.132290283203124,-0.4670889973640442,-3.1381120681762695,0.8186249732971191
1772402036268347400,8.152347412109375,0.38312798738479614,-1.9920899868011475,0.2605000138282776
1772402036288404000,8.172404052734375,-0.4102970063686371,-2.1240720748901367,0.6204000115394592
1772402036308460800,8.192460693359376,-1.5714370012283325,-1.2376569509506226,1.7315200567245483
1772402036328517600,8.212517578125,-2.984349012374878,-0.10692500323057175,1.4156160354614258
1772402036348574500,8.232574462890625,-3.0002799034118652,0.921658992767334,0.01809299923479557
1772402036368631000,8.252631103515625,-1.6210240125656128,1.833325982093811,-0.879925012588501
1772402036388688000,8.27268798828125,-0.7064189910888672,2.194662094116211,-1.2711399793624878
1772402036408744400,8.292744384765625,-0.9443349838256836,2.394929885864258,-1.6913119554519653
1772402036428801300,8.31280126953125,-1.388267993927002,2.559943914413452,-2.4578499794006348
1772402036448858000,8.332858154296876,-1.5586140155792236,2.3831539154052734,-2.9790799617767334
1772402036468915000,8.3529150390625,-1.984490990638733,2.038522958755493,-2.6664628982543945
1772402036488971500,8.372971435546875,-2.37479305267334,1.990818977355957,-1.7363710403442383
1772402036509028400,8.3930283203125,-2.46063494682312,1.9454540014266968,-1.24269700050354
1772402036529085200,8.413085205078126,-2.531708002090454,1.897163987159729,-0.8661569952964783
1772402036549142000,8.43314208984375,-2.0709660053253174,1.839331030845642,0.06227299943566322
1772402036569198600,8.453198486328125,-1.387171983718872,1.9442650079727173,0.8002189993858337
1772402036589255400,8.47325537109375,-0.6249380111694336,1.8274120092391968,1.126574993133545
1772402036609312000,8.49331201171875,0.7816489934921265,1.5467289686203003,1.4396599531173706
1772402036629369000,8.513369140625,1.9621189832687378,1.1221829652786255,1.8869279623031616
1772402036649425700,8.53342578125,2.396894931793213,0.5833460092544556,1.8583420515060425
1772402036669482500,8.553482421875,2.11271595954895,-0.5901219844818115,0.9066740274429321
1772402036689539000,8.5735390625,2.0277719497680664,-1.9664969444274902,0.9973390102386475
1772402036709596000,8.593595947265625,2.993417978286743,-1.611598014831543,2.941071033477783
1772402036729652700,8.61365283203125,9.937135696411133,-2.5876779556274414,11.044857025146484
1772402036749709300,8.633709228515626,12.01850700378418,-6.602142810821533,4.871085166931152
1772402036769766400,8.653766357421874,3.690006971359253,-4.696914196014404,-2.6311309337615967
1772402036789823200,8.6738232421875,-2.6919949054718018,-2.894331932067871,-6.39610481262207
1772402036809879800,8.6938798828125,-15.574396133422852,-2.0466649532318115,-3.8168840408325195
1772402036829936400,8.713936279296876,-14.349916458129883,-1.07253098487854,-4.242307186126709
1772402036849993500,8.733993408203125,-9.696733474731445,-1.1628249883651733,-2.7226450443267822
1772402036870050000,8.754050048828125,-1.5117859840393066,-0.3862600028514862,-0.6205160021781921
1772402036890107100,8.774107177734376,5.6049699783325195,-0.22660799324512482,0.04518600180745125
1772402036910163700,8.794163818359374,7.184776782989502,0.713113009929657,-0.1782499998807907
1772402036930220500,8.814220458984375,4.357420921325684,1.5896910429000854,-1.1770000457763672
1772402036950277000,8.834277099609375,0.997937023639679,1.9229520559310913,-1.6632000207901
1772402036970334200,8.854334228515626,-1.1784499883651733,2.5287609100341797,-0.4593600034713745
1772402036990390800,8.874390869140624,-1.1211600303649902,2.8350090980529785,0.2781110107898712
1772402037010447600,8.894447509765625,0.15507200360298157,2.6280078887939453,-0.27990999817848206
1772402037030504700,8.914504638671875,1.304057002067566,2.460805892944336,0.09607099741697311
1772402037050561300,8.934561279296876,1.5120450258255005,2.2958450317382812,0.3128570020198822
1772402037070617900,8.954617919921875,1.2368359565734863,1.9342750310897827,-0.14411400258541107
1772402037090674700,8.9746748046875,0.3958689868450165,1.7146199941635132,0.3743079900741577
1772402037110731800,8.994731689453126,-0.27930399775505066,1.5764960050582886,0.15624600648880005
1772402037130788400,9.014788330078124,-0.4874430000782013,1.2931970357894897,-0.5950019955635071
1772402037150845200,9.03484521484375,-0.43235400319099426,1.0081570148468018,-0.2672010064125061
1772402037170901800,9.05490185546875,0.16931599378585815,0.5097259879112244,0.9350379705429077
1772402037190958600,9.07495849609375,1.5010520219802856,-0.8906189799308777,1.5376299619674683
1772402037211015200,9.09501513671875,1.4672420024871826,-2.0916950702667236,1.3909039497375488
1772402037231072300,9.115072265625,0.6969929933547974,-4.330155849456787,2.1943230628967285
1772402037251128800,9.13512890625,1.9247950315475464,-3.7841238975524902,1.2466579675674438
1772402037271185700,9.155185546875,3.8590359687805176,-1.8457000255584717,-0.4874730110168457
1772402037291242500,9.175242431640624,3.9344289302825928,-2.0221590995788574,-0.6579779982566833
1772402037311299300,9.19529931640625,2.693142890930176,-2.6401278972625732,0.2776170074939728
1772402037331356000,9.21535595703125,0.6321139931678772,-1.8689019680023193,0.9060930013656616
1772402037351412700,9.235412841796874,-1.3903080224990845,-0.30952200293540955,0.9264749884605408
1772402037371469600,9.255469482421875,-2.285046100616455,0.9795809984207153,0.4459800124168396
1772402037391526400,9.2755263671875,-1.7840369939804077,1.7700649499893188,0.24398399889469147
1772402037411583000,9.2955830078125,-1.5552289485931396,2.285651922225952,-0.1936119943857193
1772402037431639800,9.315639892578124,-1.6385829448699951,2.610121011734009,-0.47328999638557434
1772402037451696600,9.335696533203125,-1.8476660251617432,2.696897029876709,-0.2314320057630539
1772402037471753500,9.35575341796875,-1.5389330387115479,2.4895179271698,0.10605400055646896
1772402037491810000,9.37581005859375,-1.3711459636688232,2.0756139755249023,-0.13675600290298462
1772402037511867000,9.395866943359374,-1.2217170000076294,1.654891014099121,-0.807004988193512
1772402037531923700,9.415923828125,-1.9461729526519775,1.593513011932373,-1.3480039834976196
1772402037551980500,9.43598046875,-2.6945390701293945,1.3940099477767944,-1.7856030464172363
1772402037572037400,9.456037353515624,-2.9716310501098633,1.1248079538345337,-2.097282886505127
1772402037592094000,9.476093994140625,-2.932504892349243,0.9918460249900818,-1.4594260454177856
1772402037612151000,9.496151123046875,-2.193203926086426,0.7838770151138306,-1.153941035270691
1772402037632208000,9.516207763671876,-0.9521629810333252,0.7359009981155396,-0.9807519912719727
1772402037652264400,9.536264404296874,0.631069004535675,-0.03127799928188324,-0.20780199766159058
1772402037672321300,9.5563212890625,2.159255027770996,-1.312222957611084,0.6385579705238342
1772402037692378000,9.576378173828125,3.085803985595703,-1.980978012084961,0.33244600892066956
1772402037712435000,9.59643505859375,5.475843906402588,0.08321700245141983,0.2195570021867752
1772402037732491500,9.616491455078124,13.135875701904297,-0.03262599930167198,6.640446186065674
1772402037752548400,9.63654833984375,12.904699325561523,-3.904500961303711,8.19875717163086
1772402037772605400,9.65660546875,4.498959064483643,-10.36600112915039,1.667004942893982
1772402037792662000,9.676662109375,-6.274431228637695,-9.489601135253906,-4.71919584274292
1772402037812718800,9.69671875,-10.805145263671875,-5.846880912780762,-6.794556140899658
1772402037832775700,9.716775634765625,-11.40971565246582,-1.9175039529800415,-5.86684513092041
1772402037852832500,9.73683251953125,-7.214172840118408,0.401995986700058,-1.8798760175704956
1772402037872889300,9.756889404296874,-1.7657380104064941,1.1071959733963013,1.2744990587234497
1772402037892946200,9.7769462890625,1.4146089553833008,1.6673569679260254,3.157198905944824
1772402037913002800,9.797002685546875,2.0340869426727295,2.5498859882354736,1.7369589805603027
1772402037933059600,9.8170595703125,1.1504689455032349,2.951909065246582,-0.41683200001716614
1772402037953116400,9.837116455078124,-0.4108240008354187,3.571928024291992,-0.32946500182151794
1772402037973173000,9.857173095703125,-1.3206590414047241,3.782341957092285,0.42042699456214905
1772402037993229800,9.877229736328125,-0.9861270189285278,3.70267391204834,0.5579410195350647
1772402038013287000,9.897286865234374,-0.36330100893974304,3.2149391174316406,0.41035300493240356
1772402038033343500,9.917343505859375,-0.19864100217819214,2.372750997543335,-0.15251700580120087
1772402038053400300,9.937400390625,0.03788600116968155,1.7525999546051025,-0.4820129871368408
1772402038073457400,9.95745751953125,0.40950900316238403,1.4820799827575684,-0.5240110158920288
1772402038093514000,9.977513916015624,1.022807002067566,1.1552640199661255,-0.3384079933166504
1772402038113570800,9.99757080078125,1.492645025253296,0.8746110200881958,0.09327200055122375
1772402038133627600,10.017627685546875,2.0621159076690674,0.3796890079975128,0.07221800088882446
1772402038153684200,10.037684326171876,2.8160929679870605,-0.389847993850708,-0.007025000173598528
1772402038173741300,10.0577412109375,2.949673891067505,-0.7638779878616333,0.6359789967536926
1772402038193798000,10.0777978515625,2.49413800239563,-0.8791030049324036,1.3055830001831055
1772402038213854700,10.097854736328125,2.04331111907959,-1.1000820398330688,0.6228669881820679
1772402038233911800,10.117911865234374,1.6786489486694336,-0.851265013217926,-0.27370598912239075
1772402038253968400,10.137968505859375,2.1109189987182617,-0.6962119936943054,-0.01016400009393692
1772402038274025200,10.158025146484375,1.4279340505599976,-1.4089699983596802,-0.1609320044517517
1772402038294082300,10.178082275390626,-0.2496509999036789,-2.5183749198913574,0.2200540006160736
1772402038314139000,10.198138916015624,-1.0925209522247314,-2.8859009742736816,1.0200430154800415
1772402038334195700,10.21819580078125,-0.8260170221328735,-3.243119955062866,1.3296339511871338
