time,seconds_elapsed,z,y,x
1772401990267930600,0.1309306640625,0.46869799494743347,0.8442519903182983,-0.5623819828033447
1772401990287988500,0.150988525390625,0.7077580094337463,0.664201021194458,-0.7979050278663635
1772401990308046600,0.171046630859375,0.8038070201873779,0.4545609951019287,-0.975924015045166
1772401990328104400,0.1911044921875,0.7846459746360779,0.5036479830741882,-0.6175389885902405
1772401990348162300,0.211162353515625,0.9597160220146179,0.5181180238723755,0.16436800360679626
1772401990368220200,0.23122021484375,1.4589730501174927,0.3168950080871582,0.7522940039634705
1772401990388278300,0.2512783203125,1.7471779584884644,0.11351600289344788,0.9026349782943726
1772401990408336100,0.271336181640625,1.7673430442810059,-0.26358699798583984,0.6533079743385315
1772401990428394000,0.29139404296875,1.8658740520477295,-0.5020689964294434,0.5682460069656372
1772401990448452000,0.3114521484375,1.1710989475250244,-0.4880549907684326,1.044996976852417
1772401990468509700,0.331509765625,0.05767900124192238,-0.9192439913749695,2.007997989654541
1772401990488567800,0.35156787109375,0.19574299454689026,-1.5505950450897217,3.091197967529297
1772401990508625700,0.371625732421875,1.0837949514389038,-2.2636759281158447,3.1833579540252686
1772401990528683500,0.39168359375,1.8318350315093994,-3.5485410690307617,0.6882860064506531
1772401990548741400,0.411741455078125,0.8798689842224121,-3.6700329780578613,-3.180569887161255
1772401990568799200,0.43179931640625,-2.5601038932800293,-2.76322603225708,-4.876455783843994
1772401990588857000,0.451857177734375,-5.2640838623046875,-0.9577800035476685,-4.6323652267456055
1772401990608915200,0.471915283203125,-5.248867034912109,0.696973979473114,-3.152292013168335
1772401990628973000,0.49197314453125,-3.639893054962158,1.6527800559997559,-1.292233943939209
1772401990649031000,0.512031005859375,-1.623113989830017,1.7230240106582642,-0.06578700244426727
1772401990669089000,0.532089111328125,-0.03849099949002266,1.1696189641952515,-0.06942900270223618
1772401990689146600,0.552146728515625,1.0940059423446655,0.8284950256347656,-0.11554300040006638
1772401990709204700,0.572204833984375,1.0432050228118896,0.5091959834098816,0.015564999543130398
1772401990729262600,0.5922626953125,0.6817640066146851,0.5585569739341736,0.08125200122594833
1772401990749320400,0.612320556640625,0.827010989189148,0.795644998550415,0.10100100189447403
1772401990769378300,0.63237841796875,0.9088090062141418,0.8813160061836243,-0.0015979999443516135
1772401990789436200,0.652436279296875,0.8398470282554626,0.9698529839515686,0.2747209966182709
1772401990809494000,0.672493896484375,0.794277012348175,1.0822819471359253,0.9765759706497192
1772401990829552000,0.69255224609375,0.3498220145702362,1.3634259700775146,1.4228609800338745
1772401990849609700,0.712609619140625,-0.19134199619293213,1.351539969444275,1.1230889558792114
1772401990869667600,0.73266748046875,0.025325000286102295,0.9604319930076599,0.7376710176467896
1772401990889725700,0.7527255859375,0.936260998249054,0.5043449997901917,0.5997369885444641
1772401990909783600,0.772783447265625,1.5762089490890503,0.3538770079612732,0.3909890055656433
1772401990929841400,0.79284130859375,1.7969670295715332,0.5239009857177734,0.24639099836349487
1772401990949899300,0.812899169921875,1.514374017715454,0.7887210249900818,0.3595130145549774
1772401990969957000,0.83295703125,0.5930989980697632,0.9317770004272461,0.5172100067138672
1772401990990015000,0.853014892578125,0.208078995347023,0.5982210040092468,0.4025680124759674
1772401991010072800,0.87307275390625,0.29686298966407776,-0.09262199699878693,-0.21074500679969788
1772401991030130700,0.893130615234375,0.24068999290466309,-0.374098002910614,-0.4133960008621216
1772401991050188500,0.9131884765625,0.46135199069976807,-0.495278000831604,-0.3035160005092621
1772401991070246700,0.93324658203125,0.9050809741020203,-0.3650220036506653,-0.23001299798488617
1772401991090304500,0.953304443359375,0.9080650210380554,0.10798099637031555,0.20078900456428528
1772401991110362400,0.9733623046875,0.6304529905319214,0.22798499464988708,1.683830976486206
1772401991130420200,0.993420166015625,0.4659619927406311,-0.27361199259757996,3.0782649517059326
1772401991150478000,1.01347802734375,0.886368989944458,-2.572489023208618,2.99701189994812
1772401991170536000,1.033535888671875,1.2874950170516968,-4.801191806793213,1.518409013748169
1772401991190593800,1.05359375,2.780395984649658,-4.555353164672852,-0.43247199058532715
1772401991210651600,1.073651611328125,3.3891170024871826,-3.247483015060425,-1.9411779642105103
1772401991230709500,1.09370947265625,1.0008939504623413,-1.7611860036849976,-1.920941948890686
1772401991250767400,1.113767333984375,-2.033684015274048,-0.312949001789093,-1.6111539602279663
1772401991270825200,1.1338251953125,-2.889348030090332,0.8968409895896912,-0.9577230215072632
1772401991290883000,1.153883056640625,-2.573878049850464,1.738271951675415,-1.9405779838562012
1772401991310941000,1.17394091796875,-1.8775019645690918,2.3498170375823975,-2.7868618965148926
1772401991330998800,1.193998779296875,-1.6396019458770752,2.7614541053771973,-2.7542901039123535
1772401991351056600,1.214056640625,-2.20048189163208,2.5227630138397217,-2.364232063293457
1772401991371114500,1.234114501953125,-2.80438494682312,2.2614099979400635,-1.7857849597930908
1772401991391172000,1.254172119140625,-2.7067079544067383,1.8723280429840088,-1.2566280364990234
1772401991411230200,1.274230224609375,-2.5029659271240234,1.6402629613876343,-0.39010199904441833
1772401991431287800,1.294287841796875,-2.4295730590820312,1.308210015296936,0.5815169811248779
1772401991451346000,1.314345947265625,-2.3188579082489014,1.2761679887771606,1.6716140508651733
1772401991471403800,1.33440380859375,-2.2918860912323,1.10173499584198,2.212491035461426
1772401991491461600,1.354461669921875,-1.7935090065002441,0.7565879821777344,2.1531929969787598
1772401991511519500,1.37451953125,-0.22040699422359467,0.5228700041770935,1.7745540142059326
1772401991531577300,1.394577392578125,2.5396740436553955,0.42789599299430847,1.9100430011749268
1772401991551635200,1.41463525390625,4.0605387687683105,0.28871598839759827,1.9296350479125977
1772401991571693000,1.434693115234375,4.074030876159668,-0.14822599291801453,1.3445069789886475
1772401991591751000,1.4547509765625,3.8416240215301514,-0.55138099193573,0.4900059998035431
1772401991611808800,1.474808837890625,3.4388999938964844,-0.7819049954414368,-0.3591949939727783
1772401991631866600,1.49486669921875,2.954319953918457,-0.8687229752540588,-1.1761560440063477
1772401991651924500,1.514924560546875,2.485856056213379,-0.8845790028572083,-2.1361238956451416
1772401991671982300,1.534982421875,1.3318840265274048,-0.42606300115585327,-2.412899971008301
1772401991692040200,1.555040283203125,0.6263070106506348,0.49754899740219116,-0.6743199825286865
1772401991712098000,1.57509814453125,0.7354459762573242,-0.2699599862098694,1.258944034576416
1772401991732156000,1.595156005859375,0.48035600781440735,-0.8983680009841919,2.0647549629211426
1772401991752213800,1.6152138671875,0.8594840168952942,-2.474694013595581,3.97900390625
1772401991772271600,1.635271728515625,2.168386936187744,-3.3837549686431885,4.2248029708862305
1772401991792329500,1.65532958984375,1.1219099760055542,-3.2318038940429688,-0.5273569822311401
1772401991812387300,1.67538720703125,-3.2152719497680664,-2.865442991256714,-3.1362860202789307
1772401991832445000,1.69544482421875,-6.825818061828613,-1.8691539764404297,-3.6746280193328857
1772401991852502800,1.715502685546875,-6.387854099273682,-0.7425240278244019,-2.354902982711792
1772401991872561000,1.735560791015625,-2.9878830909729004,0.272379994392395,-0.8167219758033752
1772401991892618500,1.755618408203125,-0.4463070034980774,1.2139040231704712,-0.29257699847221375
1772401991912676600,1.775676513671875,0.08535400032997131,1.8135240077972412,-0.39326199889183044
1772401991932734200,1.795734130859375,-0.7325159907341003,2.2860190868377686,-0.23620900511741638
1772401991952792000,1.8157919921875,-1.3116129636764526,2.673614978790283,-0.08576700091362
1772401991972850000,1.835849853515625,-1.1220899820327759,2.849292039871216,-0.19661399722099304
1772401991992907800,1.85590771484375,-0.6488720178604126,2.7330329418182373,-0.2644909918308258
1772401992012965600,1.875965576171875,-0.09989699721336365,2.212027072906494,-0.5835930109024048
1772401992033023500,1.8960234375,1.2992810010910034,1.1640210151672363,-1.0300740003585815
1772401992053081300,1.916081298828125,2.8282248973846436,0.3832170069217682,-1.047258973121643
1772401992073139200,1.93613916015625,3.1689798831939697,0.2145729959011078,-0.7418069839477539
1772401992093197000,1.956197021484375,3.107985019683838,0.25405898690223694,-0.19984599947929382
1772401992113255000,1.9762548828125,2.9247870445251465,0.496847003698349,0.6985229849815369
1772401992133312800,1.996312744140625,1.924630045890808,0.6246780157089233,1.3268179893493652
1772401992153370400,2.016370361328125,1.1789029836654663,0.19974200427532196,1.3966540098190308
1772401992173428500,2.036428466796875,1.5143229961395264,-0.2506060004234314,1.0197230577468872
1772401992193486000,2.056486083984375,1.7226580381393433,-0.3020839989185333,1.0341789722442627
1772401992213544000,2.0765439453125,1.1749249696731567,-0.13446800410747528,1.236943006515503
1772401992233601800,2.096601806640625,1.0567409992218018,0.08842500299215317,1.0623539686203003
1772401992253659400,2.116659423828125,0.374193012714386,-0.021259000524878502,1.1930830478668213
1772401992273717500,2.136717529296875,-0.9590449929237366,-1.2546069622039795,1.6320669651031494
1772401992293775000,2.156775146484375,-1.358435034751892,-1.9708850383758545,1.945652961730957
1772401992313833000,2.1768330078125,-1.1811480522155762,-3.6855080127716064,3.094122886657715
1772401992333890800,2.196890869140625,0.026280999183654785,-3.9268059730529785,1.303297996520996
1772401992353948400,2.216948486328125,1.4482250213623047,-3.3582448959350586,-0.9629610180854797
1772401992374006500,2.237006591796875,0.6945800185203552,-2.0985960960388184,-1.875169038772583
1772401992394064100,2.257064208984375,-1.0507349967956543,-0.8516759872436523,-2.057734966278076
1772401992414122000,2.2771220703125,-1.2165889739990234,0.07385800033807755,-2.182188034057617
1772401992434179800,2.297179931640625,-0.9036710262298584,0.8846859931945801,-2.480950117111206
1772401992454238000,2.317238037109375,-0.3285369873046875,1.7797490358352661,-2.5551600456237793
1772401992474295600,2.337295654296875,0.05716999992728233,2.128598928451538,-2.3985280990600586
1772401992494353400,2.357353515625,-0.7302629947662354,1.9332799911499023,-2.4148221015930176
1772401992514411300,2.377411376953125,-2.4746110439300537,1.5922240018844604,-2.3014578819274902
1772401992534468900,2.39746875,-3.6572890281677246,1.4273790121078491,-1.2419660091400146
1772401992554526700,2.417526611328125,-3.4666309356689453,1.306702971458435,0.13122600317001343
1772401992574584600,2.43758447265625,-3.098905086517334,1.2381620407104492,1.0577809810638428
1772401992594642400,2.457642333984375,-2.7279229164123535,1.0193300247192383,1.7142250537872314
1772401992614700300,2.4777001953125,-2.1343390941619873,0.888264000415802,2.1297800540924072
1772401992634758000,2.4977578125,-1.7722710371017456,0.9098110198974609,2.1326239109039307
1772401992654815700,2.517815673828125,-1.306617021560669,1.2622489929199219,2.2076990604400635
1772401992674873600,2.53787353515625,-0.09969300031661987,1.4945989847183228,2.3333590030670166
1772401992694931200,2.55793115234375,2.0826449394226074,1.398879051208496,2.083487033843994
1772401992714989000,2.577989013671875,3.49971604347229,0.9487029910087585,1.3851890563964844
1772401992735047000,2.598046875,3.4509730339050293,0.8677629828453064,0.3529520034790039
1772401992755104800,2.618104736328125,3.0607779026031494,0.6142100095748901,-0.5848379731178284
1772401992775162600,2.63816259765625,3.004621982574463,0.21136799454689026,-1.2782700061798096
1772401992795220200,2.65822021484375,2.771697998046875,0.2914940118789673,-1.4706159830093384
1772401992815278000,2.678278076171875,4.002158164978027,1.3691949844360352,0.01630599983036518
1772401992835335700,2.698335693359375,6.078526973724365,1.0649559497833252,2.102644920349121
1772401992855393300,2.718393310546875,3.366821050643921,-1.5616339445114136,1.4261159896850586
1772401992875451100,2.738451171875,-0.28494200110435486,-3.4389069080352783,-0.47590601444244385
1772401992895509000,2.758509033203125,-1.296754002571106,-4.6199259757995605,0.9792739748954773
1772401992915566800,2.77856689453125,-1.067803978919983,-5.515940189361572,1.1146190166473389
1772401992935624700,2.798624755859375,-2.2886428833007812,-4.492753028869629,-1.9971040487289429
1772401992955682600,2.8186826171875,-5.590913772583008,-2.9430019855499268,-3.6056830883026123
1772401992975740200,2.838740234375,-6.177530765533447,-1.6400010585784912,-2.6933469772338867
1772401992995798000,2.858798095703125,-3.6916251182556152,-0.7488009929656982,-0.7282770276069641
1772401993015855900,2.87885595703125,-1.361299991607666,0.17855900526046753,0.10857699811458588
1772401993035913500,2.89891357421875,0.08695899695158005,1.0596469640731812,-0.13473699986934662
1772401993055971300,2.918971435546875,0.20956799387931824,2.1621179580688477,-0.01978999935090542
1772401993076029000,2.93902880859375,-0.2043450027704239,2.934494972229004,0.5953670144081116
1772401993096086800,2.959086669921875,-0.15787599980831146,3.129194974899292,1.057893991470337
1772401993116144600,2.97914453125,0.11529800295829773,2.8385560512542725,0.6975150108337402
1772401993136202500,2.999202392578125,-0.03816099837422371,2.2036449909210205,-0.26198700070381165
1772401993156260000,3.019260009765625,-0.17932799458503723,1.6517159938812256,-0.5655900239944458
1772401993176317700,3.039317626953125,0.18533700704574585,1.174172043800354,-0.5756719708442688
1772401993196375600,3.05937548828125,1.017868995666504,0.6457380056381226,-0.9029369950294495
1772401993216433400,3.079433349609375,1.94069504737854,0.48058998584747314,-0.68954998254776
1772401993236491000,3.099490966796875,2.522156000137329,0.6260719895362854,-0.454039990901947
1772401993256548900,3.119548828125,2.2897250652313232,0.8352580070495605,-0.23283199965953827
1772401993276606700,3.139606689453125,1.5805790424346924,0.9866060018539429,0.40573400259017944
1772401993296664600,3.15966455078125,1.1204630136489868,0.8428850173950195,0.8149870038032532
1772401993316722200,3.17972216796875,1.2587709426879883,0.3943080008029938,0.7567890286445618
1772401993336779800,3.19977978515625,1.1982170343399048,-0.3181529939174652,0.5926309823989868
1772401993356837600,3.219837646484375,0.5105730295181274,-0.7713220119476318,0.5693050026893616
1772401993376895200,3.239895263671875,0.11725900322198868,-0.9314579963684082,0.7986440062522888
1772401993396953000,3.259953125,0.26980599761009216,-1.2723660469055176,1.276515007019043
1772401993417011000,3.280010986328125,-0.15695300698280334,-3.1186931133270264,2.0540120601654053
1772401993437068500,3.300068603515625,-0.35036200284957886,-5.130154132843018,1.489609956741333
1772401993457126400,3.32012646484375,1.0701090097427368,-5.385724067687988,-0.4443109929561615
1772401993477184000,3.34018408203125,2.1048879623413086,-3.36457896232605,-1.1690490245819092
1772401993497241900,3.360241943359375,1.3487099409103394,-1.7028629779815674,0.2351599931716919
1772401993517299200,3.38029931640625,-0.44343098998069763,-0.2838909924030304,1.7569279670715332
1772401993537357000,3.400357177734375,-2.3795440196990967,0.6480860114097595,2.1215429306030273
1772401993557415000,3.420414794921875,-2.106034994125366,1.5216679573059082,1.0476340055465698
1772401993577472800,3.44047265625,0.22797200083732605,1.6925350427627563,-0.770691990852356
1772401993597530400,3.4605302734375,1.6535769701004028,1.6700279712677002,-2.3381540775299072
1772401993617588200,3.480588134765625,1.200461983680725,1.6728219985961914,-2.8089230060577393
1772401993637645800,3.500645751953125,-0.782829999923706,1.423058032989502,-2.7639379501342773
1772401993657703400,3.520703369140625,-2.895864963531494,1.1112459897994995,-2.611150026321411
1772401993677761000,3.540760986328125,-4.475091934204102,1.2361969947814941,-2.113719940185547
1772401993697819000,3.56081884765625,-5.024872779846191,1.4809579849243164,-1.1357760429382324
1772401993717876500,3.58087646484375,-4.611098766326904,1.6271660327911377,-0.2310210019350052
1772401993737934300,3.600934326171875,-3.9440789222717285,1.6233329772949219,0.5735830068588257
1772401993757992200,3.6209921875,-2.9192628860473633,1.570665955543518,1.0372660160064697
1772401993778049800,3.6410498046875,-1.908210039138794,1.290932059288025,0.773813009262085
1772401993798107400,3.661107421875,0.12223099917173386,1.2919460535049438,0.5270500183105469
1772401993818165000,3.6811650390625,2.0345849990844727,1.6631569862365723,0.3896400034427643
1772401993838222800,3.701222900390625,2.9604671001434326,1.6809250116348267,0.8149120211601257
1772401993858280400,3.721280517578125,3.8987739086151123,1.199139952659607,1.255929946899414
1772401993878338300,3.74133837890625,3.8774189949035645,0.21051199734210968,1.1519429683685303
1772401993898396000,3.76139599609375,2.713135004043579,-0.632390022277832,0.5207549929618835
1772401993918453500,3.78145361328125,2.134507894515991,-0.7987120151519775,-0.6345949769020081
1772401993938511000,3.801510986328125,2.1996068954467773,-0.847769021987915,-1.4196759462356567
1772401993958569000,3.82156884765625,2.056485891342163,-0.05741500109434128,-0.990140974521637
1772401993978626600,3.84162646484375,1.5723880529403687,0.8060669898986816,-0.029712000861763954
1772401993998684400,3.861684326171875,0.40911099314689636,-0.13434599339962006,2.7002298831939697
1772401994018742000,3.881741943359375,-1.3887109756469727,-2.641875982284546,3.924182891845703
1772401994038800000,3.9017998046875,-1.1437690258026123,-5.074300765991211,4.460946083068848
1772401994058857500,3.921857421875,3.049783945083618,-4.8698410987854,1.530357003211975
1772401994078915000,3.9419150390625,3.207827091217041,-4.246273040771484,-3.460513114929199
1772401994098972700,3.96197265625,-1.496137022972107,-3.5426180362701416,-3.958811044692993
1772401994119030300,3.9820302734375,-4.567309856414795,-1.1196949481964111,-2.434248924255371
1772401994139088100,4.002088134765625,-3.6002469062805176,0.2650429904460907,-0.33459898829460144
1772401994159146000,4.02214599609375,-1.5649980306625366,0.7632349729537964,0.03711999952793121
1772401994179203600,4.04220361328125,-0.30959799885749817,1.5089880228042603,-0.27350300550460815
1772401994199261200,4.06226123046875,-0.16847799718379974,2.130389928817749,-0.31800198554992676
1772401994219318800,4.08231884765625,-0.5371819734573364,2.3883121013641357,-0.13040199875831604
1772401994239376400,4.10237646484375,-0.5337460041046143,2.5962491035461426,0.2524780035018921
1772401994259434000,4.12243408203125,-0.9069960117340088,2.43139910697937,-0.0740170031785965
1772401994279491800,4.142491943359375,-1.2143969535827637,2.044318914413452,-0.7432140111923218
1772401994299549400,4.162549560546875,-0.5811179876327515,1.565055012702942,-0.9697710275650024
1772401994319607300,4.182607177734375,0.43030500411987305,0.9936439990997314,-1.049415946006775
1772401994339664600,4.20266455078125,0.887444019317627,0.9597160220146179,-0.8515329957008362
1772401994359722200,4.22272216796875,1.1243549585342407,1.236572027206421,-0.7420259714126587
1772401994379780000,4.242780029296875,1.4050840139389038,1.2612580060958862,-0.6608210206031799
1772401994399837700,4.262837646484375,1.6968679428100586,1.1298060417175293,0.12654200196266174
1772401994419895600,4.2828955078125,1.5030930042266846,0.6702449917793274,0.541234016418457
1772401994439953200,4.302953125,1.3192739486694336,0.06499599665403366,0.30498701333999634
1772401994460010800,4.3230107421875,1.382619023323059,-0.3232020139694214,0.3031899929046631
1772401994480068400,4.343068359375,1.1420949697494507,-0.5233619809150696,0.34255099296569824
1772401994500126000,4.3631259765625,0.6384760141372681,-0.5562899708747864,0.5612409710884094
1772401994520183600,4.38318359375,0.5395810008049011,-0.26503199338912964,0.6881930232048035
1772401994540241400,4.403241455078125,0.5252640247344971,-0.9936249852180481,1.0769540071487427
1772401994560299000,4.423299072265625,0.5274109840393066,-2.4612998962402344,0.9079629778862
1772401994580356600,4.443356689453125,1.1995290517807007,-3.422640085220337,0.8351709842681885
1772401994600414000,4.4634140625,1.3124229907989502,-5.002111911773682,0.9025359749794006
1772401994620471800,4.483471923828125,1.6683379411697388,-4.118488788604736,-0.38916999101638794
1772401994640529400,4.503529296875,2.1138699054718018,-2.544390916824341,-0.1985359936952591
1772401994660587000,4.5235869140625,0.8870959877967834,-1.1331119537353516,0.9211699962615967
1772401994680644600,4.54364453125,-1.9967219829559326,0.22150899469852448,1.8713359832763672
1772401994700702200,4.5637021484375,-3.623776912689209,1.3308080434799194,0.8090689778327942
1772401994720759800,4.583759765625,-3.07902193069458,2.091046094894409,-1.2199440002441406
1772401994740817400,4.6038173828125,-0.8680170178413391,2.596036911010742,-1.8439550399780273
1772401994760875300,4.623875244140625,1.1135849952697754,2.865628957748413,-1.1759639978408813
1772401994780932600,4.6439326171875,1.0020689964294434,2.3349030017852783,-0.7743710279464722
1772401994800990200,4.663990234375,-0.7671449780464172,1.5943230390548706,-0.8202970027923584
1772401994821048000,4.684048095703125,-2.663316011428833,0.9154580235481262,-1.0314379930496216
1772401994841105700,4.704105712890625,-3.9250528812408447,0.5923659801483154,-0.9347500205039978
1772401994861163300,4.724163330078125,-4.5208420753479,0.7242929935455322,-0.3686000108718872
1772401994881220900,4.744220947265625,-4.655074119567871,0.8938339948654175,0.20351900160312653
1772401994901278500,4.764278564453125,-4.185658931732178,0.8246669769287109,0.38681501150131226
1772401994921336000,4.784336181640625,-3.1093270778656006,0.5957340002059937,0.15825200080871582
1772401994941393700,4.8043935546875,-1.2418609857559204,0.6301869750022888,0.07060199975967407
1772401994961451300,4.824451171875,1.0081100463867188,0.8777490258216858,0.41888099908828735
1772401994981508900,4.8445087890625,3.0832879543304443,1.2117999792099,1.3039050102233887
1772401995001566700,4.864566650390625,3.928230047225952,1.3502399921417236,1.8343240022659302
1772401995021624000,4.8846240234375,3.253783941268921,1.1585919857025146,1.5690590143203735
1772401995041681700,4.904681640625,2.9270269870758057,0.47167301177978516,0.8448470234870911
1772401995061739300,4.9247392578125,3.3048219680786133,-0.2954609990119934,-0.32572200894355774
1772401995081796900,4.944796875,3.890256881713867,-0.29716798663139343,-1.7309770584106445
1772401995101854500,4.9648544921875,4.161806106567383,0.8878639936447144,-1.5807820558547974
1772401995121912000,4.984912109375,4.835044860839844,3.435091018676758,1.4129739999771118
1772401995141969700,5.0049697265625,2.5080349445343018,2.459273099899292,2.679979085922241
1772401995162027300,5.02502734375,-3.8239710330963135,-1.780580997467041,0.667182981967926
1772401995182084900,5.0450849609375,-7.267177104949951,-6.6572651863098145,2.3345470428466797
1772401995202142200,5.06514208984375,-3.1801419258117676,-8.888212203979492,4.118037223815918
1772401995222199800,5.08519970703125,5.180685997009277,-6.636969089508057,-0.5511689782142639
1772401995242257400,5.10525732421875,4.123747825622559,-4.355975151062012,-4.679336071014404
1772401995262315300,5.125315185546875,-1.4090009927749634,-3.3335800170898438,-3.1282689571380615
1772401995282372600,5.14537255859375,-4.3568010330200195,-0.8892639875411987,-1.505815029144287
1772401995302430200,5.16543017578125,-3.9814400672912598,0.9469889998435974,-0.07425100356340408
1772401995322487800,5.18548779296875,-2.010751962661743,1.8303899765014648,-0.41620099544525146
1772401995342545400,5.20554541015625,-0.12460199743509293,2.2131130695343018,-0.7561609745025635
1772401995362603000,5.22560302734375,0.21071800589561462,2.6576900482177734,-0.43212801218032837
1772401995382660400,5.245660400390625,-0.41942501068115234,2.884552001953125,-0.2769030034542084
1772401995402718000,5.265718017578125,-0.6667389869689941,2.978041887283325,-0.07752200216054916
1772401995422775600,5.285775634765625,-0.8245919942855835,2.7728331089019775,-0.37081798911094666
1772401995442833400,5.30583349609375,-0.5940729975700378,2.2430670261383057,-0.9174540042877197
1772401995462890800,5.325890869140625,0.1927410066127777,1.8600529432296753,-0.8547629714012146
1772401995482948400,5.3459482421875,0.9469919800758362,1.6504420042037964,-0.9918100237846375
1772401995503006000,5.366005859375,1.4127939939498901,1.3723540306091309,-1.0406479835510254
1772401995523063600,5.3860634765625,1.630234956741333,1.5802830457687378,-0.3461189866065979
1772401995543121200,5.40612109375,1.3177889585494995,1.578626036643982,0.363103985786438
1772401995563178800,5.4261787109375,0.8182309865951538,0.9197009801864624,0.5200830101966858
1772401995583236000,5.446236083984375,1.1969850063323975,0.1573610007762909,0.55206698179245
1772401995603293700,5.466293701171875,2.007188081741333,-0.5365110039710999,0.48245298862457275
1772401995623351300,5.486351318359375,2.0713510513305664,-1.1036080121994019,0.09236200153827667
1772401995643409000,5.506408935546875,1.6874799728393555,-1.1092870235443115,0.07229000329971313
1772401995663466200,5.52646630859375,1.5107849836349487,-0.6706290245056152,0.6994320154190063
1772401995683523800,5.54652392578125,1.3966269493103027,0.2754960060119629,0.9211450219154358
1772401995703581400,5.56658154296875,1.2317019701004028,0.8259959816932678,0.43291598558425903
1772401995723639000,5.58663916015625,0.6661620140075684,-0.204802006483078,0.9455329775810242
1772401995743696600,5.606696533203125,-0.29267001152038574,-2.3726420402526855,1.5708260536193848
1772401995763754000,5.62675390625,-1.2301349639892578,-5.983713150024414,1.656661033630371
1772401995783811600,5.6468115234375,-0.07450799643993378,-4.907770156860352,-1.0842700004577637
1772401995803869400,5.666869384765625,1.834792971611023,-2.627017021179199,-0.9114159941673279
1772401995823926800,5.6869267578125,1.5174349546432495,-1.9968130588531494,-0.8347330093383789
1772401995843984100,5.706984130859375,-0.7436519861221313,-1.031849980354309,-0.8701859712600708
1772401995864041700,5.727041748046875,-3.444520950317383,0.710519015789032,-0.4457490146160126
1772401995884099300,5.747099365234375,-4.614017009735107,2.0644149780273438,-0.6229990124702454
1772401995904157000,5.767156982421875,-4.095212936401367,2.543531894683838,-1.4751989841461182
1772401995924214300,5.78721435546875,-2.3225700855255127,2.694025993347168,-2.2801589965820312
1772401995944272000,5.80727197265625,0.29714301228523254,2.934420108795166,-2.6385269165039062
1772401995964329500,5.82732958984375,3.4977149963378906,1.8379360437393188,-0.9788219928741455
1772401995984387000,5.847386962890625,3.2157719135284424,1.4647489786148071,0.5089420080184937
1772401996004444400,5.8674443359375,-0.3769809901714325,1.1141990423202515,0.6351529955863953
1772401996024502000,5.887501953125,-3.9695849418640137,0.860958993434906,0.3513230085372925
1772401996044559600,5.9075595703125,-5.6580681800842285,0.5567669868469238,0.4842579960823059
1772401996064617200,5.9276171875,-5.085653781890869,0.48141399025917053,0.9442059993743896
1772401996084674600,5.947674560546875,-3.6069231033325195,0.7723309993743896,1.2073650360107422
1772401996104732200,5.967732177734375,-1.684738039970398,0.738664984703064,1.2250920534133911
1772401996124789800,5.987789794921875,0.35460901260375977,0.9549319744110107,1.092872977256775
1772401996144847000,6.00784716796875,2.114886999130249,0.8711450099945068,1.182299017906189
1772401996164904700,6.02790478515625,2.9983088970184326,0.5113160014152527,1.2122390270233154
1772401996184962300,6.04796240234375,2.997847080230713,0.42985299229621887,0.7497910261154175
1772401996205020000,6.06802001953125,2.875878095626831,0.25348201394081116,-0.030565999448299408
1772401996225077200,6.0880771484375,2.905503034591675,0.10918500274419785,-0.8500530123710632
1772401996245134600,6.108134521484375,2.853200912475586,-0.8550509810447693,-1.7808419466018677
1772401996265192200,6.128192138671875,2.7233619689941406,-2.8288400173187256,-0.7926740050315857
1772401996285249800,6.148249755859375,3.243489980697632,-3.4854719638824463,2.296260118484497
1772401996305307100,6.16830712890625,4.141992092132568,-2.2923779487609863,2.6626079082489014
1772401996325364700,6.18836474609375,5.431993007659912,-2.9635019302368164,1.8652859926223755
1772401996345422300,6.20842236328125,-0.3944050073623657,-2.4844019412994385,0.021028999239206314
1772401996365479700,6.228479736328125,-6.163524150848389,-1.3779209852218628,-1.099176049232483
1772401996385537300,6.248537353515625,-5.610818862915039,-0.9839370250701904,-1.324141025543213
1772401996405594600,6.2685947265625,-1.9790550470352173,-1.487949013710022,-0.8465120196342468
1772401996425652200,6.28865234375,-0.15844400227069855,-0.8055599927902222,-0.765209972858429
1772401996445709800,6.308709716796875,-0.8875560164451599,0.6579509973526001,-1.0161679983139038
1772401996465767200,6.32876708984375,-2.1708450317382812,1.8599610328674316,-1.1329339742660522
1772401996485824800,6.34882470703125,-2.267875909805298,2.60076904296875,-0.8183469772338867
1772401996505882400,6.36888232421875,-1.399899959564209,2.6182150840759277,-0.4114780128002167
1772401996525939500,6.388939453125,-0.9175209999084473,2.3073720932006836,-0.564382016658783
1772401996545997000,6.4089970703125,-0.8812170028686523,1.9762979745864868,-0.8059059977531433
1772401996566054700,6.4290546875,-0.957772970199585,1.8706380128860474,-0.9471240043640137
1772401996586112000,6.449112060546875,-0.5558189749717712,1.6701099872589111,-0.872098982334137
1772401996606169600,6.469169677734375,0.2529439926147461,1.4880880117416382,-0.5584790110588074
1772401996626227000,6.48922705078125,0.7311549782752991,1.4528700113296509,-0.0371830016374588
1772401996646284500,6.509284423828125,0.7993249893188477,1.19269597530365,0.3798519968986511
1772401996666342000,6.529341796875,1.1274590492248535,0.8717569708824158,0.7926819920539856
1772401996686399500,6.5493994140625,1.3811670541763306,0.4366050064563751,1.0109449625015259
1772401996706457000,6.56945703125,1.4417330026626587,-0.09071499854326248,0.8687559962272644
1772401996726514400,6.589514404296875,1.6533869504928589,-0.5629720091819763,0.8230050206184387
1772401996746571800,6.60957177734375,2.0315101146698,-0.7727770209312439,0.5416039824485779
1772401996766629400,6.62962939453125,2.04040789604187,-0.9718220233917236,0.03328299894928932
1772401996786687000,6.64968701171875,1.4907259941101074,-1.3942580223083496,0.5418260097503662
1772401996806744300,6.669744384765625,1.1085799932479858,-2.2114059925079346,0.8526610136032104
1772401996826802000,6.689802001953125,1.4636650085449219,-3.7211239337921143,0.8981289863586426
1772401996846859300,6.709859375,2.3757309913635254,-3.694499969482422,-0.4230960011482239
1772401996866916900,6.729916748046875,2.7485849857330322,-2.8564000129699707,-0.7328770160675049
1772401996886974200,6.74997412109375,1.502068042755127,-2.3427200317382812,-0.21830199658870697
1772401996907031800,6.77003173828125,-0.2239450067281723,-1.1309759616851807,0.5645580291748047
1772401996927089400,6.79008935546875,-1.9583560228347778,0.16401900351047516,1.5764460563659668
1772401996947146800,6.810146728515625,-3.2442851066589355,1.152014970779419,1.431557059288025
1772401996967204000,6.8302041015625,-3.319427967071533,1.7912119626998901,0.21404500305652618
1772401996987261700,6.85026171875,-2.1675429344177246,2.0593690872192383,-0.9623630046844482
1772401997007319300,6.8703193359375,-1.4004340171813965,2.0730950832366943,-1.5034899711608887
1772401997027376600,6.890376708984375,-1.5363470315933228,2.0448760986328125,-1.2643920183181763
1772401997047434000,6.91043408203125,-1.7402780055999756,2.3239009380340576,-0.8027139902114868
1772401997067491600,6.93049169921875,-1.1970219612121582,2.1039209365844727,-0.7037709951400757
1772401997087549000,6.950548828125,-0.40561801195144653,1.3407360315322876,-0.9806169867515564
1772401997107606300,6.970606201171875,-0.9276940226554871,0.7469890117645264,-1.036492943763733
1772401997127663900,6.990663818359375,-2.243756055831909,0.4575909972190857,-0.43719398975372314
1772401997147721500,7.010721435546875,-3.2662041187286377,0.26447299122810364,0.05104399845004082
1772401997167778800,7.03077880859375,-3.2641639709472656,0.17717799544334412,0.4144349992275238
1772401997187836200,7.050836181640625,-1.9177310466766357,0.12094300240278244,0.6739479899406433
1772401997207893800,7.070893798828125,-0.04218500107526779,0.14635400474071503,0.8951579928398132
1772401997227951000,7.090951171875,1.467851996421814,0.17628300189971924,1.0385260581970215
1772401997248008700,7.1110087890625,2.0438809394836426,0.29222598671913147,1.1732209920883179
1772401997268066000,7.131066162109375,2.0103049278259277,0.2625809907913208,0.900177001953125
1772401997288123400,7.151123291015625,2.2018439769744873,-0.15793399512767792,0.3257409930229187
1772401997308181000,7.171180908203125,3.280674934387207,-0.8039469718933105,-0.22180600464344025
1772401997328238300,7.19123828125,5.058940887451172,0.7936409711837769,-1.0126450061798096
1772401997348295700,7.211295654296875,8.695952415466309,1.021312952041626,0.9802830219268799
1772401997368353300,7.231353271484375,9.947961807250977,0.016249999403953552,4.521827220916748
1772401997388410600,7.25141064453125,7.150369167327881,-3.2061989307403564,4.829461097717285
1772401997408468200,7.27146826171875,0.6506950259208679,-5.422558784484863,2.0403690338134766
1772401997428525600,7.291525634765625,-6.245044231414795,-5.119647979736328,0.8026949763298035
1772401997448583200,7.311583251953125,-11.607234954833984,-3.730117082595825,-1.8538429737091064
1772401997468640500,7.331640625,-10.022587776184082,-2.80009388923645,-2.796674966812134
1772401997488697900,7.35169775390625,-5.1572699546813965,-2.5768749713897705,-2.917340040206909
1772401997508755200,7.371755126953125,-1.7034159898757935,-1.407099962234497,-2.3434720039367676
1772401997528812800,7.391812744140625,-0.4411329925060272,0.257519006729126,-1.1179770231246948
1772401997548870100,7.4118701171875,-0.7801060080528259,1.558014988899231,-0.3463819921016693
1772401997568927700,7.431927734375,-1.3288849592208862,2.704011917114258,0.3028939962387085
1772401997588985000,7.451985107421875,-0.9847069978713989,3.0808091163635254,0.5983150005340576
1772401997609042400,7.47204248046875,-0.08696600049734116,2.767047882080078,0.4346520006656647
1772401997629099800,7.492099853515625,-0.12637199461460114,2.537637948989868,0.09892100095748901
1772401997649157400,7.512157470703125,-0.33869799971580505,1.9557100534439087,-0.4976620078086853
1772401997669214700,7.532214599609375,-0.32135799527168274,1.2789679765701294,-0.8117290139198303
1772401997689272000,7.55227197265625,-0.1722860038280487,0.8375740051269531,-0.7581830024719238
1772401997709329700,7.57232958984375,0.8901699781417847,0.5948590040206909,-0.114546999335289
1772401997729387300,7.59238720703125,1.992136001586914,0.5390869975090027,0.33956199884414673
1772401997749444400,7.6124443359375,1.9705090522766113,0.4392699897289276,0.5092489719390869
1772401997769502000,7.632501953125,1.9460070133209229,0.5410159826278687,-0.05660000070929527
1772401997789559600,7.6525595703125,1.7488059997558594,0.4288119971752167,-0.26128000020980835
1772401997809616600,7.67261669921875,1.4222450256347656,0.11105000227689743,-0.09222300350666046
1772401997829674200,7.69267431640625,1.4857959747314453,-0.3399589955806732,-0.30017900466918945
1772401997849731600,7.712731689453125,1.9646350145339966,-0.6799669861793518,-0.06334300339221954
1772401997869789000,7.732788818359375,2.282109022140503,-0.8695740103721619,0.2845250070095062
1772401997889846500,7.752846435546875,1.9984869956970215,-0.6212589740753174,0.583620011806488
1772401997909904000,7.77290380859375,1.2195899486541748,-0.8738070130348206,1.1004960536956787
1772401997929961500,7.79296142578125,0.2996729910373688,-2.5534451007843018,2.0739970207214355
1772401997950018800,7.813018798828125,0.28533700108528137,-3.9979560375213623,1.9751969575881958
1772401997970076200,7.833076171875,0.7322700023651123,-4.279164791107178,0.971356987953186
1772401997990133500,7.853133544921875,1.0162160396575928,-3.233731985092163,0.2938860058784485
1772401998010190800,7.87319091796875,0.9761729836463928,-2.611785888671875,0.6111090183258057
1772401998030248400,7.89324853515625,-0.40466099977493286,-1.380627989768982,2.0032870769500732
1772401998050306000,7.91330615234375,-3.1605279445648193,0.5274969935417175,2.547429084777832
1772401998070363400,7.93336328125,-4.729222774505615,1.5731979608535767,0.9979429841041565
1772401998090420700,7.953420654296875,-4.091379165649414,2.0001580715179443,-1.0792449712753296
1772401998110478000,7.97347802734375,-2.2659029960632324,2.327327013015747,-2.0529959201812744
1772401998130535400,7.993535400390625,-0.8055220246315002,2.6994619369506836,-2.0215959548950195
1772401998150593000,8.013593017578126,-0.1268180012702942,3.2091689109802246,-1.3644770383834839
1772401998170650400,8.033650390625,0.5553449988365173,2.9673349857330322,-1.1139819622039795
1772401998190707700,8.053707763671875,0.735476016998291,2.2474679946899414,-1.2839850187301636
1772401998210765000,8.07376513671875,-0.23881900310516357,1.454774022102356,-1.5135879516601562
1772401998230822700,8.09382275390625,-1.9206550121307373,1.2774189710617065,-1.2092700004577637
1772401998250879700,8.113879638671875,-3.182123899459839,0.9931349754333496,-0.5786160230636597
1772401998270937300,8.133937255859376,-3.0992989540100098,0.7409080266952515,-0.11409299820661545
1772401998290994700,8.15399462890625,-2.6074390411376953,0.5871269702911377,-0.23287400603294373
1772401998311052000,8.174052001953125,-1.5539519786834717,0.515300989151001,0.02969999983906746
1772401998331109400,8.194109375,0.4480380117893219,0.6130409836769104,1.2405600547790527
1772401998351167000,8.2141669921875,2.536829948425293,0.4752329885959625,1.8692480325698853
1772401998371224300,8.234224365234375,3.4366650581359863,0.15458600223064423,1.1753979921340942
1772401998391281700,8.25428173828125,3.486931085586548,-0.16032999753952026,0.5787180066108704
1772401998411339300,8.27433935546875,3.2743449211120605,-0.4922640025615692,0.5029749870300293
1772401998431396400,8.294396240234375,2.5978751182556152,-0.653810977935791,-0.19922000169754028
1772401998451454000,8.314453857421874,1.7687000036239624,-0.7182490229606628,-1.4081759452819824
1772401998471511300,8.33451123046875,0.8629599809646606,-1.1569989919662476,-1.555340051651001
1772401998491568600,8.354568603515625,0.9735680222511292,-1.3831989765167236,0.1773270070552826
1772401998511626000,8.3746259765625,1.524454951286316,-1.514559030532837,3.2346620559692383
1772401998531683600,8.39468359375,0.43396300077438354,-2.3684470653533936,4.06852912902832
1772401998551741000,8.414740966796876,-0.771228015422821,-2.122757911682129,2.197222948074341
1772401998571798300,8.43479833984375,-2.172183036804199,-2.355804920196533,-0.3950200080871582
1772401998591855600,8.454855712890625,-3.080146074295044,-2.183044910430908,-2.3688158988952637
1772401998611913200,8.474913330078126,-2.9857161045074463,-2.0416359901428223,-2.6118528842926025
1772401998631970300,8.49497021484375,-1.9973729848861694,-1.633309006690979,-1.687082052230835
1772401998652028000,8.51502783203125,-1.081099033355713,-0.6842470169067383,-0.6352660059928894
1772401998672085200,8.535085205078126,-0.700078010559082,0.39340201020240784,-0.4682129919528961
1772401998692142300,8.555142333984374,-0.6944630146026611,1.3219209909439087,-0.8913699984550476
1772401998712200000,8.575199951171875,-0.5723699927330017,1.8063369989395142,-0.9450960159301758
1772401998732257300,8.59525732421875,-0.5018960237503052,2.142669916152954,-0.3344759941101074
1772401998752314600,8.615314697265624,-0.5183169841766357,2.3325350284576416,-0.01878100074827671
1772401998772372000,8.6353720703125,-0.2386530041694641,1.9692280292510986,-0.1894250065088272
1772401998792429300,8.65542919921875,0.20907600224018097,1.669782042503357,-0.029139000922441483
1772401998812486700,8.675486572265624,0.9776610136032104,1.3510260581970215,0.09428700059652328
1772401998832544000,8.6955439453125,1.7437289953231812,0.9928209781646729,-0.10536900162696838
1772401998852601300,8.715601318359376,2.0709829330444336,0.782256007194519,0.08450400084257126
1772401998872659000,8.735658935546875,2.0895869731903076,0.7050049901008606,0.10200300067663193
1772401998892716000,8.755716064453125,2.298069953918457,0.45040398836135864,0.008802000433206558
1772401998912773600,8.775773681640626,2.122454881668091,0.1347229927778244,0.2870419919490814
1772401998932830700,8.795830810546875,1.2419639825820923,-0.17542099952697754,0.7488330006599426
1772401998952888000,8.81588818359375,0.7311710119247437,-0.4779359996318817,0.6470670104026794
1772401998972945700,8.835945556640626,0.6897370219230652,-0.7247490286827087,0.15685300529003143
1772401998993003000,8.8560029296875,0.768589973449707,-0.766198992729187,0.19108200073242188
1772401999013060000,8.87606005859375,0.5052710175514221,-0.4801590144634247,1.1296659708023071
1772401999033117700,8.89611767578125,-0.2845819890499115,-1.4337279796600342,2.579732894897461
1772401999053175000,8.916175048828125,-0.5092650055885315,-3.6029820442199707,2.262985944747925
1772401999073232400,8.936232421875,0.4717870056629181,-3.1967859268188477,-0.7312099933624268
1772401999093289700,8.956289794921876,0.5918290019035339,-1.239027976989746,-1.7649680376052856
1772401999113347000,8.97634716796875,-0.3769350051879883,-0.706421971321106,-0.03677399829030037
1772401999133404400,8.996404296875,-1.5583479404449463,-1.1163380146026611,0.8913789987564087
1772401999153461800,9.016461669921876,-2.1274778842926025,-1.0122699737548828,0.5523040294647217
1772401999173519000,9.03651904296875,-2.4203829765319824,-0.04341600090265274,0.4194430112838745
1772401999193576400,9.056576416015625,-1.9707059860229492,0.7604659795761108,0.2587539851665497
1772401999213633800,9.0766337890625,-0.5829640030860901,1.1115729808807373,-0.20259599387645721
1772401999233691100,9.096691162109375,0.24082699418067932,1.4660580158233643,-0.7948769927024841
1772401999253748500,9.11674853515625,0.014262000098824501,2.0424458980560303,-0.8887010216712952
1772401999273805800,9.136805908203126,-0.5533900260925293,2.478756904602051,-0.7525609731674194
1772401999293863400,9.156863525390625,-0.5075119733810425,2.1478049755096436,-0.8420479893684387
1772401999313920500,9.17692041015625,-0.3108089864253998,1.4974440336227417,-0.8496389985084534
1772401999333978000,9.19697802734375,-0.9166470170021057,1.0507550239562988,-0.7197110056877136
1772401999354035200,9.21703515625,-2.1701180934906006,0.972603976726532,-0.566169023513794
1772401999374092500,9.237092529296875,-2.898494005203247,0.7076830267906189,-0.6409350037574768
1772401999394150100,9.257150146484374,-2.6083950996398926,0.45254600048065186,-0.7119479775428772
1772401999414207200,9.277207275390625,-1.5523159503936768,0.6116369962692261,-0.1327580064535141
1772401999434264600,9.2972646484375,-0.7074519991874695,0.9221100211143494,0.5505930185317993
1772401999454322000,9.317322021484374,0.2100369930267334,1.026487946510315,0.8620740175247192
1772401999474379300,9.337379150390625,1.2536300420761108,0.8939899802207947,0.4560590088367462
1772401999494436600,9.3574365234375,2.0717029571533203,0.5127919912338257,-0.056752000004053116
1772401999514494000,9.377493896484374,2.345362901687622,0.365433007478714,0.2977980077266693
1772401999534551300,9.39755126953125,2.373889923095703,-0.0444520004093647,0.34303799271583557
1772401999554608600,9.417608642578125,2.359112024307251,-0.6003620028495789,-0.7655689716339111
1772401999574666000,9.437666015625,2.4080889225006104,-0.3346889913082123,-1.5100549459457397
1772401999594723300,9.457723388671875,2.6024720668792725,0.15544800460338593,-1.1608439683914185
1772401999614780700,9.47778076171875,2.116377115249634,0.24515800178050995,-1.0838749408721924
1772401999634837800,9.497837646484374,1.034701943397522,-0.4150719940662384,-0.3919000029563904
1772401999654895000,9.51789501953125,0.7549610137939453,-1.2192579507827759,0.6152790188789368
1772401999674952400,9.537952392578125,1.23996901512146,-2.157006025314331,1.940222978591919
1772401999695009800,9.558009765625,-0.25122401118278503,-4.7208051681518555,4.868178844451904
1772401999715067100,9.578067138671875,0.8598200082778931,-4.537444114685059,4.306542873382568
1772401999735124500,9.59812451171875,1.2014559507369995,-3.4731550216674805,-0.3819650113582611
1772401999755181600,9.618181640625,-1.0292340517044067,-2.9929230213165283,-2.6903719902038574
1772401999775239200,9.6382392578125,-3.2521870136260986,-1.315938949584961,-1.9506969451904297
1772401999795296500,9.658296630859375,-3.8465499877929688,0.5088480114936829,-0.007757999934256077
1772401999815353900,9.678353759765624,-3.1172399520874023,1.304677963256836,0.7105929851531982
1772401999835411000,9.698410888671875,-1.787392020225525,1.4597430229187012,0.1620739996433258
1772401999855468300,9.71846826171875,-0.5755130052566528,1.5141940116882324,-0.27834001183509827
1772401999875525600,9.738525634765624,-0.43161100149154663,1.7345550060272217,-0.3314720094203949
1772401999895583000,9.7585830078125,-1.2148879766464233,2.038844108581543,-0.5875769853591919
1772401999915640300,9.778640380859375,-1.680709958076477,1.7630749940872192,-1.1132620573043823
1772401999935697700,9.79869775390625,-1.3925679922103882,1.30485999584198,-1.3162089586257935
1772401999955755000,9.818755126953125,-0.42765501141548157,1.1038880348205566,-0.7617670297622681
1772401999975812000,9.83881201171875,0.38187599182128906,1.1239099502563477,-0.17421400547027588
1772401999995869700,9.85886962890625,0.9487000107765198,0.9879279732704163,-0.13537099957466125
1772402000015927000,9.878927001953125,1.4661600589752197,0.9911419749259949,-0.14269700646400452
1772402000035984100,9.898984130859375,1.6057289838790894,1.152914047241211,0.3834420144557953
1772402000056041500,9.91904150390625,1.042983055114746,1.1831309795379639,0.6267539858818054
1772402000076099000,9.93909912109375,0.7343860268592834,0.6241049766540527,0.10460299998521805
1772402000096156200,9.95915625,1.401908040046692,-0.45591500401496887,-0.6363170146942139
1772402000116213500,9.979213623046874,2.2727270126342773,-0.7615320086479187,-0.4130539894104004
1772402000136270800,9.999270751953125,2.7109808921813965,-0.47722598910331726,0.18235599994659424
1772402000156328200,10.019328125,2.4311840534210205,-0.3393799960613251,0.4682849943637848
1772402000176385500,10.039385498046874,1.720147967338562,-0.04350399971008301,0.7650279998779297
1772402000196442600,10.059442626953125,1.040917992591858,0.6299960017204285,0.7056220173835754
1772402000216500000,10.0795,0.7871339917182922,0.9479960203170776,0.3844980001449585
1772402000236557300,10.099557373046874,0.4441069960594177,0.11519700288772583,0.7195979952812195
1772402000256614700,10.11961474609375,0.016085000708699226,-1.3718409538269043,1.0644780397415161
1772402000276672000,10.139672119140625,-0.841530978679657,-4.694273948669434,2.437182903289795
1772402000296729300,10.159729248046874,0.2195740044116974,-5.831418991088867,1.0457459688186646
1772402000316786700,10.17978662109375,2.382059097290039,-3.4699349403381348,-0.16900299489498138
1772402000336843800,10.19984375,2.037647008895874,-0.8183479905128479,0.3663969933986664
1772402000356901000,10.219901123046874,-1.4722809791564941,0.9869210124015808,0.2355169951915741
1772402000376958500,10.23995849609375,-4.88022518157959,1.3751360177993774,-0.26518499851226807
1772402000397015800,10.260015869140625,-5.321780204772949,0.8937090039253235,-1.1313480138778687
1772402000417073200,10.2800732421875,-3.267024040222168,0.3909670114517212,-2.5826780796051025
1772402000437130200,10.300130126953125,-0.49761900305747986,0.3415740132331848,-2.566143035888672
1772402000457187800,10.320187744140625,1.061903953552246,0.746059000492096,-1.5609140396118164
1772402000477245200,10.3402451171875,0.824724018573761,1.56244695186615,-0.8679310083389282
1772402000497302500,10.360302490234375,-0.9994199872016907,2.573158025741577,-0.4447450041770935
1772402000517359900,10.38035986328125,-1.8755359649658203,2.769726037979126,-0.5917959809303284
1772402000537417200,10.400417236328124,-1.629228949546814,2.246181011199951,-0.5230370163917542
1772402000557474300,10.420474365234375,-1.8985830545425415,1.7313439846038818,-0.31922900676727295
1772402000577532000,10.440531982421875,-1.8276660442352295,1.425874948501587,-0.07138299942016602
1772402000597589000,10.460589111328124,-0.9509329795837402,0.9567000269889832,-0.018705999478697777
1772402000617646300,10.480646240234375,0.31045299768447876,0.34775999188423157,-0.42456498742103577
1772402000637703700,10.50070361328125,0.7251629829406738,0.7190080285072327,-0.18125200271606445
1772402000657761000,10.520760986328124,0.3001289963722229,1.0576059818267822,0.9141979813575745
1772402000677818400,10.540818359375,-0.035096000880002975,1.2044850587844849,0.8929579854011536
1772402000697875700,10.560875732421875,0.9967229962348938,0.26598799228668213,0.4535660147666931
