time,seconds_elapsed,z,y,x
1772401990267930600,0.1309306640625,0.2777499854564667,-0.517549991607666,0.13199999928474426
1772401990287988500,0.150988525390625,0.2586374878883362,-0.608162522315979,0.1788875013589859
1772401990308046600,0.171046630859375,0.34814998507499695,-0.5579749941825867,0.1788875013589859
1772401990328104400,0.1911044921875,0.5218124985694885,-0.4376625120639801,0.11604999750852585
1772401990348162300,0.211162353515625,0.5685625076293945,-0.38967499136924744,-0.09171249717473984
1772401990368220200,0.23122021484375,0.518512487411499,-0.32903748750686646,-0.2162874937057495
1772401990388278300,0.2512783203125,0.4035624861717224,-0.27252501249313354,-0.15674999356269836
1772401990408336100,0.271336181640625,0.3746874928474426,-0.2022625058889389,-0.06613750010728836
1772401990428394000,0.29139404296875,0.495137482881546,-0.17874999344348907,0.20762500166893005
1772401990448452000,0.3114521484375,0.5068249702453613,-0.3470500111579895,0.6561499834060669
1772401990468509700,0.331509765625,0.41731250286102295,-0.3119874894618988,0.5549499988555908
1772401990488567800,0.35156787109375,0.3279374837875366,0.1396999955177307,0.1629374921321869
1772401990508625700,0.371625732421875,0.03918749839067459,0.8588249683380127,-0.27390000224113464
1772401990528683500,0.39168359375,-0.2761000096797943,1.307212471961975,-0.25148749351501465
1772401990548741400,0.411741455078125,-0.3889875113964081,1.2529000043869019,1.0374374389648438
1772401990568799200,0.43179931640625,-0.18878750503063202,0.4006749987602234,2.4030873775482178
1772401990588857000,0.451857177734375,0.22453749179840088,-0.7369999885559082,2.44997501373291
1772401990608915200,0.471915283203125,0.5878124833106995,-1.0533875226974487,1.392187476158142
1772401990628973000,0.49197314453125,0.7220125198364258,-0.5537124872207642,0.2576749920845032
1772401990649031000,0.512031005859375,0.5739250183105469,-0.21504999697208405,-0.4422000050544739
1772401990669089000,0.532089111328125,0.4109874963760376,-0.3759250044822693,-0.6296125054359436
1772401990689146600,0.552146728515625,0.34485000371932983,-0.583549976348877,-0.49114999175071716
1772401990709204700,0.572204833984375,0.3704249858856201,-0.6113250255584717,-0.27912500500679016
1772401990729262600,0.5922626953125,0.4482499957084656,-0.5388625264167786,-0.271699994802475
1772401990749320400,0.612320556640625,0.5431249737739563,-0.49939998984336853,-0.37716248631477356
1772401990769378300,0.63237841796875,0.7188500165939331,-0.5579749941825867,-0.3004375100135803
1772401990789436200,0.652436279296875,0.9255124926567078,-0.7572125196456909,-0.14918750524520874
1772401990809494000,0.672493896484375,1.0383999347686768,-1.0746999979019165,0.04468749836087227
1772401990829552000,0.69255224609375,0.9499874711036682,-1.2483625411987305,0.22893749177455902
1772401990849609700,0.712609619140625,0.7539125084877014,-1.042662501335144,0.13942499458789825
1772401990869667600,0.73266748046875,0.6495500206947327,-0.7827875018119812,-0.19827499985694885
1772401990889725700,0.7527255859375,0.5420249700546265,-0.692312479019165,-0.4059000015258789
1772401990909783600,0.772783447265625,0.4536125063896179,-0.7039999961853027,-0.30153748393058777
1772401990929841400,0.79284130859375,0.4334000051021576,-0.6304374933242798,-0.04908749833703041
1772401990949899300,0.812899169921875,0.4386250078678131,-0.3950375020503998,0.267300009727478
1772401990969957000,0.83295703125,0.35667499899864197,-0.25437501072883606,0.47286251187324524
1772401990990015000,0.853014892578125,0.11275000125169754,-0.11811249703168869,0.3844499886035919
1772401991010072800,0.87307275390625,-0.04496249929070473,0.23663750290870667,0.26840001344680786
1772401991030130700,0.893130615234375,-0.040699999779462814,0.3091000020503998,0.25987499952316284
1772401991050188500,0.9131884765625,-0.05348749831318855,0.03217500075697899,0.2480500042438507
1772401991070246700,0.93324658203125,-0.03217500075697899,-0.20006249845027924,0.3269749879837036
1772401991090304500,0.953304443359375,-0.040699999779462814,-0.24914999306201935,0.4622749984264374
1772401991110362400,0.9733623046875,-0.3176249861717224,-0.07012499868869781,0.4207499921321869
1772401991130420200,0.993420166015625,-0.9366499781608582,0.4614500105381012,0.1214125007390976
1772401991150478000,1.01347802734375,-1.5310624837875366,1.2731125354766846,-0.22811250388622284
1772401991170536000,1.033535888671875,-1.830399990081787,1.9729875326156616,-0.4357374906539917
1772401991190593800,1.05359375,-1.7824125289916992,1.6897374391555786,-0.6040375232696533
1772401991210651600,1.073651611328125,-1.353137493133545,1.2764124870300293,0.10958749800920486
1772401991230709500,1.09370947265625,-0.9568625092506409,0.956725001335144,1.264312505722046
1772401991250767400,1.113767333984375,-0.8482375144958496,1.020662546157837,1.4763374328613281
1772401991270825200,1.1338251953125,-0.8482375144958496,1.406350016593933,1.0535249710083008
1772401991290883000,1.153883056640625,-0.8460375070571899,1.7003250122070312,0.6656374931335449
1772401991310941000,1.17394091796875,-0.5946875214576721,1.5852375030517578,0.46860000491142273
1772401991330998800,1.193998779296875,-0.35282498598098755,1.4851374626159668,0.5240125060081482
1772401991351056600,1.214056640625,-0.12594999372959137,1.3253624439239502,0.6220499873161316
1772401991371114500,1.234114501953125,0.11371249705553055,0.8076750040054321,0.5432624816894531
1772401991391172000,1.254172119140625,0.296999990940094,0.06943749636411667,0.4963749945163727
1772401991411230200,1.274230224609375,0.4109874963760376,-0.6656374931335449,0.5751624703407288
1772401991431287800,1.294287841796875,0.5483499765396118,-1.0044374465942383,0.5975750088691711
1772401991451346000,1.314345947265625,0.7752249836921692,-1.1673749685287476,0.6188874840736389
1772401991471403800,1.33440380859375,0.7177500128746033,-1.3303124904632568,0.6699000000953674
1772401991491461600,1.354461669921875,0.6762250065803528,-1.1961125135421753,0.2545124888420105
1772401991511519500,1.37451953125,0.7242124676704407,-0.951087474822998,-0.5380374789237976
1772401991531577300,1.394577392578125,0.7752249836921692,-0.6602749824523926,-0.9758374691009521
1772401991551635200,1.41463525390625,0.6080250144004822,-0.30236250162124634,-0.7884249687194824
1772401991571693000,1.434693115234375,0.3768875002861023,-0.15537500381469727,-0.4507249891757965
1772401991591751000,1.4547509765625,0.21917499601840973,-0.08717499673366547,-0.20253749191761017
1772401991611808800,1.474808837890625,0.12443749606609344,0.05238749831914902,-0.08002500236034393
1772401991631866600,1.49486669921875,0.1691250056028366,0.17173749208450317,0.12031249701976776
1772401991651924500,1.514924560546875,0.32999998331069946,0.09707500040531158,0.5154874920845032
1772401991671982300,1.534982421875,0.5952374935150146,-0.14685000479221344,0.9916499853134155
1772401991692040200,1.555040283203125,0.739062488079071,-0.21615000069141388,0.9799624681472778
1772401991712098000,1.57509814453125,0.9073625206947327,-0.14794999361038208,0.7115625143051147
1772401991732156000,1.595156005859375,0.7870500087738037,-0.7497875094413757,0.9128624796867371
1772401991752213800,1.6152138671875,0.4599374830722809,-0.9457250237464905,0.32903748750686646
1772401991772271600,1.635271728515625,0.16376249492168427,0.3367374837398529,-0.9556249976158142
1772401991792329500,1.65532958984375,-0.30483749508857727,1.8249000310897827,0.10532499849796295
1772401991812387300,1.67538720703125,-0.6968500018119812,1.646012544631958,1.898187518119812
1772401991832445000,1.69544482421875,-0.6245250105857849,0.7309499979019165,1.5413750410079956
1772401991852502800,1.715502685546875,-0.2069374918937683,0.1396999955177307,0.038224998861551285
1772401991872561000,1.735560791015625,-0.03753750026226044,-0.0019249999895691872,-1.1921249628067017
1772401991892618500,1.755618408203125,-0.06201250106096268,0.07479999959468842,-1.4701499938964844
1772401991912676600,1.775676513671875,0.015812499448657036,0.03959999978542328,-1.0462374687194824
1772401991932734200,1.795734130859375,0.10202500224113464,-0.2586374878883362,-0.6243875026702881
1772401991952792000,1.8157919921875,0.15207499265670776,-0.39820000529289246,-0.5497249960899353
1772401991972850000,1.835849853515625,0.16060000658035278,-0.3876124918460846,-0.6957499980926514
1772401991992907800,1.85590771484375,0.043449997901916504,-0.38651248812675476,-0.8501625061035156
1772401992012965600,1.875965576171875,-0.15578749775886536,-0.3385249972343445,-1.03125
1772401992033023500,1.8960234375,-0.24736249446868896,-0.4567750096321106,-1.3029500246047974
1772401992053081300,1.916081298828125,-0.17599999904632568,-0.6624749898910522,-1.25496244430542
1772401992073139200,1.93613916015625,-0.004537499975413084,-0.829675018787384,-0.8916875123977661
1772401992093197000,1.956197021484375,0.23526249825954437,-0.932937502861023,-0.5615500211715698
1772401992113255000,1.9762548828125,0.45567500591278076,-0.9277125000953674,-0.17586250603199005
1772401992133312800,1.996312744140625,0.35557499527931213,-0.8765624761581421,0.1564749926328659
1772401992153370400,2.016370361328125,0.11481250077486038,-0.6560124754905701,0.06806249916553497
1772401992173428500,2.036428466796875,0.015812499448657036,-0.2778874933719635,-0.06613750010728836
1772401992193486000,2.056486083984375,0.003987499978393316,-0.1297999918460846,0.13199999928474426
1772401992213544000,2.0765439453125,-0.06407500058412552,-0.2662000060081482,0.44948750734329224
1772401992233601800,2.096601806640625,-0.1568875014781952,-0.35887500643730164,0.7317749857902527
1772401992253659400,2.116659423828125,-0.2877874970436096,-0.26826250553131104,1.0800625085830688
1772401992273717500,2.136717529296875,-0.6212249994277954,-0.11811249703168869,1.1929500102996826
1772401992293775000,2.156775146484375,-0.8076750040054321,-0.22783750295639038,0.8872874975204468
1772401992313833000,2.1768330078125,-1.215637445449829,-0.12553749978542328,0.40369999408721924
1772401992333890800,2.196890869140625,-1.5427500009536743,0.38266250491142273,-0.30153748393058777
1772401992353948400,2.216948486328125,-1.4469125270843506,0.9259250164031982,-0.3632749915122986
1772401992374006500,2.237006591796875,-1.2647249698638916,1.2199000120162964,0.0989999994635582
1772401992394064100,2.257064208984375,-1.1092125177383423,1.4148750305175781,0.14794999361038208
1772401992414122000,2.2771220703125,-0.8929250240325928,1.6982624530792236,-0.18438750505447388
1772401992434179800,2.297179931640625,-0.6330500245094299,1.897362470626831,-0.2227499932050705
1772401992454238000,2.317238037109375,-0.3667125105857849,1.778149962425232,-0.1354375034570694
1772401992474295600,2.337295654296875,-0.14300000667572021,1.5340875387191772,0.13626250624656677
1772401992494353400,2.357353515625,0.05623750016093254,1.122962474822998,0.7082625031471252
1772401992514411300,2.377411376953125,0.42157500982284546,0.7128000259399414,1.117324948310852
1772401992534468900,2.39746875,0.821150004863739,0.3443000018596649,1.0576499700546265
1772401992554526700,2.417526611328125,1.0458250045776367,-0.05843750014901161,0.8595125079154968
1772401992574584600,2.43758447265625,1.1503249406814575,-0.4450874924659729,0.8883875012397766
1772401992594642400,2.457642333984375,1.1620124578475952,-0.8392999768257141,0.9310125112533569
1772401992614700300,2.4777001953125,1.1290124654769897,-1.1406999826431274,1.0012749433517456
1772401992634758000,2.4977578125,1.1310750246047974,-1.475237488746643,1.034274935722351
1772401992654815700,2.517815673828125,1.1140249967575073,-1.5167624950408936,0.6945124864578247
1772401992674873600,2.53787353515625,1.0181875228881836,-0.9851874709129333,-0.05967500060796738
1772401992694931200,2.55793115234375,0.7720624804496765,-0.5792874693870544,-0.5849249958992004
1772401992714989000,2.577989013671875,0.46956250071525574,-0.40892499685287476,-0.5689749717712402
1772401992735047000,2.598046875,0.2714250087738037,-0.25341248512268066,-0.2876499891281128
1772401992755104800,2.618104736328125,0.07961250096559525,-0.28751251101493835,-0.1363999992609024
1772401992775162600,2.63816259765625,0.010449999943375587,-0.05623750016093254,-0.13433749973773956
1772401992795220200,2.65822021484375,0.12553749978542328,0.27390000224113464,-0.16843749582767487
1772401992815278000,2.678278076171875,0.15207499265670776,0.36134999990463257,-0.4646124839782715
1772401992835335700,2.698335693359375,0.08923749625682831,0.8151000142097473,-0.5465624928474426
1772401992855393300,2.718393310546875,-0.13983750343322754,0.8801375031471252,0.6188874840736389
1772401992875451100,2.738451171875,-0.30387499928474426,-0.1223749965429306,1.1642124652862549
1772401992895509000,2.758509033203125,-0.16637499630451202,-0.3833499848842621,0.5464249849319458
1772401992915566800,2.77856689453125,-0.33371248841285706,0.5732374787330627,-0.08318749815225601
1772401992935624700,2.798624755859375,-0.8940249681472778,1.3242624998092651,0.6837875247001648
1772401992955682600,2.8186826171875,-0.8949875235557556,1.1005499362945557,0.9395374655723572
1772401992975740200,2.838740234375,-0.4423374831676483,0.6957499980926514,-0.23333749175071716
1772401992995798000,2.858798095703125,-0.2761000096797943,0.5007749795913696,-1.087762475013733
1772401993015855900,2.87885595703125,-0.28146249055862427,0.07576250284910202,-1.3305875062942505
1772401993035913500,2.89891357421875,-0.17806249856948853,-0.5399624705314636,-1.104812502861023
1772401993055971300,2.918971435546875,0.10312499850988388,-1.0289125442504883,-0.7404375076293945
1772401993076029000,2.93902880859375,0.2820124924182892,-1.0715374946594238,-0.6456999778747559
1772401993096086800,2.959086669921875,0.23100000619888306,-0.9084625244140625,-0.7915874719619751
1772401993116144600,2.97914453125,-0.016224998980760574,-0.5665000081062317,-0.8438374996185303
1772401993136202500,2.999202392578125,-0.16637499630451202,-0.35241249203681946,-0.8245875239372253
1772401993156260000,3.019260009765625,-0.20473749935626984,-0.28421249985694885,-0.8373749852180481
1772401993176317700,3.039317626953125,-0.2761000096797943,-0.21285000443458557,-0.9917874932289124
1772401993196375600,3.05937548828125,-0.3016749918460846,-0.25657498836517334,-1.1719125509262085
1772401993216433400,3.079433349609375,-0.20157499611377716,-0.4482499957084656,-1.115399956703186
1772401993236491000,3.099490966796875,-0.10243749618530273,-0.6676999926567078,-0.8245875239372253
1772401993256548900,3.119548828125,0.04235000163316727,-0.64638751745224,-0.45608749985694885
1772401993276606700,3.139606689453125,0.09033749997615814,-0.5473874807357788,-0.20996250212192535
1772401993296664600,3.15966455078125,-0.057750001549720764,-0.42061248421669006,-0.19923749566078186
1772401993316722200,3.17972216796875,-0.2761000096797943,-0.14685000479221344,-0.21848750114440918
1772401993336779800,3.19977978515625,-0.36877501010894775,0.1769624948501587,-0.08524999767541885
1772401993356837600,3.219837646484375,-0.3559874892234802,0.3133625090122223,0.12457499653100967
1772401993376895200,3.239895263671875,-0.3422375023365021,0.16747500002384186,0.2246749997138977
1772401993396953000,3.259953125,-0.41456249356269836,0.0672374963760376,0.29823750257492065
1772401993417011000,3.280010986328125,-0.8119375109672546,0.3389374911785126,0.3759250044822693
1772401993437068500,3.300068603515625,-1.1442749500274658,0.47533750534057617,0.11288750171661377
1772401993457126400,3.32012646484375,-1.0026500225067139,0.32615000009536743,-0.2685374915599823
1772401993477184000,3.34018408203125,-0.29534998536109924,0.3964124917984009,0.0424874983727932
1772401993497241900,3.360241943359375,0.19263750314712524,0.08855000138282776,0.7710999846458435
1772401993517299200,3.38029931640625,0.27348750829696655,-0.2437874972820282,1.4284875392913818
1772401993537357000,3.400357177734375,-0.17489999532699585,0.05871250107884407,1.3378750085830688
1772401993557415000,3.420414794921875,-0.7480000257492065,0.984499990940094,0.20336249470710754
1772401993577472800,3.44047265625,-0.9216625094413757,2.08697509765625,-0.7148625254631042
1772401993597530400,3.4605302734375,-0.708674967288971,2.147749900817871,-0.5647125244140625
1772401993617588200,3.480588134765625,-0.4796000123023987,1.5778124332427979,0.3386625051498413
1772401993637645800,3.500645751953125,-0.2633124887943268,1.140012502670288,1.1109999418258667
1772401993657703400,3.520703369140625,0.008249999955296516,1.0260249376296997,1.374037504196167
1772401993677761000,3.540760986328125,0.35557499527931213,0.9535624980926514,1.4305499792099
1772401993697819000,3.56081884765625,0.6133875250816345,0.652162492275238,1.289887547492981
1772401993717876500,3.58087646484375,0.6953374743461609,0.20253749191761017,1.0874874591827393
1772401993737934300,3.600934326171875,0.675125002861023,-0.14891250431537628,0.9362375140190125
1772401993757992200,3.6209921875,0.583549976348877,-0.4408249855041504,0.7243499755859375
1772401993778049800,3.6410498046875,0.4684624969959259,-0.5164499878883362,0.2363625019788742
1772401993798107400,3.661107421875,0.5079249739646912,-0.23732499778270721,-0.42198750376701355
1772401993818165000,3.6811650390625,0.5654000043869019,-0.02969999983906746,-0.6573874950408936
1772401993838222800,3.701222900390625,0.5846499800682068,-0.4652999937534332,-0.492249995470047
1772401993858280400,3.721280517578125,0.40878748893737793,-0.995912492275238,-0.1396999955177307
1772401993878338300,3.74133837890625,0.10518749803304672,-0.8839874863624573,0.14794999361038208
1772401993898396000,3.76139599609375,-0.089649997651577,-0.18947499990463257,0.16499999165534973
1772401993918453500,3.78145361328125,-0.08112499862909317,0.38266250491142273,-0.07576250284910202
1772401993938511000,3.801510986328125,0.17874999344348907,0.255887508392334,-0.05555000156164169
1772401993958569000,3.82156884765625,0.5313000082969666,-0.24914999306201935,0.33550000190734863
1772401993978626600,3.84162646484375,0.9851874709129333,-0.5377625226974487,0.6945124864578247
1772401993998684400,3.861684326171875,1.1620124578475952,-0.9425625205039978,0.9970124959945679
1772401994018742000,3.881741943359375,0.5164499878883362,-1.4805999994277954,0.8798624873161316
1772401994038800000,3.9017998046875,-0.17599999904632568,-1.5039750337600708,-0.4240500032901764
1772401994058857500,3.921857421875,-1.2743500471115112,0.2079000025987625,-1.756700038909912
1772401994078915000,3.9419150390625,-1.628000020980835,1.870824933052063,-0.7756375074386597
1772401994098972700,3.96197265625,-1.0506374835968018,2.3223750591278076,0.26413750648498535
1772401994119030300,3.9820302734375,-0.5307499766349792,1.537387490272522,-0.07246249914169312
1772401994139088100,4.002088134765625,-0.40933749079704285,0.3133625090122223,-0.7213249802589417
1772401994159146000,4.02214599609375,-0.445499986410141,-0.2639999985694885,-0.9865624904632568
1772401994179203600,4.04220361328125,-0.29534998536109924,-0.38871249556541443,-0.911899983882904
1772401994199261200,4.06226123046875,-0.12168750166893005,-0.3833499848842621,-0.6892874836921692
1772401994219318800,4.08231884765625,0.006187499966472387,-0.46213749051094055,-0.5880874991416931
1772401994239376400,4.10237646484375,-0.03217500075697899,-0.47712498903274536,-0.524150013923645
1772401994259434000,4.12243408203125,-0.23141250014305115,-0.17448750138282776,-0.4857875108718872
1772401994279491800,4.142491943359375,-0.3539249897003174,0.059812501072883606,-0.5752999782562256
1772401994299549400,4.162549560546875,-0.4358749985694885,-0.045649997889995575,-0.7469000220298767
1772401994319607300,4.182607177734375,-0.4188250005245209,-0.1266375035047531,-0.7766000032424927
1772401994339664600,4.20266455078125,-0.29631251096725464,-0.17668749392032623,-0.6403374671936035
1772401994359722200,4.22272216796875,-0.22495000064373016,-0.37908750772476196,-0.5209875106811523
1772401994379780000,4.242780029296875,-0.10573749989271164,-0.5687000155448914,-0.41442498564720154
1772401994399837700,4.262837646484375,-0.05458749830722809,-0.5271750092506409,-0.2909500002861023
1772401994419895600,4.2828955078125,-0.2143625020980835,-0.24062499403953552,-0.2162874937057495
1772401994439953200,4.302953125,-0.3389374911785126,-0.05953750014305115,-0.2461249977350235
1772401994460010800,4.3230107421875,-0.3240875005722046,0.07906249910593033,-0.20886249840259552
1772401994480068400,4.343068359375,-0.2377374917268753,0.15248750150203705,-0.020349999889731407
1772401994500126000,4.3631259765625,-0.18878750503063202,0.012924999929964542,0.15537500381469727
1772401994520183600,4.38318359375,-0.2079000025987625,-0.07122500240802765,0.24914999306201935
1772401994540241400,4.403241455078125,-0.3932499885559082,0.06407500058412552,0.25341248512268066
1772401994560299000,4.423299072265625,-0.6660500168800354,0.22384999692440033,0.10862500220537186
1772401994580356600,4.443356689453125,-0.743737518787384,0.2451625019311905,-0.007562499959021807
1772401994600414000,4.4634140625,-0.8619874715805054,0.3293125033378601,-0.011824999935925007
1772401994620471800,4.483471923828125,-0.4582875072956085,0.1621125042438507,0.011687500402331352
1772401994640529400,4.503529296875,0.12333749979734421,-0.15111249685287476,0.4324375092983246
1772401994660587000,4.5235869140625,0.5770875215530396,-0.29493749141693115,1.1801625490188599
1772401994680644600,4.54364453125,0.5398250222206116,0.10023749619722366,1.5817999839782715
1772401994700702200,4.5637021484375,0.1414874941110611,0.5689749717712402,1.1280499696731567
1772401994720759800,4.583759765625,-0.07796250283718109,0.7469000220298767,0.3482874929904938
1772401994740817400,4.6038173828125,0.13296249508857727,0.6542249917984009,-0.16940000653266907
1772401994760875300,4.623875244140625,0.3843125104904175,0.32615000009536743,-0.03203750029206276
1772401994780932600,4.6439326171875,0.4045250117778778,0.21642500162124634,0.5186499953269958
1772401994800990200,4.663990234375,0.36410000920295715,0.4657124876976013,0.9703375101089478
1772401994821048000,4.684048095703125,0.4291374981403351,0.7650499939918518,1.181262493133545
1772401994841105700,4.704105712890625,0.5941374897956848,0.772475004196167,1.2409374713897705
1772401994861163300,4.724163330078125,0.6740249991416931,0.6425374746322632,1.263350009918213
1772401994881220900,4.744220947265625,0.6432250142097473,0.4081000089645386,1.1312124729156494
1772401994901278500,4.764278564453125,0.572825014591217,0.10876250267028809,0.8595125079154968
1772401994921336000,4.784336181640625,0.5707625150680542,-0.16169999539852142,0.38981249928474426
1772401994941393700,4.8043935546875,0.7592750191688538,-0.33646249771118164,-0.15344999730587006
1772401994961451300,4.824451171875,1.068237543106079,-0.6752625107765198,-0.4965125024318695
1772401994981508900,4.8445087890625,1.2333749532699585,-1.3112000226974487,-0.3984749913215637
1772401995001566700,4.864566650390625,1.033037543296814,-1.5113999843597412,0.055275000631809235
1772401995021624000,4.8846240234375,0.6868125200271606,-1.1588499546051025,0.23539999127388
1772401995041681700,4.904681640625,0.2639999985694885,-0.6261749863624573,-0.05128749832510948
1772401995061739300,4.9247392578125,0.013612499460577965,-0.06696250289678574,-0.3282124996185303
1772401995081796900,4.944796875,0.23842500150203705,0.1428624987602234,-0.25575000047683716
1772401995101854500,4.9648544921875,0.8914124965667725,-0.1863124966621399,0.09679999947547913
1772401995121912000,4.984912109375,1.5475624799728394,-0.8445249795913696,0.6018375158309937
1772401995141969700,5.0049697265625,1.0841875076293945,-0.13612499833106995,1.649999976158142
1772401995162027300,5.02502734375,0.4152500033378601,0.16747500002384186,2.3018875122070312
1772401995182084900,5.0450849609375,0.33316248655319214,-0.9202874898910522,1.0524250268936157
1772401995202142200,5.06514208984375,-0.445499986410141,-1.9119374752044678,-1.372112512588501
1772401995222199800,5.08519970703125,-1.8730249404907227,-0.7603750228881836,-2.2094874382019043
1772401995242257400,5.10525732421875,-1.803725004196167,1.622499942779541,-0.8608874678611755
1772401995262315300,5.125315185546875,-0.9833999872207642,2.905099868774414,-0.08524999767541885
1772401995282372600,5.14537255859375,-0.47850000858306885,2.206325054168701,-0.2642749845981598
1772401995302430200,5.16543017578125,-0.4358749985694885,0.4358749985694885,-0.6456999778747559
1772401995322487800,5.18548779296875,-0.4221250116825104,-0.5409250259399414,-1.0835000276565552
1772401995342545400,5.20554541015625,-0.12484999746084213,-0.6039000153541565,-1.1261249780654907
1772401995362603000,5.22560302734375,0.0849749967455864,-0.4226749837398529,-0.8129000067710876
1772401995382660400,5.245660400390625,0.09459999948740005,-0.4334000051021576,-0.6296125054359436
1772401995402718000,5.265718017578125,-0.05348749831318855,-0.304562509059906,-0.6253499984741211
1772401995422775600,5.285775634765625,-0.2686749994754791,0.025712499395012856,-0.6881874799728394
1772401995442833400,5.30583349609375,-0.41029998660087585,0.1812250018119812,-0.8225250244140625
1772401995462890800,5.325890869140625,-0.4838624894618988,0.1621125042438507,-0.8586875200271606
1772401995482948400,5.3459482421875,-0.4923875033855438,0.16417500376701355,-0.819225013256073
1772401995503006000,5.366005859375,-0.2877874970436096,0.027912499383091927,-0.6605499982833862
1772401995523063600,5.3860634765625,-0.005499999970197678,-0.21821250021457672,-0.34732499718666077
1772401995543121200,5.40612109375,-0.00976249948143959,-0.23732499778270721,-0.08208750188350677
1772401995563178800,5.4261787109375,-0.15262499451637268,-0.02969999983906746,-0.1013374999165535
1772401995583236000,5.446236083984375,-0.26977500319480896,0.025712499395012856,-0.21422499418258667
1772401995603293700,5.466293701171875,-0.4017750024795532,0.09501250088214874,-0.1545500010251999
1772401995623351300,5.486351318359375,-0.3772999942302704,0.2866874933242798,0.07975000143051147
1772401995643409000,5.506408935546875,-0.15358750522136688,0.16417500376701355,0.31308749318122864
1772401995663466200,5.52646630859375,-0.011962499469518661,-0.24268749356269836,0.5399624705314636
1772401995683523800,5.54652392578125,-0.09501250088214874,-0.4067249894142151,0.7328749895095825
1772401995703581400,5.56658154296875,-0.2974124848842621,-0.13089999556541443,0.8755999803543091
1772401995723639000,5.58663916015625,-0.5531625151634216,0.5467000007629395,0.9597499966621399
1772401995743696600,5.606696533203125,-0.9227625131607056,1.0621875524520874,0.9245499968528748
1772401995763754000,5.62675390625,-1.3744499683380127,0.7821000218391418,0.5729625225067139
1772401995783811600,5.6468115234375,-0.9281250238418579,0.06833750009536743,0.06379999965429306
1772401995803869400,5.666869384765625,-0.3443000018596649,-0.44398748874664307,0.17668749392032623
1772401995823926800,5.6869267578125,-0.17916250228881836,-0.29067498445510864,0.6741625070571899
1772401995843984100,5.706984130859375,0.12017499655485153,0.2824249863624573,1.106737494468689
1772401995864041700,5.727041748046875,0.26606249809265137,0.8289874792098999,1.098212480545044
1772401995884099300,5.747099365234375,0.1467124968767166,1.2764124870300293,0.608162522315979
1772401995904157000,5.767156982421875,-0.06311249732971191,1.1752125024795532,0.06379999965429306
1772401995924214300,5.78721435546875,-0.10243749618530273,0.6308500170707703,-0.3335750102996826
1772401995944272000,5.80727197265625,0.14038750529289246,0.23237499594688416,-0.8438374996185303
1772401995964329500,5.82732958984375,0.6569749712944031,0.16843749582767487,-0.8885250091552734
1772401995984387000,5.847386962890625,0.9275749921798706,0.13227500021457672,0.2129874974489212
1772401996004444400,5.8674443359375,0.9138249754905701,0.22384999692440033,1.3879250288009644
1772401996024502000,5.887501953125,0.90420001745224,0.26221248507499695,1.657425045967102
1772401996044559600,5.9075595703125,0.9425625205039978,0.46254998445510864,1.2526249885559082
1772401996064617200,5.9276171875,1.006500005722046,0.3431999981403351,0.7189875245094299
1772401996084674600,5.947674560546875,0.9638749957084656,-0.18301250040531158,0.3386625051498413
1772401996104732200,5.967732177734375,0.8424624800682068,-0.3950375020503998,-0.0906125009059906
1772401996124789800,5.987789794921875,0.8263750076293945,-0.38967499136924744,-0.31968748569488525
1772401996144847000,6.00784716796875,0.804099977016449,-0.4984374940395355,-0.41126251220703125
1772401996164904700,6.02790478515625,0.720912516117096,-0.563337504863739,-0.20143750309944153
1772401996184962300,6.04796240234375,0.5047624707221985,-0.5783249735832214,0.011687500402331352
1772401996205020000,6.06802001953125,0.30332499742507935,-0.31308749318122864,-0.03739999979734421
1772401996225077200,6.0880771484375,0.20116250216960907,0.04166249930858612,-0.05444999784231186
1772401996245134600,6.108134521484375,0.27678748965263367,0.18232500553131104,0.05637500062584877
1772401996265192200,6.128192138671875,0.8636375069618225,-0.5484874844551086,0.2513499855995178
1772401996285249800,6.148249755859375,1.0309749841690063,-1.8363125324249268,0.32161250710487366
1772401996305307100,6.16830712890625,0.2063875049352646,-1.8149999380111694,-0.3782624900341034
1772401996325364700,6.18836474609375,-0.1504250019788742,0.0032999999821186066,-0.17586250603199005
1772401996345422300,6.20842236328125,-0.23883749544620514,1.7014249563217163,1.363450050354004
1772401996365479700,6.228479736328125,-0.4870249927043915,1.7099499702453613,0.9054374694824219
1772401996385537300,6.248537353515625,-0.6137999892234802,0.8503000140190125,-0.6275500059127808
1772401996405594600,6.2685947265625,-0.5498625040054321,0.22495000064373016,-1.1676499843597412
1772401996425652200,6.28865234375,-0.4188250005245209,-0.045649997889995575,-0.8683124780654907
1772401996445709800,6.308709716796875,-0.25382500886917114,-0.09569999575614929,-0.38142499327659607
1772401996465767200,6.32876708984375,-0.08332499861717224,-0.11701250076293945,-0.29727500677108765
1772401996485824800,6.34882470703125,0.02433750033378601,-0.23100000619888306,-0.492249995470047
1772401996505882400,6.36888232421875,-0.022549999877810478,-0.3162499964237213,-0.5647125244140625
1772401996525939500,6.388939453125,-0.08648750185966492,-0.3012624979019165,-0.4538874924182892
1772401996545997000,6.4089970703125,-0.10573749989271164,-0.16706250607967377,-0.3675374984741211
1772401996566054700,6.4290546875,-0.06833750009536743,-0.07975000143051147,-0.34209999442100525
1772401996586112000,6.449112060546875,-0.030112499371170998,-0.13296249508857727,-0.3793624937534332
1772401996606169600,6.469169677734375,0.057337500154972076,-0.20542499423027039,-0.3441624939441681
1772401996626227000,6.48922705078125,0.10944999754428864,-0.4057624936103821,-0.16197499632835388
1772401996646284500,6.509284423828125,0.08071249723434448,-0.47712498903274536,-0.06187500059604645
1772401996666342000,6.529341796875,0.017875000834465027,-0.32147499918937683,-0.05871250107884407
1772401996686399500,6.5493994140625,-0.11742500215768814,-0.17448750138282776,-0.03739999979734421
1772401996706457000,6.56945703125,-0.27293750643730164,-0.18837499618530273,-0.02241249941289425
1772401996726514400,6.589514404296875,-0.430649995803833,-0.17352500557899475,-0.05128749832510948
1772401996746571800,6.60957177734375,-0.5935875177383423,0.050187498331069946,-0.04166249930858612
1772401996766629400,6.62962939453125,-0.6340125203132629,0.24626250565052032,0.06599999964237213
1772401996786687000,6.64968701171875,-0.6947875022888184,0.24736249446868896,0.2087250053882599
1772401996806744300,6.669744384765625,-0.955762505531311,0.21642500162124634,0.07452499866485596
1772401996826802000,6.689802001953125,-1.1900625228881836,0.2857249975204468,-0.25891250371932983
1772401996846859300,6.709859375,-1.1240625381469727,0.3730374872684479,-0.5007749795913696
1772401996866916900,6.729916748046875,-0.6968500018119812,0.45608749985694885,-0.3068999946117401
1772401996886974200,6.74997412109375,-0.20583750307559967,0.36134999990463257,0.15015000104904175
1772401996907031800,6.77003173828125,0.2947999835014343,-0.02969999983906746,0.525112509727478
1772401996927089400,6.79008935546875,0.4291374981403351,-0.2363625019788742,0.7178875207901001
1772401996947146800,6.810146728515625,0.2106499969959259,0.031075000762939453,0.48358750343322754
1772401996967204000,6.8302041015625,0.04124999791383743,0.42844998836517334,0.0031624999828636646
1772401996987261700,6.85026171875,0.007287499960511923,0.3750999867916107,-0.24722500145435333
1772401997007319300,6.8703193359375,0.13928750157356262,0.08855000138282776,-0.07356250286102295
1772401997027376600,6.890376708984375,0.35241249203681946,-0.0775500014424324,0.15441249310970306
1772401997047434000,6.91043408203125,0.43230000138282776,-0.11811249703168869,0.14162500202655792
1772401997067491600,6.93049169921875,0.29163751006126404,0.19401249289512634,-0.2003374993801117
1772401997087549000,6.950548828125,0.2521750032901764,0.5658124685287476,-0.15674999356269836
1772401997107606300,6.970606201171875,0.35241249203681946,0.6382749676704407,0.26083749532699585
1772401997127663900,6.990663818359375,0.4536125063896179,0.5018749833106995,0.6231499910354614
1772401997147721500,7.010721435546875,0.5164499878883362,0.256850004196167,0.6604124903678894
1772401997167778800,7.03077880859375,0.5739250183105469,-0.17132499814033508,0.3876124918460846
1772401997187836200,7.050836181640625,0.6154500246047974,-0.5154874920845032,-0.030937500298023224
1772401997207893800,7.070893798828125,0.6793875098228455,-0.5868499875068665,-0.3324750065803528
1772401997227951000,7.090951171875,0.6879125237464905,-0.6539499759674072,-0.35804998874664307
1772401997248008700,7.1110087890625,0.6208124756813049,-0.7508875131607056,-0.2046000063419342
1772401997268066000,7.131066162109375,0.48551249504089355,-0.6421250104904175,-0.14396250247955322
1772401997288123400,7.151123291015625,0.3513124883174896,-0.5868499875068665,-0.31226250529289246
1772401997308181000,7.171180908203125,0.20858749747276306,-0.6102250218391418,-0.4305124878883362
1772401997328238300,7.19123828125,0.32573750615119934,-0.6667374968528748,-0.6030749678611755
1772401997348295700,7.211295654296875,0.5931749939918518,-0.5218124985694885,-0.9194625020027161
1772401997368353300,7.231353271484375,0.6697624921798706,-0.5579749941825867,-0.14066250622272491
1772401997388410600,7.25141064453125,-0.018287500366568565,-0.3737249970436096,1.014062523841858
1772401997408468200,7.27146826171875,-0.3922874927520752,-0.11591249704360962,2.1283624172210693
1772401997428525600,7.291525634765625,-0.6564249992370605,1.2167375087738037,2.7344624996185303
1772401997448583200,7.311583251953125,-1.3446124792099,2.505662441253662,1.614799976348877
1772401997468640500,7.331640625,-1.37128746509552,2.412987470626831,-0.551925003528595
1772401997488697900,7.35169775390625,-1.2093124389648438,1.6343250274658203,-1.521299958229065
1772401997508755200,7.371755126953125,-0.6830999851226807,0.38046249747276306,-1.3199999332427979
1772401997528812800,7.391812744140625,-0.26977500319480896,-0.7273749709129333,-0.6829624772071838
1772401997548870100,7.4118701171875,-0.0471624992787838,-1.2578500509262085,-0.36547499895095825
1772401997568927700,7.431927734375,-0.03959999978542328,-1.3228875398635864,-0.551925003528595
1772401997588985000,7.451985107421875,-0.20047499239444733,-0.9425625205039978,-1.0471999645233154
1772401997609042400,7.47204248046875,-0.4071374833583832,-0.5079249739646912,-1.3913625478744507
1772401997629099800,7.492099853515625,-0.6968500018119812,-0.42377498745918274,-1.390262484550476
1772401997649157400,7.512157470703125,-0.8812375068664551,-0.32903748750686646,-1.280537486076355
1772401997669214700,7.532214599609375,-0.8343499898910522,-0.3268375098705292,-1.206974983215332
1772401997689272000,7.55227197265625,-0.7075750231742859,-0.6070625185966492,-1.29868745803833
1772401997709329700,7.57232958984375,-0.5819000005722046,-0.9180874824523926,-1.454200029373169
1772401997729387300,7.59238720703125,-0.6052749752998352,-0.9532874822616577,-1.29868745803833
1772401997749444400,7.6124443359375,-0.7852625250816345,-0.9362375140190125,-1.013100028038025
1772401997769502000,7.632501953125,-0.8864625096321106,-0.7731624841690063,-0.8458999991416931
1772401997789559600,7.6525595703125,-0.8812375068664551,-0.3844499886035919,-0.6744375228881836
1772401997809616600,7.67261669921875,-0.9824374914169312,-0.09679999947547913,-0.5774999856948853
1772401997829674200,7.69267431640625,-0.9611250162124634,0.018287500366568565,-0.5838249921798706
1772401997849731600,7.712731689453125,-0.8321499824523926,-0.05197500064969063,-0.5189250111579895
1772401997869789000,7.732788818359375,-0.7480000257492065,-0.09253749996423721,-0.2525874972343445
1772401997889846500,7.752846435546875,-0.6191624999046326,-0.015812499448657036,0.15015000104904175
1772401997909904000,7.77290380859375,-0.7107374668121338,0.16637499630451202,0.42707499861717224
1772401997929961500,7.79296142578125,-0.9312874674797058,0.5103999972343445,0.39943748712539673
1772401997950018800,7.813018798828125,-1.1251624822616577,0.7650499939918518,0.12347500026226044
1772401997970076200,7.833076171875,-1.0708500146865845,0.8694124817848206,-0.10876250267028809
1772401997990133500,7.853133544921875,-0.6021124720573425,0.8321499824523926,-0.007562499959021807
1772401998010190800,7.87319091796875,-0.022549999877810478,0.3400374948978424,0.5101249814033508
1772401998030248400,7.89324853515625,0.4652999937534332,-0.04028749838471413,1.373075008392334
1772401998050306000,7.91330615234375,0.3129499852657318,0.09391249716281891,1.890762448310852
1772401998070363400,7.93336328125,-0.059950001537799835,0.47107499837875366,1.400712490081787
1772401998090420700,7.953420654296875,-0.1685750037431717,0.6180624961853027,0.3909125030040741
1772401998110478000,7.97347802734375,0.0019249999895691872,0.42625001072883606,-0.19607499241828918
1772401998130535400,7.993535400390625,0.23416249454021454,0.11948750168085098,-0.23237499594688416
1772401998150593000,8.013593017578126,0.3438875079154968,0.004399999976158142,-0.08002500236034393
1772401998170650400,8.033650390625,0.22453749179840088,0.2217874974012375,-0.2451625019311905
1772401998190707700,8.053707763671875,0.1648624986410141,0.6797999739646912,-0.08744999766349792
1772401998210765000,8.07376513671875,0.2096875011920929,0.9322500228881836,0.4302375018596649
1772401998230822700,8.09382275390625,0.23100000619888306,0.8438374996185303,0.8542875051498413
1772401998250879700,8.113879638671875,0.19359999895095825,0.6670125126838684,0.9862874746322632
1772401998270937300,8.133937255859376,0.16706250607967377,0.3111625015735626,0.9171249866485596
1772401998290994700,8.15399462890625,0.15097500383853912,0.07369999587535858,0.7488250136375427
1772401998311052000,8.174052001953125,0.3279374837875366,-0.08717499673366547,0.1671999990940094
1772401998331109400,8.194109375,0.4460499882698059,-0.2139499932527542,-0.4357374906539917
1772401998351167000,8.2141669921875,0.2927374839782715,-0.1266375035047531,-0.608299970626831
1772401998371224300,8.234224365234375,0.10848750174045563,0.07369999587535858,-0.3750999867916107
1772401998391281700,8.25428173828125,0.05197500064969063,-0.04028749838471413,-0.016087500378489494
1772401998411339300,8.27433935546875,-0.023649999871850014,-0.11275000125169754,0.1671999990940094
1772401998431396400,8.294396240234375,-0.10353749990463257,0.36877501010894775,0.19373749196529388
1772401998451454000,8.314453857421874,-0.007699999958276749,0.7235249876976013,0.1564749926328659
1772401998471511300,8.33451123046875,0.334262490272522,0.5467000007629395,0.23746250569820404
1772401998491568600,8.354568603515625,0.8178499937057495,-0.7475875020027161,0.3844499886035919
1772401998511626000,8.3746259765625,0.7827875018119812,-1.841675043106079,0.6806250214576721
1772401998531683600,8.39468359375,0.2063875049352646,-1.2515250444412231,0.7625749707221985
1772401998551741000,8.414740966796876,-0.2825624942779541,-0.1872749924659729,0.28325000405311584
1772401998571798300,8.43479833984375,-0.762987494468689,0.9248250126838684,-0.23553749918937683
1772401998591855600,8.454855712890625,-0.8119375109672546,1.2071125507354736,-0.5487625002861023
1772401998611913200,8.474913330078126,-0.6106374859809875,0.4805625081062317,-0.7606499791145325
1772401998631970300,8.49497021484375,-0.3091000020503998,-0.5101249814033508,-0.8171625137329102
1772401998652028000,8.51502783203125,-0.07590000331401825,-0.9788625240325928,-0.7947499752044678
1772401998672085200,8.535085205078126,-0.011962499469518661,-0.941462516784668,-0.7469000220298767
1772401998692142300,8.555142333984374,0.04028749838471413,-0.8254125118255615,-0.7766000032424927
1772401998712200000,8.575199951171875,0.1915374994277954,-0.7977749705314636,-0.7596874833106995
1772401998732257300,8.59525732421875,0.2639999985694885,-0.7636749744415283,-0.6584874987602234
1772401998752314600,8.615314697265624,0.19263750314712524,-0.636900007724762,-0.6839249730110168
1772401998772372000,8.6353720703125,0.10518749803304672,-0.5889124870300293,-0.744700014591217
1772401998792429300,8.65542919921875,0.038087498396635056,-0.5484874844551086,-0.736175000667572
1772401998812486700,8.675486572265624,-0.04179999977350235,-0.4589749872684479,-0.8373749852180481
1772401998832544000,8.6955439453125,-0.07479999959468842,-0.4259749948978424,-0.8597875237464905
1772401998852601300,8.715601318359376,-0.08868750184774399,-0.39077499508857727,-0.6786999702453613
1772401998872659000,8.735658935546875,-0.12484999746084213,-0.296037495136261,-0.5422999858856201
1772401998892716000,8.755716064453125,-0.09501250088214874,-0.3012624979019165,-0.4081000089645386
1772401998912773600,8.775773681640626,-0.09501250088214874,-0.23526249825954437,-0.10656250268220901
1772401998932830700,8.795830810546875,-0.19841249287128448,-0.07328750193119049,0.10752499848604202
1772401998952888000,8.81588818359375,-0.3474625051021576,0.08538749814033508,0.09473749995231628
1772401998972945700,8.835945556640626,-0.36451250314712524,0.24832500517368317,0.10326249897480011
1772401998993003000,8.8560029296875,-0.24529999494552612,0.2303124964237213,0.258774995803833
1772401999013060000,8.87606005859375,-0.2217874974012375,0.08744999766349792,0.5378999710083008
1772401999033117700,8.89611767578125,-0.5190625190734863,0.10023749619722366,0.6550499796867371
1772401999053175000,8.916175048828125,-0.9344499707221985,0.2750000059604645,0.34402498602867126
1772401999073232400,8.936232421875,-0.8151000142097473,0.5467000007629395,-0.05871250107884407
1772401999093289700,8.956289794921876,-0.23567499220371246,0.8086374998092651,0.15441249310970306
1772401999113347000,8.97634716796875,0.04661250114440918,0.6180624961853027,0.6699000000953674
1772401999133404400,8.996404296875,-0.06407500058412552,0.3623124957084656,0.9777625203132629
1772401999153461800,9.016461669921876,-0.0034374999813735485,0.36451250314712524,0.8969125151634216
1772401999173519000,9.03651904296875,0.15097500383853912,0.5902875065803528,0.6380000114440918
1772401999193576400,9.056576416015625,0.1722874939441681,0.5999125242233276,0.19483749568462372
1772401999213633800,9.0766337890625,0.1340624988079071,0.1802625060081482,-0.005362499970942736
1772401999233691100,9.096691162109375,0.22990000247955322,0.027912499383091927,0.18947499990463257
1772401999253748500,9.11674853515625,0.40562498569488525,0.18232500553131104,0.3918749988079071
1772401999273805800,9.136805908203126,0.42803749442100525,0.3409999907016754,0.4057624936103821
1772401999293863400,9.156863525390625,0.30332499742507935,0.523187518119812,0.18205000460147858
1772401999313920500,9.17692041015625,0.2714250087738037,0.6297500133514404,0.13626250624656677
1772401999333978000,9.19697802734375,0.23952500522136688,0.689424991607666,0.4739624857902527
1772401999354035200,9.21703515625,0.19263750314712524,0.5561875104904175,0.692312479019165
1772401999374092500,9.237092529296875,0.16279999911785126,0.35708749294281006,0.599637508392334
1772401999394150100,9.257150146484374,0.2554749846458435,-0.012649999931454659,0.3482874929904938
1772401999414207200,9.277207275390625,0.4035624861717224,-0.3385249972343445,0.18314999341964722
1772401999434264600,9.2972646484375,0.3971000015735626,-0.4100250005722046,0.027637500315904617
1772401999454322000,9.317322021484374,0.28737500309944153,-0.35983750224113464,-0.26633748412132263
1772401999474379300,9.337379150390625,0.1264999955892563,-0.043449997901916504,-0.45182499289512634
1772401999494436600,9.3574365234375,0.06159999966621399,0.040699999779462814,-0.5178250074386597
1772401999514494000,9.377493896484374,0.0008249999955296516,-0.2512125074863434,-0.3185875117778778
1772401999534551300,9.39755126953125,-0.2079000025987625,-0.22357499599456787,-0.17902499437332153
1772401999554608600,9.417608642578125,-0.2623499929904938,0.11948750168085098,-0.25148749351501465
1772401999574666000,9.437666015625,-0.042899999767541885,0.22921249270439148,-0.24296249449253082
1772401999594723300,9.457723388671875,0.13722500205039978,0.042762499302625656,-0.03946249932050705
1772401999614780700,9.47778076171875,0.22990000247955322,0.1652749925851822,0.3119874894618988
1772401999634837800,9.497837646484374,0.38005000352859497,0.19085000455379486,0.6177874803543091
1772401999654895000,9.51789501953125,0.526075005531311,-0.19580000638961792,0.6646749973297119
1772401999674952400,9.537952392578125,0.62933748960495,-0.35667499899864197,0.6667374968528748
1772401999695009800,9.558009765625,0.37152498960494995,-0.5132874846458435,0.7775624990463257
1772401999715067100,9.578067138671875,-0.3880249857902527,-0.6965749859809875,0.03189999982714653
1772401999735124500,9.59812451171875,-1.0634249448776245,1.1857999563217163,-0.5189250111579895
1772401999755181600,9.618181640625,-0.6393749713897705,2.630237579345703,-0.44110000133514404
1772401999775239200,9.6382392578125,-0.015124999918043613,1.8643624782562256,-0.16513749957084656
1772401999795296500,9.658296630859375,0.20748749375343323,-0.19580000638961792,0.2704625129699707
1772401999815353900,9.678353759765624,0.008249999955296516,-1.355887532234192,0.18314999341964722
1772401999835411000,9.698410888671875,-0.055687498301267624,-1.041700005531311,-0.4314749836921692
1772401999855468300,9.71846826171875,0.03492499887943268,-0.31735000014305115,-0.8458999991416931
1772401999875525600,9.738525634765624,-0.014024999924004078,-0.10422500222921371,-0.7628499865531921
1772401999895583000,9.7585830078125,-0.22921249270439148,-0.23526249825954437,-0.46873748302459717
1772401999915640300,9.778640380859375,-0.37619999051094055,-0.32147499918937683,-0.4305124878883362
1772401999935697700,9.79869775390625,-0.35708749294281006,-0.32147499918937683,-0.7159624695777893
1772401999955755000,9.818755126953125,-0.2782999873161316,-0.40246251225471497,-0.9215250015258789
1772401999975812000,9.83881201171875,-0.30387499928474426,-0.5857499837875366,-0.8586875200271606
1772401999995869700,9.85886962890625,-0.2877874970436096,-0.64638751745224,-0.7799000144004822
1772402000015927000,9.878927001953125,-0.15895000100135803,-0.6795250177383423,-0.7020750045776367
1772402000035984100,9.898984130859375,-0.10243749618530273,-0.6517499685287476,-0.5050374865531921
1772402000056041500,9.91904150390625,-0.2868250012397766,-0.4057624936103821,-0.35378751158714294
1772402000076099000,9.93909912109375,-0.5669124722480774,-0.16926249861717224,-0.5124624967575073
1772402000096156200,9.95915625,-0.6458374857902527,-0.11591249704360962,-0.7660124897956848
1772402000116213500,9.979213623046874,-0.5040749907493591,-0.14258749783039093,-0.7691749930381775
1772402000136270800,9.999270751953125,-0.40287500619888306,-0.2022625058889389,-0.524150013923645
1772402000156328200,10.019328125,-0.3783999979496002,-0.22247499227523804,-0.08744999766349792
1772402000176385500,10.039385498046874,-0.3975124955177307,-0.2256374955177307,0.267300009727478
1772402000196442600,10.059442626953125,-0.4987125098705292,0.08648750185966492,0.3482874929904938
1772402000216500000,10.0795,-0.6723750233650208,0.6872249841690063,0.20762500166893005
1772402000236557300,10.099557373046874,-0.9185000061988831,1.188962459564209,0.23856249451637268
1772402000256614700,10.11961474609375,-1.148537516593933,1.4851374626159668,0.318450003862381
1772402000276672000,10.139672119140625,-1.2817749977111816,1.6172749996185303,0.281187504529953
1772402000296729300,10.159729248046874,-1.0782749652862549,0.7202249765396118,-0.04166249930858612
1772402000316786700,10.17978662109375,-0.3485625088214874,-0.14368750154972076,0.14368750154972076
1772402000336843800,10.19984375,0.07961250096559525,0.2761000096797943,0.940500020980835
1772402000356901000,10.219901123046874,0.04881250113248825,1.2508374452590942,1.5871624946594238
1772402000376958500,10.23995849609375,-0.14300000667572021,1.6022875308990479,1.4891250133514404
1772402000397015800,10.260015869140625,-0.43697500228881836,1.3029500246047974,0.5549499988555908
1772402000417073200,10.2800732421875,-0.5029749870300293,1.0505000352859497,-0.5039374828338623
1772402000437130200,10.300130126953125,-0.1237500011920929,0.7746750116348267,-0.866112470626831
1772402000457187800,10.320187744140625,0.26496249437332153,0.1919499933719635,-0.4879874885082245
1772402000477245200,10.3402451171875,0.5676000118255615,-0.1798499971628189,0.304562509059906
1772402000497302500,10.360302490234375,0.6708624958992004,-0.038224998861551285,0.7988749742507935
1772402000517359900,10.38035986328125,0.6144874691963196,0.1621125042438507,0.40039998292922974
1772402000537417200,10.400417236328124,0.5909749865531921,0.13337500393390656,0.17572499811649323
1772402000557474300,10.420474365234375,0.48977500200271606,0.06407500058412552,0.3429250121116638
1772402000577532000,10.440531982421875,0.4152500033378601,-0.10642500221729279,0.3492499887943268
1772402000597589000,10.460589111328124,0.30236250162124634,-0.3119874894618988,0.22261250019073486
1772402000617646300,10.480646240234375,0.3396250009536743,-0.3577750027179718,0.1671999990940094
1772402000637703700,10.50070361328125,0.6165499687194824,-0.3162499964237213,0.48454999923706055
1772402000657761000,10.520760986328124,0.6623374819755554,-0.3844499886035919,0.28751251101493835
1772402000677818400,10.540818359375,0.46736249327659607,-0.305525004863739,-0.11192499846220016
1772402000697875700,10.560875732421875,0.2947999835014343,-0.09459999948740005,-0.7489625215530396
