time,seconds_elapsed,z,y,x
1772401990267930600,0.1309306640625,5.263050079345703,-5.575050354003906,2.139000177383423
1772401990287988500,0.150988525390625,5.679000377655029,-5.589000225067139,1.7040001153945923
1772401990308046600,0.171046630859375,5.9760003089904785,-5.685000419616699,1.2820500135421753
1772401990328104400,0.1911044921875,6.153000354766846,-5.509950160980225,1.4860501289367676
1772401990348162300,0.211162353515625,6.568050384521484,-5.365950107574463,2.308950185775757
1772401990368220200,0.23122021484375,7.4320502281188965,-5.48805046081543,3.085050106048584
1772401990388278300,0.2512783203125,8.157000541687012,-5.662950038909912,3.4609501361846924
1772401990408336100,0.271336181640625,8.619000434875488,-6.106050491333008,3.375000238418579
1772401990428394000,0.29139404296875,9.184050559997559,-6.469950199127197,3.432000160217285
1772401990448452000,0.3114521484375,8.782050132751465,-6.577950477600098,4.170000076293945
1772401990468509700,0.331509765625,7.683000564575195,-7.23900032043457,5.635050296783447
1772401990488567800,0.35156787109375,7.870050430297852,-8.257950782775879,7.491000175476074
1772401990508625700,0.371625732421875,9.028950691223145,-9.53700065612793,8.379000663757324
1772401990528683500,0.39168359375,10.234950065612793,-11.709000587463379,6.055950164794922
1772401990548741400,0.411741455078125,9.502950668334961,-12.748050689697266,1.3920000791549683
1772401990568799200,0.43179931640625,5.422950267791748,-12.532050132751465,-1.5229500532150269
1772401990588857000,0.451857177734375,1.4029500484466553,-10.966050148010254,-2.4370501041412354
1772401990608915200,0.471915283203125,0.10605000704526901,-9.136950492858887,-1.7449500560760498
1772401990628973000,0.49197314453125,0.8050500154495239,-7.768050193786621,-0.20805001258850098
1772401990649031000,0.512031005859375,2.4160501956939697,-7.267050266265869,1.002000093460083
1772401990669089000,0.532089111328125,3.9910502433776855,-7.528050422668457,0.9810000658035278
1772401990689146600,0.552146728515625,5.397000312805176,-7.6620001792907715,0.906000018119812
1772401990709204700,0.572204833984375,5.607000350952148,-7.854000568389893,1.0410000085830688
1772401990729262600,0.5922626953125,5.416050434112549,-7.6650004386901855,1.1269500255584717
1772401990749320400,0.612320556640625,5.767950057983398,-7.228950500488281,1.171950101852417
1772401990769378300,0.63237841796875,6.0769500732421875,-6.922950267791748,1.0690500736236572
1772401990789436200,0.652436279296875,6.217950344085693,-6.592050075531006,1.4140501022338867
1772401990809494000,0.672493896484375,6.370950222015381,-6.208950519561768,2.359950065612793
1772401990829552000,0.69255224609375,6.013950347900391,-5.587050437927246,3.1620001792907715
1772401990849609700,0.712609619140625,5.425050258636475,-5.260950088500977,3.1429500579833984
1772401990869667600,0.73266748046875,5.647950172424316,-5.4120001792907715,2.9419500827789307
1772401990889725700,0.7527255859375,6.793050289154053,-5.742000102996826,2.9539501667022705
1772401990909783600,0.772783447265625,7.827000141143799,-5.803950309753418,2.8429501056671143
1772401990929841400,0.79284130859375,8.497050285339355,-5.503050327301025,2.760000228881836
1772401990949899300,0.812899169921875,8.593050003051758,-5.041050434112549,2.9629502296447754
1772401990969957000,0.83295703125,7.819950580596924,-4.6650004386901855,3.2500500679016113
1772401990990015000,0.853014892578125,7.486950397491455,-4.849050045013428,3.235950231552124
1772401991010072800,0.87307275390625,7.65000057220459,-5.563050270080566,2.5699501037597656
1772401991030130700,0.893130615234375,7.654050350189209,-5.938050270080566,2.2639501094818115
1772401991050188500,0.9131884765625,7.990050315856934,-6.183000087738037,2.2980000972747803
1772401991070246700,0.93324658203125,8.659950256347656,-6.144000053405762,2.3140501976013184
1772401991090304500,0.953304443359375,8.890050888061523,-5.644050121307373,2.794950246810913
1772401991110362400,0.9733623046875,8.770050048828125,-5.467050075531006,4.699050426483154
1772401991130420200,0.993420166015625,8.722050666809082,-6.037050247192383,6.862950325012207
1772401991150478000,1.01347802734375,9.36405086517334,-8.979000091552734,7.531050205230713
1772401991170536000,1.033535888671875,10.087050437927246,-12.408000946044922,6.432000160217285
1772401991190593800,1.05359375,12.274950981140137,-13.30095100402832,4.372950077056885
1772401991210651600,1.073651611328125,13.731000900268555,-12.80505084991455,2.379000186920166
1772401991230709500,1.09370947265625,11.593050956726074,-11.758950233459473,1.918950080871582
1772401991250767400,1.113767333984375,8.050050735473633,-10.38900089263916,1.8259501457214355
1772401991270825200,1.1338251953125,6.472050189971924,-8.955000877380371,2.239950180053711
1772401991290883000,1.153883056640625,6.144000053405762,-7.678950309753418,0.7720500230789185
1772401991310941000,1.17394091796875,6.370950222015381,-6.4800004959106445,-0.7710000276565552
1772401991330998800,1.193998779296875,6.199050426483154,-5.377950191497803,-1.4269500970840454
1772401991351056600,1.214056640625,5.088000297546387,-4.986000061035156,-1.6279500722885132
1772401991371114500,1.234114501953125,3.7830002307891846,-4.681950092315674,-1.4959501028060913
1772401991391172000,1.254172119140625,3.204000234603882,-4.603050231933594,-1.281000018119812
1772401991411230200,1.274230224609375,2.782050132751465,-4.425000190734863,-0.5119500160217285
1772401991431287800,1.294287841796875,2.2480502128601074,-4.42995023727417,0.6049500107765198
1772401991451346000,1.314345947265625,1.7790000438690186,-4.14300012588501,2.1130499839782715
1772401991471403800,1.33440380859375,1.2330000400543213,-4.042050361633301,3.207000255584717
1772401991491461600,1.354461669921875,1.2829500436782837,-4.198050022125244,3.68595027923584
1772401991511519500,1.37451953125,2.800950050354004,-4.300950050354004,3.7510502338409424
1772401991531577300,1.394577392578125,6.19605016708374,-4.288949966430664,4.363950252532959
1772401991551635200,1.41463525390625,8.731950759887695,-4.3560004234313965,4.866000175476074
1772401991571693000,1.434693115234375,9.76395034790039,-4.830000400543213,4.617000102996826
1772401991591751000,1.4547509765625,10.492050170898438,-5.3710503578186035,3.885000228881836
1772401991611808800,1.474808837890625,10.94895076751709,-5.797050476074219,2.946000099182129
1772401991631866600,1.49486669921875,11.20305061340332,-6.100950241088867,1.8349500894546509
1772401991651924500,1.514924560546875,11.356050491333008,-6.337950229644775,0.34095001220703125
1772401991671982300,1.534982421875,10.534950256347656,-5.986050128936768,-0.5389500260353088
1772401991692040200,1.555040283203125,9.985950469970703,-4.938000202178955,1.0309500694274902
1772401991712098000,1.57509814453125,10.279050827026367,-5.773050308227539,3.2790000438690186
1772401991732156000,1.595156005859375,10.144050598144531,-6.625950336456299,4.600950241088867
1772401991752213800,1.6152138671875,10.73805046081543,-8.821050643920898,7.510050296783447
1772401991772271600,1.635271728515625,12.58905029296875,-10.576050758361816,8.812050819396973
1772401991792329500,1.65532958984375,11.82300090789795,-11.232000350952148,3.9280502796173096
1772401991812387300,1.67538720703125,6.6820502281188965,-11.581950187683105,0.5350500345230103
1772401991832445000,1.69544482421875,1.3650000095367432,-11.053050994873047,-0.9220500588417053
1772401991852502800,1.715502685546875,0.20595000684261322,-10.111950874328613,-0.19095000624656677
1772401991872561000,1.735560791015625,2.8590002059936523,-9.028950691223145,1.1430000066757202
1772401991892618500,1.755618408203125,5.289000034332275,-7.783950328826904,1.5940500497817993
1772401991912676600,1.775676513671875,5.842050075531006,-6.730950355529785,1.3950001001358032
1772401991932734200,1.795734130859375,4.840950012207031,-5.686950206756592,1.4929500818252563
1772401991952792000,1.8157919921875,3.9340500831604004,-4.630950450897217,1.6219500303268433
1772401991972850000,1.835849853515625,3.8430001735687256,-3.742950201034546,1.4620500802993774
1772401991992907800,1.85590771484375,4.153950214385986,-3.175950050354004,1.327950119972229
1772401992012965600,1.875965576171875,4.6780500411987305,-3.1440000534057617,0.8629500269889832
1772401992033023500,1.8960234375,6.402000427246094,-3.901050090789795,0.15900000929832458
1772401992053081300,1.916081298828125,8.638050079345703,-4.5859503746032715,-0.12000000476837158
1772401992073139200,1.93613916015625,9.771000862121582,-4.701000213623047,0
1772401992093197000,1.956197021484375,10.486950874328613,-4.597949981689453,0.492000013589859
1772401992113255000,1.9762548828125,11.035050392150879,-4.23105001449585,1.5649501085281372
1772401992133312800,1.996312744140625,10.516050338745117,-3.9469501972198486,2.5249500274658203
1772401992153370400,2.016370361328125,10.065000534057617,-4.321950435638428,2.9440500736236572
1772401992173428500,2.036428466796875,10.779000282287598,-4.8349504470825195,2.8219501972198486
1772401992193486000,2.056486083984375,11.418000221252441,-4.962000370025635,3.0949501991271973
1772401992213544000,2.0765439453125,11.164050102233887,-4.828050136566162,3.6070501804351807
1772401992233601800,2.096601806640625,11.3100004196167,-4.582950115203857,3.6979501247406006
1772401992253659400,2.116659423828125,10.72095012664795,-4.698000431060791,4.126950263977051
1772401992273717500,2.136717529296875,9.148050308227539,-6.244950294494629,4.974000453948975
1772401992293775000,2.156775146484375,8.409000396728516,-7.45395040512085,5.773950099945068
1772401992313833000,2.1768330078125,8.290950775146484,-10.09005069732666,7.69605016708374
1772401992333890800,2.196890869140625,9.505050659179688,-11.313000679016113,6.2310004234313965
1772401992353948400,2.216948486328125,11.289000511169434,-11.584050178527832,3.724050283432007
1772401992374006500,2.237006591796875,10.70895004272461,-10.849050521850586,2.3430001735687256
1772401992394064100,2.257064208984375,8.701050758361816,-9.814950942993164,1.6459500789642334
1772401992414122000,2.2771220703125,8.230950355529785,-8.871000289916992,0.9760500192642212
1772401992434179800,2.297179931640625,8.317950248718262,-7.839000225067139,0.05700000375509262
1772401992454238000,2.317238037109375,8.81100082397461,-6.499050140380859,-0.6559500098228455
1772401992474295600,2.337295654296875,9.211050033569336,-5.617950439453125,-1.0990500450134277
1772401992494353400,2.357353515625,8.241000175476074,-5.329950332641602,-1.7190001010894775
1772401992514411300,2.377411376953125,5.878050327301025,-5.272950172424316,-2.180999994277954
1772401992534468900,2.39746875,3.781050205230713,-5.0809502601623535,-1.432050108909607
1772401992554526700,2.417526611328125,3.1050002574920654,-4.875,-0.025950001552700996
1772401992574584600,2.43758447265625,2.698050022125244,-4.633950233459473,1.1650500297546387
1772401992594642400,2.457642333984375,2.3869500160217285,-4.597949981689453,2.25
1772401992614700300,2.4777001953125,2.4469501972198486,-4.507050037384033,3.198000192642212
1772401992634758000,2.4977578125,2.365950107574463,-4.258049964904785,3.733950138092041
1772401992654815700,2.517815673828125,2.505000114440918,-3.5899500846862793,4.360949993133545
1772401992674873600,2.53787353515625,3.687000274658203,-2.983950138092041,5.070000171661377
1772401992694931200,2.55793115234375,6.390000343322754,-2.7300000190734863,5.341050148010254
1772401992714989000,2.577989013671875,8.682000160217285,-2.943000078201294,4.98900032043457
1772401992735047000,2.598046875,9.496050834655762,-2.806950092315674,4.045050144195557
1772401992755104800,2.618104736328125,9.871050834655762,-2.9070000648498535,2.9610002040863037
1772401992775162600,2.63816259765625,10.566000938415527,-3.2569501399993896,1.9480501413345337
1772401992795220200,2.65822021484375,11.026050567626953,-3.103950262069702,1.38795006275177
1772401992815278000,2.678278076171875,13.257000923156738,-1.6840500831604004,2.8789501190185547
1772401992835335700,2.698335693359375,16.852951049804688,-1.7220001220703125,5.4910502433776855
1772401992855393300,2.718393310546875,14.983050346374512,-4.738950252532959,5.170950412750244
1772401992875451100,2.738451171875,11.260050773620605,-7.4760003089904785,3.1500000953674316
1772401992895509000,2.758509033203125,9.92400074005127,-9.81195068359375,4.849950313568115
1772401992915566800,2.77856689453125,9.8860502243042,-12.087000846862793,5.263950347900391
1772401992935624700,2.798624755859375,8.092950820922852,-12.187050819396973,1.6530001163482666
1772401992955682600,2.8186826171875,3.3930001258850098,-11.373000144958496,-0.856950044631958
1772401992975740200,2.838740234375,1.2619500160217285,-10.480050086975098,-0.6180000305175781
1772401992995798000,2.858798095703125,2.8249502182006836,-9.77595043182373,1.1650500297546387
1772401993015855900,2.87885595703125,4.815000057220459,-8.803950309753418,2.02905011177063
1772401993035913500,2.89891357421875,6.285000324249268,-7.657950401306152,1.752000093460083
1772401993055971300,2.918971435546875,6.460050106048584,-6.015000343322754,1.8619500398635864
1772401993076029000,2.93902880859375,5.995050430297852,-4.509000301361084,2.6260502338409424
1772401993096086800,2.959086669921875,6.001950263977051,-3.532050132751465,3.352950096130371
1772401993116144600,2.97914453125,6.304050445556641,-3.112950086593628,3.166950225830078
1772401993136202500,2.999202392578125,6.141000270843506,-3.1969501972198486,2.142000198364258
1772401993156260000,3.019260009765625,5.955000400543213,-3.3360002040863037,1.696950078010559
1772401993176317700,3.039317626953125,6.366000175476074,-3.520050048828125,1.5430500507354736
1772401993196375600,3.05937548828125,7.453050136566162,-3.8869502544403076,0.9900000691413879
1772401993216433400,3.079433349609375,8.860950469970703,-3.931950092315674,1.0309500694274902
1772401993236491000,3.099490966796875,10.07295036315918,-3.630000114440918,1.1530500650405884
1772401993256548900,3.119548828125,10.413000106811523,-3.2119500637054443,1.3159500360488892
1772401993276606700,3.139606689453125,10.099050521850586,-2.814000129699707,2.0560500621795654
1772401993296664600,3.15966455078125,9.919050216674805,-2.746950149536133,2.668950080871582
1772401993316722200,3.17972216796875,10.372050285339355,-3.097050189971924,2.8000500202178955
1772401993336779800,3.19977978515625,10.611000061035156,-3.889050245285034,2.7840001583099365
1772401993356837600,3.219837646484375,10.051050186157227,-4.534950256347656,2.9029500484466553
1772401993376895200,3.239895263671875,9.687000274658203,-4.927950382232666,3.3319501876831055
1772401993396953000,3.259953125,9.907050132751465,-5.587050437927246,4.129050254821777
1772401993417011000,3.280010986328125,9.440999984741211,-8.212950706481934,5.419950485229492
1772401993437068500,3.300068603515625,9.160050392150879,-11.506950378417969,5.227950096130371
1772401993457126400,3.32012646484375,10.848000526428223,-13.1089506149292,3.183000087738037
1772401993477184000,3.34018408203125,12.409050941467285,-11.92905044555664,2.1660001277923584
1772401993497241900,3.360241943359375,11.989950180053711,-10.693050384521484,3.6289501190185547
1772401993517299200,3.38029931640625,10.087050437927246,-9.345000267028809,5.590050220489502
1772401993537357000,3.400357177734375,7.555950164794922,-8.251049995422363,6.484950542449951
1772401993557415000,3.420414794921875,7.303050518035889,-6.9970502853393555,5.673000335693359
1772401993577472800,3.44047265625,9.694050788879395,-6.403050422668457,3.66195011138916
1772401993597530400,3.4605302734375,11.533050537109375,-6.007950305938721,1.5100500583648682
1772401993617588200,3.480588134765625,11.380050659179688,-5.587050437927246,0.33705002069473267
1772401993637645800,3.500645751953125,9.201000213623047,-5.4810004234313965,-0.30900001525878906
1772401993657703400,3.520703369140625,6.364050388336182,-5.515050411224365,-0.8089500665664673
1772401993677761000,3.540760986328125,3.6660001277923584,-5.0809502601623535,-0.8400000333786011
1772401993697819000,3.56081884765625,1.8600001335144043,-4.465950012207031,-0.14595000445842743
1772401993717876500,3.58087646484375,1.1209501028060913,-3.9130501747131348,0.700950026512146
1772401993737934300,3.600934326171875,0.8020500540733337,-3.511050224304199,1.6489500999450684
1772401993757992200,3.6209921875,1.0969500541687012,-3.1710002422332764,2.371950149536133
1772401993778049800,3.6410498046875,1.6309500932693481,-3.1279501914978027,2.3020501136779785
1772401993798107400,3.661107421875,3.6919500827789307,-2.803950071334839,2.187000036239624
1772401993818165000,3.6811650390625,6.112950325012207,-2.01705002784729,2.1469500064849854
1772401993838222800,3.701222900390625,7.779000282287598,-1.579050064086914,2.776050090789795
1772401993858280400,3.721280517578125,9.691950798034668,-1.7610000371932983,3.5310001373291016
1772401993878338300,3.74133837890625,10.6399507522583,-2.697000026702881,3.715050220489502
1772401993898396000,3.76139599609375,10.153950691223145,-3.6979501247406006,3.214050054550171
1772401993918453500,3.78145361328125,10.1089506149292,-4.063950061798096,1.9000500440597534
1772401993938511000,3.801510986328125,10.723950386047363,-4.324950218200684,0.7600500583648682
1772401993958569000,3.82156884765625,11.095050811767578,-3.5490002632141113,0.9420000314712524
1772401993978626600,3.84162646484375,11.004000663757324,-2.4840002059936523,1.894950032234192
1772401993998684400,3.861684326171875,9.943050384521484,-3.4579501152038574,5.299950122833252
1772401994018742000,3.881741943359375,7.798050403594971,-6.625950336456299,7.504950523376465
1772401994038800000,3.9017998046875,7.756950378417969,-10.32705020904541,9.157050132751465
1772401994058857500,3.921857421875,12.712950706481934,-11.34000015258789,6.609000205993652
1772401994078915000,3.9419150390625,13.672950744628906,-11.778000831604004,0.753000020980835
1772401994098972700,3.96197265625,8.595000267028809,-11.95995044708252,-0.7350000143051147
1772401994119030300,3.9820302734375,4.381950378417969,-9.81705093383789,0.18105000257492065
1772401994139088100,4.002088134765625,4.449000358581543,-8.365950584411621,2.197050094604492
1772401994159146000,4.02214599609375,6.093000411987305,-7.677000522613525,2.578050136566162
1772401994179203600,4.04220361328125,7.2709503173828125,-6.553950309753418,2.199000120162964
1772401994199261200,4.06226123046875,7.369950294494629,-5.400000095367432,2.0749499797821045
1772401994219318800,4.08231884765625,6.867000102996826,-4.545000076293945,2.2300500869750977
1772401994239376400,4.10237646484375,6.736950397491455,-3.6880502700805664,2.6760001182556152
1772401994259434000,4.12243408203125,6.136950492858887,-3.24495005607605,2.3310000896453857
1772401994279491800,4.142491943359375,5.526000499725342,-3.1210501194000244,1.4760000705718994
1772401994299549400,4.162549560546875,6.013950347900391,-3.2089500427246094,1.0069500207901
1772401994319607300,4.182607177734375,7.132950305938721,-3.532050132751465,0.6649500131607056
1772401994339664600,4.20266455078125,7.812000274658203,-3.3259501457214355,0.6499500274658203
1772401994359722200,4.22272216796875,8.329950332641602,-2.7400500774383545,0.5740500092506409
1772401994379780000,4.242780029296875,8.962050437927246,-2.4000000953674316,0.4900500178337097
1772401994399837700,4.262837646484375,9.678000450134277,-2.2489500045776367,1.3090500831604004
1772401994419895600,4.2828955078125,9.859950065612793,-2.5410001277923584,1.858950138092041
1772401994439953200,4.302953125,10.006050109863281,-3.1300501823425293,1.6990500688552856
1772401994460010800,4.3230107421875,10.414950370788574,-3.598950147628784,1.7730001211166382
1772401994480068400,4.343068359375,10.45995044708252,-3.9300003051757812,1.8979500532150269
1772401994500126000,4.3631259765625,10.116000175476074,-4.102050304412842,2.257050037384033
1772401994520183600,4.38318359375,10.152000427246094,-3.8770501613616943,2.556000232696533
1772401994540241400,4.403241455078125,10.269000053405762,-4.854000091552734,3.214050054550171
1772401994560299000,4.423299072265625,10.402950286865234,-6.9370503425598145,3.2719502449035645
1772401994580356600,4.443356689453125,11.374950408935547,-8.754000663757324,3.4080002307891846
1772401994600414000,4.4634140625,11.815950393676758,-11.584050178527832,3.7009501457214355
1772401994620471800,4.483471923828125,12.58905029296875,-11.730000495910645,2.311950206756592
1772401994640529400,4.503529296875,13.563000679016113,-10.7920503616333,2.4529500007629395
1772401994660587000,4.5235869140625,12.558000564575195,-9.664050102233887,3.802950143814087
1772401994680644600,4.54364453125,9.175050735473633,-8.254050254821777,5.221050262451172
1772401994700702200,4.5637021484375,6.642000198364258,-6.811950206756592,4.360949993133545
1772401994720759800,4.583759765625,6.4170002937316895,-5.529000282287598,2.0269501209259033
1772401994740817400,4.6038173828125,8.410950660705566,-4.375050067901611,0.9420000314712524
1772401994760875300,4.623875244140625,10.671000480651855,-3.3889501094818115,1.3159500360488892
1772401994780932600,4.6439326171875,10.810050964355469,-3.3360002040863037,1.5240000486373901
1772401994800990200,4.663990234375,8.848950386047363,-3.6780002117156982,1.27305006980896
1772401994821048000,4.684048095703125,6.28695011138916,-4.128000259399414,0.8040000200271606
1772401994841105700,4.704105712890625,4.044000148773193,-4.3030500411987305,0.6670500040054321
1772401994861163300,4.724163330078125,2.3179500102996826,-3.9900002479553223,1.141050100326538
1772401994881220900,4.744220947265625,1.0200001001358032,-3.5970001220703125,1.7640000581741333
1772401994901278500,4.764278564453125,0.4429500102996826,-3.460050106048584,2.0440499782562256
1772401994921336000,4.784336181640625,0.742050051689148,-3.5400002002716064,1.8550500869750977
1772401994941393700,4.8043935546875,2.2990500926971436,-3.3480000495910645,1.7850000858306885
1772401994961451300,4.824451171875,4.801050186157227,-2.8810501098632812,2.2380001544952393
1772401994981508900,4.8445087890625,7.647000312805176,-2.244000196456909,3.4489500522613525
1772401995001566700,4.864566650390625,9.473999977111816,-1.7680500745773315,4.438050270080566
1772401995021624000,4.8846240234375,9.61305046081543,-1.6699501276016235,4.564949989318848
1772401995041681700,4.904681640625,10.018050193786621,-2.2390501499176025,4.051949977874756
1772401995061739300,4.9247392578125,11.22195053100586,-3.0799500942230225,2.8000500202178955
1772401995081796900,4.944796875,12.780000686645508,-3.1560001373291016,0.9619500637054443
1772401995101854500,4.9648544921875,14.092050552368164,-1.749000072479248,0.7170000076293945
1772401995121912000,4.984912109375,15.973950386047363,1.6570501327514648,4.063950061798096
1772401995141969700,5.0049697265625,14.274001121520996,1.2960000038146973,6.0010504722595215
1772401995162027300,5.02502734375,6.985950469970703,-3.3889501094818115,4.15500020980835
1772401995182084900,5.0450849609375,1.7260501384735107,-9.930000305175781,6.406050205230713
1772401995202142200,5.06514208984375,5.017950057983398,-14.383050918579102,9.219000816345215
1772401995222199800,5.08519970703125,14.674050331115723,-13.791000366210938,4.41195011138916
1772401995242257400,5.10525732421875,14.647951126098633,-12.598950386047363,-0.8860500454902649
1772401995262315300,5.125315185546875,8.76300048828125,-12.409950256347656,-0.11700000613927841
1772401995282372600,5.14537255859375,4.72605037689209,-10.188000679016113,1.1290500164031982
1772401995302430200,5.16543017578125,4.105950355529785,-8.11500072479248,2.5420501232147217
1772401995322487800,5.18548779296875,5.574000358581543,-6.77400016784668,2.095950126647949
1772401995342545400,5.20554541015625,7.429050445556641,-5.838000297546387,1.5670500993728638
1772401995362603000,5.22560302734375,7.81695032119751,-4.729050159454346,1.7830500602722168
1772401995382660400,5.245660400390625,7.0819501876831055,-3.781050205230713,1.8690000772476196
1772401995402718000,5.265718017578125,6.66795015335083,-2.943000078201294,2.0490000247955322
1772401995422775600,5.285775634765625,6.304050445556641,-2.455050230026245,1.6630500555038452
1772401995442833400,5.30583349609375,6.385950088500977,-2.4240000247955322,0.8869500160217285
1772401995462890800,5.325890869140625,7.2210001945495605,-2.3419501781463623,0.736050009727478
1772401995482948400,5.3459482421875,8.212050437927246,-2.139000177383423,0.35100001096725464
1772401995503006000,5.366005859375,9.031050682067871,-2.074050188064575,0.04200000315904617
1772401995523063600,5.3860634765625,9.655950546264648,-1.4710500240325928,0.6499500274658203
1772401995543121200,5.40612109375,9.673050880432129,-1.0780500173568726,1.4500501155853271
1772401995563178800,5.4261787109375,9.378000259399414,-1.5070500373840332,1.7370001077651978
1772401995583236000,5.446236083984375,10.056000709533691,-2.2300500869750977,1.9069501161575317
1772401995603293700,5.466293701171875,11.368050575256348,-3.0580501556396484,1.9579501152038574
1772401995623351300,5.486351318359375,11.950050354003906,-3.901050090789795,1.5910500288009644
1772401995643409000,5.506408935546875,11.988000869750977,-4.183950424194336,1.5889500379562378
1772401995663466200,5.52646630859375,12.189000129699707,-3.9130501747131348,2.3910000324249268
1772401995683523800,5.54652392578125,12.424050331115723,-2.8980002403259277,2.8429501056671143
1772401995703581400,5.56658154296875,12.567000389099121,-2.1409502029418945,2.4630000591278076
1772401995723639000,5.58663916015625,12.168000221252441,-3.223050117492676,3.2119500637054443
1772401995743696600,5.606696533203125,11.136000633239746,-5.983950138092041,4.230000019073486
1772401995763754000,5.62675390625,9.891000747680664,-11.0910005569458,4.729950428009033
1772401995783811600,5.6468115234375,11.028000831604004,-11.242050170898438,1.7179501056671143
1772401995803869400,5.666869384765625,13.396050453186035,-9.618000030517578,1.6630500555038452
1772401995823926800,5.6869267578125,13.458000183105469,-9.48705005645752,1.5310500860214233
1772401995843984100,5.706984130859375,11.0110502243042,-8.779950141906738,1.2780001163482666
1772401995864041700,5.727041748046875,7.449000358581543,-6.859950542449951,1.5910500288009644
1772401995884099300,5.747099365234375,5.125950336456299,-4.990050315856934,1.2580500841140747
1772401995904157000,5.767156982421875,4.6210503578186035,-3.8749501705169678,0.037050001323223114
1772401995924214300,5.78721435546875,5.812950134277344,-3.0510001182556152,-1.3380000591278076
1772401995944272000,5.80727197265625,8.506950378417969,-2.07705020904541,-2.3560500144958496
1772401995964329500,5.82732958984375,12.582000732421875,-2.7139501571655273,-0.9409500360488892
1772401995984387000,5.847386962890625,13.10400104522705,-2.7210001945495605,0.6739500164985657
1772401996004444400,5.8674443359375,9.417000770568848,-2.7930002212524414,0.9589500427246094
1772401996024502000,5.887501953125,4.8319501876831055,-2.8309500217437744,0.7630500197410583
1772401996044559600,5.9075595703125,1.7290500402450562,-2.995950222015381,1.0170000791549683
1772401996064617200,5.9276171875,1.0300500392913818,-2.9509501457214355,1.7130000591278076
1772401996084674600,5.947674560546875,1.606950044631958,-2.467050075531006,2.278050184249878
1772401996104732200,5.967732177734375,3.1080000400543213,-2.31600022315979,2.6020500659942627
1772401996124789800,5.987789794921875,5.236050128936768,-1.8610501289367676,2.7430500984191895
1772401996144847000,6.00784716796875,7.525050163269043,-1.7269500494003296,3.1279501914978027
1772401996164904700,6.02790478515625,9.157950401306152,-1.9590001106262207,3.4609501361846924
1772401996184962300,6.04796240234375,9.907050132751465,-1.9330500364303589,3.186000108718872
1772401996205020000,6.06802001953125,10.504050254821777,-2.0460000038146973,2.39805006980896
1772401996225077200,6.0880771484375,11.260050773620605,-2.1630001068115234,1.366050124168396
1772401996245134600,6.108134521484375,11.920950889587402,-3.3409502506256104,-0.010050000622868538
1772401996265192200,6.128192138671875,12.472050666809082,-6.022050380706787,0.7800000309944153
1772401996285249800,6.148249755859375,13.803000450134277,-7.549950122833252,4.443000316619873
1772401996305307100,6.16830712890625,15.736950874328613,-6.930000305175781,5.475000381469727
1772401996325364700,6.18836474609375,18.385051727294922,-8.341950416564941,5.143950462341309
1772401996345422300,6.20842236328125,12.460050582885742,-8.484000205993652,3.30495023727417
1772401996365479700,6.228479736328125,5.14995002746582,-7.722000598907471,1.9099501371383667
1772401996385537300,6.248537353515625,4.300050258636475,-7.573950290679932,1.3540500402450562
1772401996405594600,6.2685947265625,7.437000274658203,-8.449950218200684,1.6200001239776611
1772401996425652200,6.28865234375,9.217950820922852,-7.969050407409668,1.5100500583648682
1772401996445709800,6.308709716796875,8.266950607299805,-6.3409504890441895,1.0049999952316284
1772401996465767200,6.32876708984375,6.441000461578369,-4.674000263214111,0.6049500107765198
1772401996485824800,6.34882470703125,5.776950359344482,-3.283050060272217,0.7150500416755676
1772401996505882400,6.36888232421875,6.295050144195557,-2.6110501289367676,1.01895010471344
1772401996525939500,6.388939453125,6.547950267791748,-2.3449501991271973,0.7249500155448914
1772401996545997000,6.4089970703125,6.364050388336182,-2.1820499897003174,0.28200000524520874
1772401996566054700,6.4290546875,6.048000335693359,-1.8199501037597656,-0.09600000083446503
1772401996586112000,6.449112060546875,6.31095027923584,-1.6030501127243042,-0.23895001411437988
1772401996606169600,6.469169677734375,7.183050155639648,-1.4130001068115234,-0.06495000422000885
1772401996626227000,6.48922705078125,7.843950271606445,-1.0849500894546509,0.44700002670288086
1772401996646284500,6.509284423828125,8.112000465393066,-1.0470000505447388,0.9589500427246094
1772401996666342000,6.529341796875,8.722050666809082,-1.1500500440597534,1.5700501203536987
1772401996686399500,6.5493994140625,9.321000099182129,-1.4760000705718994,2.0410501956939697
1772401996706457000,6.56945703125,9.742050170898438,-2.026050090789795,2.1160500049591064
1772401996726514400,6.589514404296875,10.366950035095215,-2.6389501094818115,2.2759501934051514
1772401996746571800,6.60957177734375,11.253000259399414,-3.0420000553131104,2.130000114440918
1772401996766629400,6.62962939453125,11.772000312805176,-3.4840502738952637,1.6300500631332397
1772401996786687000,6.64968701171875,11.595000267028809,-4.255050182342529,2.2740001678466797
1772401996806744300,6.669744384765625,11.49000072479248,-5.625000476837158,2.797950029373169
1772401996826802000,6.689802001953125,12.211050987243652,-8.06505012512207,3.0679502487182617
1772401996846859300,6.709859375,13.717050552368164,-8.962050437927246,1.6410000324249268
1772401996866916900,6.729916748046875,14.77695083618164,-8.838000297546387,1.1479500532150269
1772401996886974200,6.74997412109375,13.906050682067871,-8.910000801086426,1.6080000400543213
1772401996907031800,6.77003173828125,12.12405014038086,-7.981050491333008,2.5320000648498535
1772401996927089400,6.79008935546875,9.90000057220459,-6.645000457763672,3.9379501342773438
1772401996947146800,6.810146728515625,7.803000450134277,-5.368950366973877,4.1509504318237305
1772401996967204000,6.8302041015625,6.898050308227539,-4.282050132751465,2.986950159072876
1772401996987261700,6.85026171875,7.507950305938721,-3.4990501403808594,1.5700501203536987
1772401997007319300,6.8703193359375,7.92495059967041,-2.9670002460479736,0.6529500484466553
1772401997027376600,6.890376708984375,7.405050277709961,-2.4840002059936523,0.5760000348091125
1772401997047434000,6.91043408203125,6.766050338745117,-1.6240500211715698,0.8370000123977661
1772401997067491600,6.93049169921875,7.009950160980225,-1.3180500268936157,0.7600500583648682
1772401997087549000,6.950548828125,7.699950218200684,-1.746000051498413,0.23805001378059387
1772401997107606300,6.970606201171875,6.94605016708374,-2.1529500484466553,-0.07695000618696213
1772401997127663900,6.990663818359375,5.068950176239014,-2.328000068664551,0.4129500091075897
1772401997147721500,7.010721435546875,3.229950189590454,-2.455050230026245,0.9139500260353088
1772401997167778800,7.03077880859375,2.4160501956939697,-2.4979500770568848,1.3810501098632812
1772401997187836200,7.050836181640625,3.283050060272217,-2.524050235748291,1.8090001344680786
1772401997207893800,7.070893798828125,5.148000240325928,-2.4619500637054443,2.2540500164031982
1772401997227951000,7.090951171875,7.0249505043029785,-2.388000011444092,2.6569502353668213
1772401997248008700,7.1110087890625,8.112000465393066,-2.199000120162964,3.085050106048584
1772401997268066000,7.131066162109375,8.581050872802734,-2.1630001068115234,3.037050247192383
1772401997288123400,7.151123291015625,9.32295036315918,-2.6230502128601074,2.5440001487731934
1772401997308181000,7.171180908203125,11.22195053100586,-3.4699501991271973,1.9410001039505005
1772401997328238300,7.19123828125,14.265000343322754,-1.6740000247955322,0.8970000147819519
1772401997348295700,7.211295654296875,20.076000213623047,-1.1910001039505005,3.135000228881836
1772401997368353300,7.231353271484375,23.815052032470703,-2.1919500827789307,7.8070502281188965
1772401997388410600,7.25141064453125,22.804950714111328,-6.216000080108643,9.322050094604492
1772401997408468200,7.27146826171875,16.468050003051758,-9.78795051574707,7.04295015335083
1772401997428525600,7.291525634765625,8.0110502243042,-10.765050888061523,6.006000518798828
1772401997448583200,7.311583251953125,-0.2530499994754791,-10.308000564575195,2.886000156402588
1772401997468640500,7.331640625,-1.1740500926971436,-10.07805061340332,1.2439500093460083
1772401997488697900,7.35169775390625,2.4019501209259033,-10.498950958251953,0.3940500319004059
1772401997508755200,7.371755126953125,5.430000305175781,-9.681000709533691,0.3820500075817108
1772401997528812800,7.391812744140625,6.582000255584717,-7.951950550079346,1.327950119972229
1772401997548870100,7.4118701171875,6.048000335693359,-6.262050151824951,2.013000011444092
1772401997568927700,7.431927734375,5.167050361633301,-4.440000057220459,2.737950086593628
1772401997588985000,7.451985107421875,5.265000343322754,-3.29295015335083,3.183000087738037
1772401997609042400,7.47204248046875,6.141000270843506,-2.914950132369995,3.1279501914978027
1772401997629099800,7.492099853515625,6.070050239562988,-2.5099501609802246,2.817000150680542
1772401997649157400,7.512157470703125,5.773050308227539,-2.602950096130371,2.095950126647949
1772401997669214700,7.532214599609375,5.710050106048584,-2.9599502086639404,1.579050064086914
1772401997689272000,7.55227197265625,5.815950393676758,-3.192000150680542,1.443000078201294
1772401997709329700,7.57232958984375,7.1010003089904785,-3.2860500812530518,2.058000087738037
1772401997729387300,7.59238720703125,8.701050758361816,-3.207000255584717,2.596950054168701
1772401997749444400,7.6124443359375,9.172050476074219,-3.1969501972198486,2.8939502239227295
1772401997769502000,7.632501953125,9.634050369262695,-2.9599502086639404,2.3140501976013184
1772401997789559600,7.6525595703125,9.87405014038086,-2.965050220489502,2.0440499782562256
1772401997809616600,7.67261669921875,9.903000831604004,-3.255000114440918,2.190000057220459
1772401997829674200,7.69267431640625,10.338000297546387,-3.790950298309326,1.9069501161575317
1772401997849731600,7.712731689453125,11.308050155639648,-4.300950050354004,2.1280500888824463
1772401997869789000,7.732788818359375,12.196050643920898,-4.70805025100708,2.5470001697540283
1772401997889846500,7.752846435546875,12.412050247192383,-4.615050315856934,2.9920501708984375
1772401997909904000,7.77290380859375,11.938050270080566,-5.086050033569336,3.784050226211548
1772401997929961500,7.79296142578125,11.092950820922852,-7.404000282287598,5.2759504318237305
1772401997950018800,7.813018798828125,11.149950981140137,-9.84795093536377,5.671050071716309
1772401997970076200,7.833076171875,11.779950141906738,-11.199000358581543,4.909950256347656
1772401997990133500,7.853133544921875,12.318000793457031,-10.962000846862793,4.3060503005981445
1772401998010190800,7.87319091796875,12.522000312805176,-10.993050575256348,4.776000022888184
1772401998030248400,7.89324853515625,11.040000915527344,-10.107000350952148,6.669000148773193
1772401998050306000,7.91330615234375,7.494000434875488,-8.067000389099121,7.849950313568115
1772401998070363400,7.93336328125,4.743000030517578,-6.628050327301025,6.550050258636475
1772401998090420700,7.953420654296875,4.357950210571289,-5.701050281524658,4.203000068664551
1772401998110478000,7.97347802734375,5.6170501708984375,-4.792050361633301,2.716050148010254
1772401998130535400,7.993535400390625,6.87600040435791,-3.7450501918792725,2.2420501708984375
1772401998150593000,8.013593017578126,7.522950172424316,-2.433000087738037,2.557950019836426
1772401998170650400,8.033650390625,8.344050407409668,-1.9330500364303589,2.530050039291382
1772401998190707700,8.053707763671875,8.707950592041016,-2.0910000801086426,2.038950204849243
1772401998210765000,8.07376513671875,7.674000263214111,-2.5200002193450928,1.4310001134872437
1772401998230822700,8.09382275390625,5.512050151824951,-2.3779501914978027,1.4329500198364258
1772401998250879700,8.113879638671875,3.4549500942230225,-2.413950204849243,1.918950080871582
1772401998270937300,8.133937255859376,2.763000249862671,-2.4810001850128174,2.3550000190734863
1772401998290994700,8.15399462890625,2.602950096130371,-2.4880502223968506,2.1780002117156982
1772401998311052000,8.174052001953125,3.268050193786621,-2.4310500621795654,2.448000192642212
1772401998331109400,8.194109375,5.38200044631958,-2.179949998855591,3.9690001010894775
1772401998351167000,8.2141669921875,8.104949951171875,-2.199000120162964,5.06505012512207
1772401998371224300,8.234224365234375,9.86400032043457,-2.4810001850128174,4.6650004386901855
1772401998391281700,8.25428173828125,10.786050796508789,-2.836050033569336,4.213050365447998
1772401998411339300,8.27433935546875,11.392050743103027,-3.2910001277923584,4.263000011444092
1772401998431396400,8.294396240234375,11.365050315856934,-3.6160502433776855,3.511050224304199
1772401998451454000,8.314453857421874,10.978050231933594,-3.859950065612793,1.9500000476837158
1772401998471511300,8.33451123046875,10.288050651550293,-4.588050365447998,1.4140501022338867
1772401998491568600,8.354568603515625,10.642050743103027,-5.160000324249268,3.1909501552581787
1772401998511626000,8.3746259765625,11.574000358581543,-5.670000076293945,7.0570502281188965
1772401998531683600,8.39468359375,10.591950416564941,-7.116000175476074,8.908050537109375
1772401998551741000,8.414740966796876,9.193950653076172,-7.401000499725342,7.5859503746032715
1772401998571798300,8.43479833984375,7.249950408935547,-8.223000526428223,4.8949503898620605
1772401998591855600,8.454855712890625,5.572050094604492,-8.596050262451172,2.329050064086914
1772401998611913200,8.474913330078126,4.920000076293945,-8.96505069732666,1.4329500198364258
1772401998631970300,8.49497021484375,5.409000396728516,-8.96505069732666,1.9360500574111938
1772401998652028000,8.51502783203125,6.055050373077393,-8.187000274658203,2.829000234603882
1772401998672085200,8.535085205078126,6.261000156402588,-7.011000156402588,2.8789501190185547
1772401998692142300,8.555142333984374,6.093000411987305,-5.752050399780273,2.2330501079559326
1772401998712200000,8.575199951171875,6.072000503540039,-4.816050052642822,1.9429501295089722
1772401998732257300,8.59525732421875,6.0169501304626465,-3.9439501762390137,2.470050096511841
1772401998752314600,8.615314697265624,5.871000289916992,-3.1710002422332764,2.7810001373291016
1772401998772372000,8.6353720703125,6.091050148010254,-3.0420000553131104,2.5630500316619873
1772401998792429300,8.65542919921875,6.591000080108643,-2.9239501953125,2.716050148010254
1772401998812486700,8.675486572265624,7.603950500488281,-2.905050039291382,2.8630502223968506
1772401998832544000,8.6955439453125,8.806050300598145,-3.015000104904175,2.63700008392334
1772401998852601300,8.715601318359376,9.651000022888184,-3.0300002098083496,2.848050117492676
1772401998872659000,8.735658935546875,10.19205093383789,-2.931000232696533,2.8909502029418945
1772401998892716000,8.755716064453125,10.975050926208496,-3.0730502605438232,2.8000500202178955
1772401998912773600,8.775773681640626,11.329950332641602,-3.3550500869750977,3.1500000953674316
1772401998932830700,8.795830810546875,10.759950637817383,-3.709050178527832,3.7990500926971436
1772401998952888000,8.81588818359375,10.432050704956055,-4.13100004196167,3.8590502738952637
1772401998972945700,8.835945556640626,10.563000679016113,-4.558950424194336,3.4080002307891846
1772401998993003000,8.8560029296875,10.834050178527832,-4.792050361633301,3.4900500774383545
1772401999013060000,8.87606005859375,10.696950912475586,-4.62600040435791,4.711050033569336
1772401999033117700,8.89611767578125,9.83595085144043,-5.938050270080566,6.805950164794922
1772401999053175000,8.916175048828125,9.484050750732422,-9.007950782775879,7.05495023727417
1772401999073232400,8.936232421875,10.582950592041016,-9.40095043182373,3.8779501914978027
1772401999093289700,8.956289794921876,10.851000785827637,-7.753050327301025,2.4030001163482666
1772401999113347000,8.97634716796875,9.78795051574707,-7.3969502449035645,4.122000217437744
1772401999133404400,8.996404296875,8.217000007629395,-8.086050033569336,5.272950172424316
1772401999153461800,9.016461669921876,7.116000175476074,-8.235000610351562,5.071950435638428
1772401999173519000,9.03651904296875,6.217950344085693,-7.276950359344482,5.044050216674805
1772401999193576400,9.056576416015625,6.175050258636475,-6.283050060272217,4.948050022125244
1772401999213633800,9.0766337890625,7.417050361633301,-5.653950214385986,4.43595027923584
1772401999233691100,9.096691162109375,8.301000595092773,-4.933050155639648,3.6450002193450928
1772401999253748500,9.11674853515625,8.077950477600098,-3.8460001945495605,3.3289501667022705
1772401999273805800,9.136805908203126,7.3720502853393555,-2.7900002002716064,3.277050256729126
1772401999293863400,9.156863525390625,7.291050434112549,-2.584050178527832,2.9770500659942627
1772401999313920500,9.17692041015625,7.410000324249268,-2.8600502014160156,2.757000207901001
1772401999333978000,9.19697802734375,6.574950218200684,-3.043950080871582,2.707050085067749
1772401999354035200,9.21703515625,4.779000282287598,-2.8789501190185547,2.719050168991089
1772401999374092500,9.237092529296875,3.3259501457214355,-2.9670002460479736,2.4840002059936523
1772401999394150100,9.257150146484374,2.9640002250671387,-3.1090500354766846,2.2350001335144043
1772401999414207200,9.277207275390625,3.6319501399993896,-2.7970502376556396,2.7810001373291016
1772401999434264600,9.2972646484375,4.300050258636475,-2.25600004196167,3.601950168609619
1772401999454322000,9.317322021484374,5.2699503898620605,-1.894950032234192,4.129050254821777
1772401999474379300,9.337379150390625,6.627000331878662,-1.804050087928772,3.8370001316070557
1772401999494436600,9.3574365234375,7.963050365447998,-2.056950092315674,3.3100502490997314
1772401999514494000,9.377493896484374,8.822999954223633,-2.1130499839782715,3.7390501499176025
1772401999534551300,9.39755126953125,9.445050239562988,-2.533950090408325,3.870000123977661
1772401999554608600,9.417608642578125,10.020000457763672,-3.2400002479553223,2.5699501037597656
1772401999574666000,9.437666015625,10.671000480651855,-3.0580501556396484,1.4479501247406006
1772401999594723300,9.457723388671875,11.515950202941895,-2.5290000438690186,1.5070500373840332
1772401999614780700,9.47778076171875,11.559000968933105,-2.3779501914978027,1.3129500150680542
1772401999634837800,9.497837646484374,10.735950469970703,-3.142050266265869,1.9069501161575317
1772401999654895000,9.51789501953125,10.645050048828125,-4.25100040435791,3.0679502487182617
1772401999674952400,9.537952392578125,11.44005012512207,-5.728050231933594,4.878000259399414
1772401999695009800,9.558009765625,9.8860502243042,-9.472050666809082,9.022950172424316
1772401999715067100,9.578067138671875,11.212050437927246,-10.423050880432129,9.538050651550293
1772401999735124500,9.59812451171875,11.854050636291504,-10.22700023651123,4.753950119018555
1772401999755181600,9.618181640625,9.366000175476074,-10.495050430297852,1.7730001211166382
1772401999775239200,9.6382392578125,6.330000400543213,-9.147000312805176,2.0250000953674316
1772401999795296500,9.658296630859375,4.774050235748291,-7.195050239562988,3.9660000801086426
1772401999815353900,9.678353759765624,4.723950386047363,-6.073050498962402,4.861950397491455
1772401999835411000,9.698410888671875,5.607000350952148,-5.553000450134277,4.354050159454346
1772401999855468300,9.71846826171875,6.675000190734863,-5.119950294494629,3.844050168991089
1772401999875525600,9.738525634765624,6.711000442504883,-4.465950012207031,3.7080001831054688
1772401999895583000,9.7585830078125,5.623950481414795,-3.652050256729126,3.30495023727417
1772401999915640300,9.778640380859375,4.73805046081543,-3.4870500564575195,2.5009500980377197
1772401999935697700,9.79869775390625,4.6780500411987305,-3.6190502643585205,1.9690500497817993
1772401999955755000,9.818755126953125,5.536050319671631,-3.5440502166748047,2.3329501152038574
1772401999975812000,9.83881201171875,6.441000461578369,-3.2430002689361572,2.877000093460083
1772401999995869700,9.85886962890625,7.24500036239624,-3.132000207901001,2.8819501399993896
1772402000015927000,9.878927001953125,8.128950119018555,-2.8810501098632812,2.839050054550171
1772402000035984100,9.898984130859375,8.670000076293945,-2.4310500621795654,3.4609501361846924
1772402000056041500,9.91904150390625,8.368050575256348,-2.104950189590454,3.8610002994537354
1772402000076099000,9.93909912109375,8.242950439453125,-2.508000135421753,3.364950180053711
1772402000096156200,9.95915625,9.261000633239746,-3.702000141143799,2.4649500846862793
1772402000116213500,9.979213623046874,10.699950218200684,-4.198050022125244,2.5849502086639404
1772402000136270800,9.999270751953125,11.815950393676758,-4.033050060272217,3.2260501384735107
1772402000156328200,10.019328125,12.144001007080078,-3.979950189590454,3.6289501190185547
1772402000176385500,10.039385498046874,11.86305046081543,-3.6949501037597656,4.1170501708984375
1772402000196442600,10.059442626953125,11.443950653076172,-2.863950252532959,4.234050273895264
1772402000216500000,10.0795,11.386950492858887,-2.308950185775757,4.009050369262695
1772402000236557300,10.099557373046874,11.155050277709961,-3.112950086593628,4.52400016784668
1772402000256614700,10.11961474609375,10.731000900268555,-4.942950248718262,5.134950160980225
1772402000276672000,10.139672119140625,9.663000106811523,-9.439050674438477,7.1170501708984375
1772402000296729300,10.159729248046874,10.779000282287598,-12.034050941467285,5.986950397491455
1772402000316786700,10.17978662109375,13.537050247192383,-10.540050506591797,4.729950428009033
1772402000336843800,10.19984375,13.70205020904541,-8.092950820922852,5.356950283050537
1772402000356901000,10.219901123046874,9.82395076751709,-6.040950298309326,5.284950256347656
1772402000376958500,10.23995849609375,5.196000099182129,-5.308950424194336,4.717950344085693
1772402000397015800,10.260015869140625,3.4240500926971436,-5.56695032119751,3.5689501762390137
1772402000417073200,10.2800732421875,4.6620001792907715,-5.971950054168701,1.4719500541687012
1772402000437130200,10.300130126953125,7.306950569152832,-5.93595027923584,0.8470500111579895
1772402000457187800,10.320187744140625,9.131999969482422,-5.344950199127197,1.4620500802993774
1772402000477245200,10.3402451171875,9.100950241088867,-4.138050079345703,1.9380000829696655
1772402000497302500,10.360302490234375,7.027050495147705,-2.4840002059936523,2.25
1772402000517359900,10.38035986328125,5.682000160217285,-1.5949500799179077,1.9549500942230225
1772402000537417200,10.400417236328124,5.521050453186035,-1.5570000410079956,1.8930001258850098
1772402000557474300,10.420474365234375,4.777050018310547,-1.6390501260757446,2.01705002784729
1772402000577532000,10.440531982421875,4.3909502029418945,-1.588050127029419,2.247000217437744
1772402000597589000,10.460589111328124,5.029950141906738,-1.818000078201294,2.2950000762939453
1772402000617646300,10.480646240234375,6.369000434875488,-2.3400001525878906,1.7830500602722168
1772402000637703700,10.50070361328125,6.9649505615234375,-1.7890501022338867,1.9810501337051392
1772402000657761000,10.520760986328124,6.615000247955322,-1.1860500574111938,3.30495023727417
1772402000677818400,10.540818359375,6.271050453186035,-0.7380000352859497,3.507000207901001
1772402000697875700,10.560875732421875,7.552050590515137,-1.609950065612793,3.1810500621795654
