time,seconds_elapsed,z,y,x
1772402122108372700,0.390372802734375,3.305155038833618,-0.20863300561904907,-1.9770179986953735
1772402122128428800,0.4104287109375,2.4945249557495117,0.9346929788589478,-0.5744140148162842
1772402122148485000,0.430485107421875,-0.47317999601364136,1.013353943824768,0.46126800775527954
1772402122168541200,0.450541259765625,-1.5873440504074097,1.0634829998016357,0.533814013004303
1772402122188597200,0.47059716796875,0.3029240071773529,1.0907859802246094,0.7254509925842285
1772402122208653300,0.4906533203125,1.0351389646530151,1.3094300031661987,1.101161003112793
1772402122228709400,0.51070947265625,-0.27748799324035645,1.5203429460525513,1.7585289478302002
1772402122248765700,0.530765625,-1.9395910501480103,1.7794740200042725,2.433223009109497
1772402122268821800,0.55082177734375,-2.2300729751586914,2.025178909301758,3.168977975845337
1772402122288878000,0.570878173828125,-0.9376580119132996,1.7673439979553223,4.028781890869141
1772402122308934100,0.59093408203125,-0.16932600736618042,0.3186750113964081,3.3246259689331055
1772402122328990200,0.610990234375,-1.1146609783172607,-0.00026000000070780516,3.1541008949279785
1772402122349046300,0.63104638671875,-1.7381279468536377,-1.6266069412231445,2.856081008911133
1772402122369102600,0.6511025390625,-1.813702940940857,-3.179685115814209,-0.4751349985599518
1772402122389158700,0.67115869140625,-1.7053619623184204,-3.4253480434417725,-4.680908203125
1772402122409214700,0.691214599609375,-3.3834900856018066,-1.9722779989242554,-7.184726238250732
1772402122429271000,0.71127099609375,-4.474792003631592,-1.0314229726791382,-5.522181034088135
1772402122449327000,0.7313271484375,-2.4246339797973633,0.4100610017776489,-2.593744993209839
1772402122469383200,0.751383056640625,-0.19090700149536133,1.7936489582061768,0.5002040266990662
1772402122489439500,0.771439453125,0.49287399649620056,2.4421188831329346,1.4593629837036133
1772402122509495600,0.79149560546875,0.38229900598526,2.6776950359344482,0.46029001474380493
1772402122529551600,0.811551513671875,-0.7781599760055542,2.992556095123291,-0.5085669755935669
1772402122549608000,0.83160791015625,-2.4209280014038086,2.832443952560425,-0.43565401434898376
1772402122569664000,0.8516640625,-2.06154203414917,2.253154993057251,0.26987600326538086
1772402122589720000,0.871719970703125,-0.3292340040206909,1.7809239625930786,0.22150099277496338
1772402122609776000,0.891776123046875,0.06061200052499771,0.7239390015602112,-0.13639800250530243
1772402122629832200,0.911832275390625,-1.0395100116729736,0.26475098729133606,-0.8059189915657043
1772402122649888500,0.931888427734375,-1.2300070524215698,0.7502009868621826,0.002463999902829528
1772402122669944600,0.951944580078125,-0.9440060257911682,1.4161609411239624,1.579571008682251
1772402122690001000,0.9720009765625,-0.1904049962759018,0.9225289821624756,1.4060570001602173
1772402122710057000,0.992056884765625,1.1884750127792358,1.0804229974746704,1.4368460178375244
1772402122730113000,1.012113037109375,1.657979965209961,0.8395379781723022,1.3790760040283203
1772402122750169300,1.03216943359375,2.0751841068267822,0.45322999358177185,1.3600610494613647
1772402122770225200,1.05222509765625,2.2497470378875732,-0.45741501450538635,0.34884899854660034
1772402122790281500,1.072281494140625,1.6981970071792603,-0.5115320086479187,0.13347899913787842
1772402122810337500,1.092337646484375,1.6345579624176025,-0.6996260285377502,0.18358300626277924
1772402122830393600,1.1123935546875,1.5876469612121582,-1.3853000402450562,-0.7651330232620239
1772402122850449700,1.13244970703125,0.3637169897556305,-0.9250400066375732,-1.2273060083389282
1772402122870506000,1.152506103515625,-0.5538259744644165,-1.2072319984436035,0.3245539963245392
1772402122890562000,1.17256201171875,1.9249390363693237,-1.2641849517822266,3.879642963409424
1772402122910618400,1.192618408203125,9.747150421142578,-5.719348907470703,2.3093149662017822
1772402122930674200,1.212674072265625,9.040921211242676,-2.524277925491333,-1.607746958732605
1772402122950730200,1.232730224609375,-1.2256629467010498,-0.7746220231056213,-2.9141979217529297
1772402122970786600,1.25278662109375,-10.217330932617188,0.5851020216941833,-3.70015811920166
1772402122990842600,1.272842529296875,-11.131464004516602,0.9608809947967529,-1.782526969909668
1772402123010899000,1.29289892578125,-8.288372039794922,-0.3384949862957001,-0.675620973110199
1772402123030955000,1.312955078125,-3.9298970699310303,0.21160399913787842,-1.399696946144104
1772402123051011000,1.333010986328125,0.1400820016860962,0.008481999859213829,-0.4141570031642914
1772402123071067100,1.353067138671875,1.7920650243759155,0.5331850051879883,-0.6793259978294373
1772402123091123500,1.37312353515625,2.473651885986328,0.6697480082511902,-1.192260980606079
1772402123111179500,1.393179443359375,1.2581219673156738,0.924597978591919,-0.557807981967926
1772402123131235600,1.413235595703125,-0.10630200058221817,1.5804779529571533,0.5833520293235779
1772402123151292000,1.4332919921875,-0.4426409900188446,2.0099830627441406,1.3266819715499878
1772402123171348200,1.45334814453125,0.6954860091209412,2.1111860275268555,1.4749449491500854
1772402123191404300,1.473404296875,2.149988889694214,1.4209489822387695,1.9079560041427612
1772402123211460000,1.493460205078125,2.7983899116516113,1.0599579811096191,1.2927650213241577
1772402123231516400,1.513516357421875,2.565912961959839,0.6207669973373413,0.31261199712753296
1772402123251572500,1.533572509765625,1.7255300283432007,-0.12978599965572357,-0.7995100021362305
1772402123271628800,1.55362890625,-0.13077500462532043,-0.29742899537086487,-1.5892080068588257
1772402123291684900,1.573684814453125,-1.1166199445724487,-0.1675419956445694,-1.673766016960144
1772402123311741000,1.593740966796875,-0.7092959880828857,0.11716499924659729,-0.965412974357605
1772402123331797000,1.613796875,-0.16663600504398346,-0.21266700327396393,-0.021929999813437462
1772402123351853300,1.633853271484375,0.6898900270462036,-1.0357329845428467,-0.03914399817585945
1772402123371909400,1.653909423828125,2.18231201171875,-1.386186957359314,0.219883993268013
1772402123391965700,1.673965576171875,3.8618500232696533,-1.3097490072250366,1.1815069913864136
1772402123412021800,1.694021728515625,3.3270790576934814,-0.7781990170478821,1.6116060018539429
1772402123432077800,1.714077880859375,1.4416630268096924,-0.07055900245904922,1.7644840478897095
1772402123452134000,1.7341337890625,0.32933101058006287,0.02755199931561947,2.00518798828125
1772402123472190200,1.754190185546875,-0.2973339855670929,-1.6211570501327515,1.6441500186920166
1772402123492246300,1.774246337890625,-0.4834670126438141,-2.559325933456421,0.12651999294757843
1772402123512302300,1.79430224609375,-0.2675740122795105,-3.077860116958618,-0.3667829930782318
1772402123532358400,1.8143583984375,-0.25405800342559814,-2.64228892326355,-1.2742259502410889
1772402123552414700,1.834414794921875,0.30235201120376587,-2.1754310131073,-1.430580973625183
1772402123572470800,1.854470703125,-1.8349169492721558,-1.4067449569702148,-1.6436649560928345
1772402123592527000,1.874527099609375,-4.428733825683594,-0.95899498462677,-1.538931965827942
1772402123612583200,1.894583251953125,-3.6293869018554688,-0.006395999807864428,-0.8103449940681458
1772402123632639500,1.914639404296875,-1.0875099897384644,1.4124820232391357,0.1477230042219162
1772402123652695600,1.934695556640625,0.4115909934043884,2.4163858890533447,0.23177799582481384
1772402123672751600,1.954751708984375,1.27327299118042,2.557908058166504,-0.15537700057029724
1772402123692807700,1.9748076171875,-0.20138099789619446,2.6687259674072266,-0.7731009721755981
1772402123712864000,1.994864013671875,-2.210705041885376,2.2669808864593506,-1.6888810396194458
1772402123732920000,2.014920166015625,-3.546164035797119,1.9343839883804321,-1.9127049446105957
1772402123752976400,2.034976318359375,-3.962531089782715,1.760308027267456,-1.196563959121704
1772402123773032700,2.05503271484375,-3.332425117492676,1.3714460134506226,-0.7220510244369507
1772402123793088800,2.0750888671875,-1.7147400379180908,1.0051569938659668,-0.3896409869194031
1772402123813144800,2.095144775390625,-1.3357919454574585,0.681725025177002,0.19148699939250946
1772402123833201000,2.115200927734375,-0.7966330051422119,0.21578000485897064,0.588388979434967
1772402123853257200,2.13525732421875,-0.24210600554943085,0.1534239947795868,1.2643109560012817
1772402123873313300,2.155313232421875,-1.0920850038528442,0.9067389965057373,1.801048994064331
1772402123893369600,2.17536962890625,0.24633100628852844,0.7981910109519958,2.544039011001587
1772402123913425700,2.19542578125,2.4114649295806885,0.6729530096054077,2.996830940246582
1772402123933482000,2.21548193359375,4.378771781921387,0.9711620211601257,3.287864923477173
1772402123953538000,2.2355380859375,5.063817977905273,0.9721300005912781,3.9726920127868652
1772402123973594400,2.255594482421875,6.378253936767578,-0.5190950036048889,4.218954086303711
1772402123993650400,2.275650390625,8.35140323638916,-1.2616759538650513,2.7239620685577393
1772402124013706500,2.29570654296875,7.855523109436035,-1.1837409734725952,1.5487699508666992
1772402124033762800,2.3157626953125,5.269217014312744,-3.8333919048309326,1.7214159965515137
1772402124053819000,2.33581884765625,2.079374074935913,-6.853114128112793,0.856332004070282
1772402124073875200,2.355875244140625,-1.755700945854187,-4.37529182434082,-3.9653329849243164
1772402124093931300,2.37593115234375,-5.384561061859131,-0.7786340117454529,-3.8618669509887695
1772402124113987300,2.3959873046875,-10.17724895477295,-0.41090598702430725,-3.1606929302215576
1772402124134043400,2.41604345703125,-10.125799179077148,0.5504739880561829,-3.521354913711548
1772402124154099700,2.436099609375,-7.152638912200928,0.4043779969215393,-3.3018839359283447
1772402124174156000,2.456156005859375,-5.017311096191406,0.7811030149459839,-3.064707040786743
1772402124194212000,2.476212158203125,-1.9266489744186401,0.7720819711685181,-1.2509649991989136
1772402124214268200,2.49626806640625,0.15707999467849731,0.8976659774780273,-0.10717199742794037
1772402124234324500,2.516324462890625,0.45926401019096375,1.4133330583572388,0.19426099956035614
1772402124254380500,2.536380615234375,0.5802109837532043,1.4674659967422485,0.08260899782180786
1772402124274436600,2.5564365234375,1.1497689485549927,1.2795729637145996,-0.07231199741363525
1772402124294493000,2.576492919921875,1.1166150569915771,1.1964590549468994,0.2317499965429306
1772402124314549200,2.59654931640625,1.2652920484542847,1.2707669734954834,0.6222000122070312
1772402124334605300,2.616605224609375,2.249032974243164,1.4054139852523804,0.7193599939346313
1772402124354661400,2.636661376953125,2.964026927947998,1.34273099899292,0.6370880007743835
1772402124374717700,2.6567177734375,2.699220895767212,1.178184986114502,0.5192700028419495
1772402124394773800,2.676773681640625,2.0785770416259766,0.9361479878425598,0.4578160047531128
1772402124414830000,2.696830078125,1.702860951423645,0.7833179831504822,0.6382529735565186
1772402124454942200,2.736942138671875,2.150791883468628,0.30868300795555115,-0.056956999003887177
1772402124474998500,2.75699853515625,1.8990329504013062,-0.3066529929637909,-1.718366026878357
1772402124495054600,2.7770546875,1.137626051902771,-0.34692201018333435,-2.0682930946350098
1772402124515111000,2.79711083984375,0.09250099956989288,-0.2943379878997803,-1.172234058380127
1772402124535167200,2.817167236328125,-0.3707979917526245,-0.5858700275421143,-0.2585870027542114
1772402124555223300,2.837223388671875,-0.2694379985332489,-0.9782959818840027,0.05392900109291077
1772402124575279400,2.857279296875,0.3396489918231964,-1.5298370122909546,0.043143000453710556
1772402124595335700,2.877335693359375,1.348518967628479,-1.5646690130233765,0.18811500072479248
1772402124615392000,2.89739208984375,1.509214997291565,-1.3189359903335571,1.057692050933838
1772402124635448000,2.917447998046875,0.8057720065116882,-2.0511488914489746,2.202152967453003
1772402124655504100,2.937504150390625,0.10061799734830856,-2.776918888092041,2.1105220317840576
1772402124675560400,2.957560546875,-0.06750400364398956,-2.4583349227905273,0.7460179924964905
1772402124695616500,2.977616455078125,-0.21080300211906433,-1.5170680284500122,-0.36078500747680664
1772402124715672800,2.9976728515625,-0.27024298906326294,-1.2632540464401245,-0.25582799315452576
1772402124735729000,3.01772900390625,-1.0761940479278564,-1.246603012084961,0.5081369876861572
1772402124755785200,3.03778515625,-3.300955057144165,-1.1252820491790771,0.35850900411605835
1772402124775841300,3.05784130859375,-4.349564075469971,-0.6242259740829468,-0.0851920023560524
1772402124795897300,3.0778974609375,-2.542850971221924,0.599819004535675,-0.6985530257225037
1772402124815953700,3.09795361328125,-0.32228100299835205,1.367055058479309,-1.3148430585861206
1772402124836009700,3.118009765625,0.2805739939212799,1.9472440481185913,-1.3078739643096924
1772402124856065800,3.138065673828125,-0.12033999711275101,2.3889949321746826,-1.467898964881897
1772402124876121900,3.158121826171875,-0.3242720067501068,2.677596092224121,-1.6495189666748047
1772402124896178200,3.17817822265625,-0.5386170148849487,2.7492759227752686,-1.116415023803711
1772402124916234500,3.198234375,-1.906093955039978,2.7130210399627686,-0.9699320197105408
1772402124936290600,3.21829052734375,-2.4728751182556152,2.3312160968780518,-0.8271459937095642
1772402124956347000,3.238346923828125,-2.294300079345703,1.9737730026245117,-0.5297160148620605
1772402124976403000,3.25840283203125,-1.9386399984359741,1.5102180242538452,0.05542600154876709
1772402124996459000,3.278458984375,-2.3517119884490967,0.9401749968528748,0.6123409867286682
1772402125016515300,3.298515380859375,-2.449368953704834,0.7097399830818176,0.9202719926834106
1772402125036571400,3.3185712890625,-1.4586950540542603,0.5565919876098633,0.9226179718971252
1772402125056627700,3.338627685546875,0.3194429874420166,0.5948730111122131,1.082893967628479
1772402125076683800,3.358683837890625,2.002753973007202,0.6974980235099792,1.5839149951934814
1772402125096740000,3.378739990234375,3.035003900527954,0.7227979898452759,2.684731960296631
1772402125116796200,3.398796142578125,3.373603105545044,0.8558390140533447,3.7741858959198
1772402125136852500,3.4188525390625,4.112482070922852,0.45747101306915283,4.541749000549316
1772402125156908800,3.43890869140625,8.202786445617676,-0.7836220264434814,3.774998903274536
1772402125176964900,3.45896484375,11.149428367614746,-1.525297999382019,1.1719989776611328
1772402125197021000,3.47902099609375,8.781943321228027,-0.42743799090385437,-0.14480000734329224
1772402125217077000,3.499076904296875,4.133553981781006,-0.42594999074935913,-0.6502400040626526
1772402125237133300,3.51913330078125,-2.5291569232940674,-2.7695600986480713,-1.2481919527053833
1772402125257189600,3.539189697265625,-7.720125198364258,-5.489247798919678,-2.532154083251953
1772402125277245700,3.55924560546875,-10.174500465393066,-6.038599014282227,-2.986522912979126
1772402125297302000,3.579302001953125,-8.734800338745117,-4.579679012298584,-2.3852179050445557
1772402125317358000,3.599358154296875,-4.1254401206970215,-2.2581429481506348,-3.1225740909576416
1772402125337414100,3.6194140625,-1.103551983833313,-0.3929139971733093,-3.6900599002838135
1772402125357470200,3.63947021484375,-2.1620419025421143,0.15126800537109375,-3.14324688911438
1772402125377526500,3.659526611328125,-2.589632987976074,-0.018983999267220497,-0.9633979797363281
1772402125397582600,3.67958251953125,-1.6853070259094238,0.4256109893321991,1.0980809926986694
1772402125417639000,3.699638916015625,0.5197539925575256,1.420488953590393,2.6808650493621826
1772402125437695000,3.719695068359375,2.8134028911590576,2.5747909545898438,2.901492118835449
1772402125457751000,3.7397509765625,3.5403220653533936,3.2590320110321045,1.8171930313110352
1772402125477807400,3.759807373046875,3.1866579055786133,3.05362606048584,0.6745550036430359
1772402125497863400,3.779863525390625,2.0853259563446045,2.8893001079559326,0.07004400342702866
1772402125517919700,3.799919677734375,0.8370599746704102,2.663439989089966,-0.2639639973640442
1772402125537976000,3.81997607421875,-0.37835100293159485,2.1715519428253174,-0.6703709959983826
1772402125558032000,3.840031982421875,-0.9362800121307373,1.3596420288085938,-1.4858969449996948
1772402125578088200,3.860088134765625,-0.14182400703430176,0.5173130035400391,-2.6175179481506348
1772402125598144500,3.88014453125,0.8305400013923645,-0.10374899953603745,-3.1132140159606934
1772402125618200600,3.90020068359375,1.2012319564819336,-0.023798000067472458,-2.2945709228515625
1772402125638256600,3.920256591796875,1.328184962272644,-0.038238998502492905,-0.7900570034980774
1772402125658313000,3.94031298828125,1.160148024559021,-0.15059100091457367,0.6679540276527405
1772402125678369300,3.960369384765625,1.401718020439148,-0.14207300543785095,1.8551629781723022
1772402125698425300,3.98042529296875,2.230175018310547,-0.22485800087451935,2.764130115509033
1772402125718481700,4.000481689453125,3.0193400382995605,-0.40788599848747253,2.5409040451049805
1772402125738537700,4.020537841796875,2.925071954727173,-0.6383090019226074,1.8079229593276978
1772402125758593800,4.04059375,2.1520578861236572,-0.7866470217704773,1.176738977432251
1772402125778649900,4.06064990234375,0.8872470259666443,-1.1941180229187012,0.3701910078525543
1772402125798706200,4.0807060546875,-0.45900198817253113,-1.8440940380096436,0.8057519793510437
1772402125818762500,4.100762451171875,-0.46080198884010315,-2.3176751136779785,1.7366019487380981
1772402125838818600,4.120818603515625,-0.9358410239219666,-3.373339891433716,1.3684810400009155
1772402125858875000,4.140875,-2.2158730030059814,-4.30347204208374,-0.16761399805545807
1772402125878931000,4.160930908203125,-2.2110989093780518,-4.000377178192139,-1.7508909702301025
1772402125898987300,4.1809873046875,-2.175278902053833,-2.7331020832061768,-2.0015130043029785
1772402125919043000,4.20104296875,-1.1098229885101318,-1.6384830474853516,-0.5580099821090698
1772402125939099400,4.221099365234375,-0.21745799481868744,0.19481399655342102,0.9767910242080688
1772402125959155500,4.241155517578125,1.5228320360183716,1.5022510290145874,2.0534329414367676
1772402125979211800,4.261211669921875,2.0478649139404297,2.3666019439697266,1.5659459829330444
1772402125999268000,4.28126806640625,0.6726930141448975,3.1932809352874756,0.09995599836111069
1772402126019324200,4.30132421875,-1.1722450256347656,3.376224994659424,-1.356834053993225
1772402126039380200,4.321380126953125,-3.134596109390259,3.20497989654541,-2.3638670444488525
1772402126059436300,4.341436279296875,-4.225276947021484,2.6639840602874756,-2.5806939601898193
1772402126079492600,4.36149267578125,-4.7210211753845215,2.393587112426758,-2.3269550800323486
1772402126099548700,4.381548583984375,-4.674417018890381,2.2764699459075928,-1.9919639825820923
1772402126119605000,4.40160498046875,-3.754733085632324,2.2403759956359863,-1.145570993423462
1772402126139661300,4.421661376953125,-2.16058611869812,2.150700092315674,0.4603419899940491
1772402126159717400,4.44171728515625,-0.8164690136909485,1.8837599754333496,1.4194740056991577
1772402126179773400,4.4617734375,0.3620240092277527,1.7230080366134644,1.656378984451294
1772402126199829800,4.481829833984375,1.8848190307617188,1.740805983543396,1.545902967453003
1772402126219885800,4.5018857421875,2.940654993057251,1.3982449769973755,1.1575219631195068
1772402126239942000,4.52194189453125,3.234123945236206,0.9369959831237793,1.2612179517745972
1772402126259998200,4.541998291015625,3.50809907913208,0.37759700417518616,1.348173975944519
1772402126280054300,4.56205419921875,3.427278995513916,-0.27632200717926025,0.6001390218734741
1772402126300110600,4.582110595703125,3.6626229286193848,-0.2554570138454437,0.12971100211143494
1772402126320167000,4.6021669921875,6.651699066162109,1.567633032798767,0.4229690134525299
1772402126340223000,4.622222900390625,11.894957542419434,0.7005059719085693,0.9783750176429749
1772402126360279300,4.642279296875,9.709567070007324,-0.2979939877986908,1.194700002670288
1772402126380335000,4.662335205078125,0.7404530048370361,-4.582395076751709,1.3365600109100342
1772402126400391400,4.682391357421875,-5.1460371017456055,-6.964315891265869,-0.9931510090827942
1772402126420447500,4.702447509765625,-6.13362979888916,-6.03065299987793,-3.64172101020813
1772402126440503800,4.72250390625,-5.713304042816162,-3.501322031021118,-3.0325770378112793
1772402126460560000,4.742559814453125,-7.386642932891846,-1.5922579765319824,-1.8532609939575195
1772402126480616000,4.762615966796875,-7.982914924621582,-0.6306049823760986,-0.32500898838043213
1772402126500672000,4.782672119140625,-5.763932228088379,-0.10448399931192398,-0.018407000228762627
1772402126520728300,4.802728271484375,-1.3423449993133545,-0.04118800163269043,0.4964739978313446
1772402126540784600,4.82278466796875,2.044523000717163,0.576649010181427,1.0163789987564087
1772402126560840700,4.8428408203125,3.302018880844116,1.6733189821243286,0.8795030117034912
1772402126580896800,4.862896728515625,2.4616150856018066,2.5610549449920654,0.41640201210975647
1772402126600952800,4.882952880859375,1.0156919956207275,2.833643913269043,0.3139219880104065
1772402126621009200,4.903009033203125,0.14215299487113953,2.622915029525757,0.2287369966506958
1772402126641065200,4.923065185546875,-0.13747599720954895,2.33433198928833,-0.10820899903774261
1772402126661121500,4.94312158203125,-0.24438099563121796,1.9458659887313843,-0.43936699628829956
1772402126681177600,4.963177490234375,-0.34430500864982605,1.639091968536377,-0.5986940264701843
1772402126701234000,4.98323388671875,-0.23144400119781494,1.3592740297317505,-0.5381550192832947
1772402126721289700,5.003289794921875,0.46364399790763855,1.0202189683914185,-0.2905240058898926
1772402126741346000,5.023345947265625,1.4037150144577026,0.6633750200271606,-0.3972190022468567
1772402126761402400,5.04340234375,1.831771969795227,0.39070001244544983,-0.6777750253677368
1772402126781458400,5.06345849609375,1.5110169649124146,0.11336000263690948,-0.5670199990272522
1772402126801514800,5.0835146484375,1.071213960647583,-0.1277109980583191,-0.05921600013971329
1772402126821570800,5.10357080078125,1.021772027015686,-0.3093689978122711,0.4238260090351105
1772402126841627100,5.123627197265625,1.1926170587539673,-0.5058950185775757,0.563060998916626
1772402126861683200,5.14368310546875,1.197293996810913,-0.5847160220146179,0.5040490031242371
1772402126881739300,5.1637392578125,1.1970349550247192,-0.5749729871749878,0.47443899512290955
1772402126901795300,5.18379541015625,1.3048280477523804,-0.5671780109405518,0.13955099880695343
1772402126921851600,5.2038515625,1.0630619525909424,-0.6321420073509216,-0.14835800230503082
1772402126941907700,5.22390771484375,0.6896499991416931,-0.5825139880180359,0.18771199882030487
1772402126961964000,5.243964111328125,0.1757200062274933,-0.730010986328125,0.9453700184822083
1772402126982020400,5.264020263671875,-0.16582299768924713,-1.4040089845657349,1.5810960531234741
1772402127002076400,5.284076416015625,0.14494100213050842,-1.6840070486068726,2.134476900100708
1772402127022132500,5.304132568359375,0.9439520239830017,-1.7744050025939941,2.449181079864502
1772402127042188500,5.3241884765625,1.3335620164871216,-1.2571239471435547,1.656944990158081
1772402127062244900,5.344244873046875,0.9516500234603882,-1.2200989723205566,0.6111559867858887
1772402127082301000,5.364301025390625,-0.42827901244163513,-1.7208789587020874,-0.5974739789962769
1772402127102357200,5.384357177734375,-2.7058238983154297,-2.014302968978882,-0.914779007434845
1772402127122413300,5.404413330078125,-3.6166579723358154,-1.1234420537948608,-0.7510240077972412
1772402127142469600,5.4244697265625,-2.224526882171631,0.2988460063934326,-0.16961899399757385
1772402127162525700,5.444525634765625,-0.3052220046520233,1.4934760332107544,0.07310400158166885
1772402127182581800,5.464581787109375,0.11582200229167938,2.050781011581421,-0.45671600103378296
1772402127202637800,5.484637939453125,-0.8897420167922974,2.0814249515533447,-1.0245720148086548
1772402127222694100,5.504694091796875,-2.2093939781188965,1.9251389503479004,-1.5476579666137695
1772402127242750200,5.524750244140625,-3.4763150215148926,1.3625119924545288,-2.219726085662842
1772402127262806500,5.544806640625,-4.064251899719238,1.001209020614624,-2.5149810314178467
1772402127282862600,5.564862548828125,-3.4754021167755127,0.9393669962882996,-2.2759850025177
1772402127302918700,5.584918701171875,-2.1027209758758545,0.6650940179824829,-1.5031880140304565
1772402127322974700,5.604974609375,-1.1069769859313965,0.5528749823570251,-0.8177499771118164
1772402127343031000,5.625031005859375,-0.7519810199737549,0.35669898986816406,-0.0949999988079071
1772402127363087000,5.645087158203125,-0.6607850193977356,0.3485589921474457,0.4503990113735199
1772402127383143400,5.665143310546875,-0.09742800146341324,0.7380470037460327,0.8331189751625061
1772402127403199500,5.685199462890625,0.6228569746017456,1.1920380592346191,1.097694993019104
1772402127423255800,5.705255859375,1.3254859447479248,1.3600300550460815,1.462156057357788
1772402127443311900,5.725311767578125,2.1771891117095947,1.147223949432373,2.22332501411438
1772402127463368200,5.7453681640625,3.144150972366333,1.2929790019989014,2.9026598930358887
1772402127483424300,5.76542431640625,5.192920207977295,1.5479830503463745,4.109327793121338
1772402127503480300,5.785480224609375,8.639937400817871,1.0503859519958496,4.205061912536621
1772402127523536600,5.80553662109375,9.160749435424805,0.3923090100288391,1.1632499694824219
1772402127543592700,5.8255927734375,6.395799160003662,0.07064700126647949,-0.6229990124702454
1772402127563648800,5.845648681640625,2.9710400104522705,-1.8418819904327393,-0.7855989933013916
1772402127583705000,5.865705078125,-2.761568069458008,-4.507104873657227,-1.0116790533065796
1772402127603761200,5.88576123046875,-6.764453887939453,-6.312084197998047,-2.592542886734009
1772402127623817200,5.905817138671875,-8.341963768005371,-5.04246711730957,-3.0156350135803223
1772402127643873300,5.925873291015625,-6.183170795440674,-4.8115739822387695,-1.020508050918579
1772402127663929600,5.9459296875,-3.1137359142303467,-3.7684590816497803,-2.0436060428619385
1772402127683986000,5.96598583984375,-3.477389097213745,-1.8427670001983643,-2.9980850219726562
1772402127704041700,5.986041748046875,-4.701111793518066,-0.24461400508880615,-2.575268030166626
1772402127724097800,6.006097900390625,-2.8280889987945557,0.501908004283905,-0.4818139970302582
1772402127744154000,6.026154052734375,0.6487280130386353,1.135125994682312,1.996948003768921
1772402127764210200,6.046210205078125,2.394181966781616,1.836899995803833,3.0167579650878906
1772402127784266500,6.0662666015625,2.852144956588745,2.2991199493408203,2.5990068912506104
1772402127804322600,6.086322509765625,2.527316093444824,2.4976959228515625,0.8072050213813782
1772402127824379000,6.10637890625,1.531453013420105,2.3829569816589355,-0.3022350072860718
1772402127844435000,6.12643505859375,0.5811619758605957,1.9831650257110596,-0.6169880032539368
1772402127864491000,6.146490966796875,-0.023070000112056732,1.7209320068359375,-0.828790009021759
1772402127884547000,6.166547119140625,-0.497655987739563,1.66554594039917,-1.1422319412231445
1772402127904603400,6.186603271484375,-0.49572399258613586,1.493237018585205,-1.2353860139846802
1772402127924659500,6.206659423828125,0.19941900670528412,1.2481889724731445,-1.205909013748169
1772402127944715800,6.2267158203125,0.8395349979400635,1.0489510297775269,-0.9703270196914673
1772402127964771600,6.246771484375,1.3452290296554565,1.0151610374450684,-0.11226099729537964
1772402127984828000,6.266827880859375,1.220181941986084,0.9177280068397522,0.7509899735450745
1772402128004884000,6.286884033203125,0.8593459725379944,0.4429830014705658,1.071992039680481
1772402128024940300,6.306940185546875,0.6434760093688965,-0.1264130026102066,0.8263940215110779
1772402128044996000,6.32699609375,0.8515809774398804,-0.6315299868583679,0.8435149788856506
1772402128065052200,6.34705224609375,1.6604650020599365,-0.7964239716529846,0.9892119765281677
1772402128085108500,6.3671083984375,2.2075719833374023,-0.612339973449707,1.2809690237045288
1772402128105164500,6.38716455078125,2.0876569747924805,-0.051472000777721405,1.4007749557495117
1772402128125220900,6.407220947265625,1.4629249572753906,-0.07157699763774872,2.111020088195801
1772402128145277000,6.42727685546875,0.9039409756660461,-1.407662034034729,2.5200159549713135
1772402128165333200,6.447333251953125,0.6983519792556763,-2.8133299350738525,2.7360129356384277
1772402128185389300,6.467389404296875,-0.758916974067688,-3.9554638862609863,1.6392099857330322
1772402128205445400,6.4874453125,-1.2431340217590332,-3.7771708965301514,-0.39583098888397217
1772402128225501400,6.50750146484375,0.5918920040130615,-3.336137056350708,-1.2358649969100952
1772402128245557800,6.527557861328125,0.24551300704479218,-2.7993099689483643,-1.6702920198440552
1772402128265613800,6.54761376953125,-1.7115880250930786,-1.9618480205535889,-1.623432993888855
1772402128285670000,6.567669921875,-2.5684709548950195,-0.3070780038833618,-1.1403470039367676
1772402128305726200,6.587726318359375,-1.4667760133743286,1.5743370056152344,-0.9250770211219788
1772402128325782500,6.607782470703125,-0.5238199830055237,2.6914689540863037,-0.5848619937896729
1772402128345838600,6.627838623046875,-0.8886560201644897,3.0923750400543213,-0.3470889925956726
1772402128365894700,6.647894775390625,-1.286924958229065,3.1322999000549316,-0.5328710079193115
1772402128385950700,6.66795068359375,-1.736739993095398,2.670639991760254,-1.2054970264434814
1772402128406006800,6.6880068359375,-2.208591938018799,2.1749119758605957,-1.5779969692230225
1772402128426063000,6.70806298828125,-2.504473924636841,1.6367290019989014,-1.8839980363845825
1772402128446119200,6.728119140625,-2.708379030227661,1.2589830160140991,-1.8039979934692383
1772402128466175500,6.748175537109375,-3.377103090286255,0.9919859766960144,-1.5615979433059692
1772402128486231300,6.768231201171875,-3.9560821056365967,0.9351890087127686,-0.9292790293693542
1772402128506287400,6.788287353515625,-2.8152658939361572,1.0553510189056396,0.4333760142326355
1772402128526343700,6.80834375,-1.0914130210876465,1.1922810077667236,0.9939010143280029
1772402128546399700,6.828399658203125,0.6020690202713013,1.1706249713897705,0.6767209768295288
1772402128566456000,6.8484560546875,2.788055896759033,1.0325000286102295,1.2229759693145752
1772402128586512100,6.86851220703125,4.748845100402832,0.670799970626831,1.8599809408187866
1772402128606568200,6.888568115234375,5.0286760330200195,0.19343900680541992,1.9335850477218628
1772402128626624500,6.90862451171875,4.0405402183532715,0.08995100110769272,1.2060680389404297
1772402128646680600,6.9286806640625,3.7836320400238037,0.19836099445819855,0.6776540279388428
1772402128666736600,6.948736572265625,6.24850606918335,0.8250889778137207,0.4309230148792267
1772402128686793000,6.96879296875,9.10920524597168,0.4776709973812103,0.2183379977941513
1772402128706849000,6.98884912109375,6.546564102172852,1.3917369842529297,0.31467100977897644
1772402128726905000,7.008905029296875,0.6092510223388672,-1.3730100393295288,0.4549359977245331
1772402128746961400,7.02896142578125,-4.367800235748291,-4.568808078765869,0.3679490089416504
1772402128767017500,7.049017578125,-5.795039176940918,-6.015046119689941,-1.5984400510787964
1772402128787073500,7.069073486328125,-5.248830795288086,-5.526436805725098,-1.3995519876480103
1772402128807129600,7.089129638671875,-4.350265026092529,-3.870748996734619,-1.272441029548645
1772402128827185700,7.109185546875,-4.193012237548828,-2.6349990367889404,-1.4915529489517212
1772402128847242000,7.129241943359375,-4.788809776306152,-1.8151990175247192,-2.0620429515838623
1772402128867298000,7.149298095703125,-4.559047222137451,-0.5633599758148193,-2.1992340087890625
1772402128887354000,7.16935400390625,-1.7720379829406738,0.5029119849205017,-0.41538700461387634
1772402128907410400,7.189410400390625,1.2143690586090088,1.3183300495147705,1.3476899862289429
1772402128927466500,7.209466552734375,2.1778950691223145,2.2034640312194824,1.670151948928833
1772402128947522600,7.2295224609375,1.5087159872055054,2.827570915222168,1.4409209489822388
1772402128967578600,7.24957861328125,0.7317730188369751,2.9804561138153076,1.347936987876892
1772402128987635000,7.269635009765625,0.3542180061340332,3.065964937210083,1.1879489421844482
1772402129007691000,7.28969091796875,-0.21262499690055847,2.9239718914031982,0.8407589793205261
1772402129027747000,7.3097470703125,-0.6220999956130981,2.620776891708374,0.2190070003271103
1772402129047803100,7.32980322265625,-0.159279003739357,1.9990220069885254,-0.3799929916858673
1772402129067859200,7.349859130859375,0.5893759727478027,1.2760169506072998,-0.7639939785003662
1772402129087915500,7.36991552734375,0.9427000284194946,0.6008139848709106,-1.3775949478149414
1772402129107971600,7.3899716796875,1.485360026359558,0.13265100121498108,-2.303675889968872
1772402129128027600,7.410027587890625,2.127487897872925,0.059721000492572784,-2.6053409576416016
1772402129148084000,7.430083984375,1.9547899961471558,-0.048222001641988754,-1.7794729471206665
1772402129168140000,7.45014013671875,1.5006320476531982,-0.20897799730300903,-0.16837799549102783
1772402129188196000,7.470196044921875,2.0141050815582275,-0.5535820126533508,1.214097023010254
1772402129208252200,7.490252197265625,1.950484037399292,-1.0924650430679321,1.4712769985198975
1772402129228308500,7.51030859375,1.2251869440078735,-1.2667720317840576,1.0506219863891602
1772402129248364500,7.530364501953125,1.345749020576477,-1.1470179557800293,0.8940969705581665
1772402129268420600,7.550420654296875,1.4925990104675293,-0.7472140192985535,0.8048779964447021
1772402129288476700,7.5704765625,0.8260790109634399,-0.6841710209846497,1.1303019523620605
1772402129308532700,7.59053271484375,0.13046400249004364,-1.0393370389938354,1.561040997505188
1772402129328589000,7.610589111328125,0.49316999316215515,-1.6898690462112427,4.0096330642700195
1772402129348645000,7.63064501953125,1.0017369985580444,-3.0734949111938477,4.502106189727783
1772402129368701200,7.650701171875,1.8261899948120117,-2.556396007537842,1.6384849548339844
1772402129388757200,7.67075732421875,1.7249510288238525,-2.273118019104004,-0.564411997795105
1772402129408813300,7.690813232421875,-1.6576379537582397,-2.4320929050445557,-1.6451289653778076
1772402129428869600,7.71086962890625,-5.208510875701904,-1.9008749723434448,-2.300102949142456
1772402129448925400,7.730925537109375,-5.624407768249512,-0.8486989736557007,-1.535282015800476
1772402129468981500,7.7509814453125,-3.4515271186828613,0.6578390002250671,-0.8530259728431702
1772402129489037800,7.771037841796875,-1.7444219589233398,1.8246710300445557,-0.49842000007629395
1772402129509094000,7.791093994140625,-0.6467369794845581,2.5213370323181152,-0.4835360050201416
1772402129529150000,7.81114990234375,-0.6301890015602112,2.796268939971924,-1.0436290502548218
1772402129549206000,7.8312060546875,-1.2817519903182983,2.4322149753570557,-1.704503059387207
1772402129569262000,7.851261962890625,-1.311000943183899,1.8577719926834106,-2.192401885986328
1772402129589318400,7.871318359375,-1.1696009635925293,1.5438179969787598,-2.3451220989227295
1772402129609374500,7.89137451171875,-2.102081060409546,1.3998539447784424,-2.2672979831695557
1772402129629430500,7.911430419921875,-2.982464075088501,1.5238829851150513,-1.57463800907135
1772402129649486600,7.931486572265625,-3.4259719848632812,1.3991060256958008,-0.4725100100040436
1772402129689599000,7.971598876953125,-1.7043019533157349,0.23190799355506897,1.5076730251312256
1772402129769823500,8.051823486328125,4.643249034881592,0.4810180068016052,3.2538371086120605
1772402129789879600,8.071879638671875,6.612198829650879,1.236814022064209,3.6526689529418945
1772402129809936000,8.091935791015626,10.10895824432373,0.8094509840011597,3.726135015487671
1772402129829991700,8.11199169921875,11.803167343139648,0.07636100053787231,1.8801079988479614
1772402129850048000,8.132048095703125,7.145733833312988,0.0994890034198761,-0.21431300044059753
1772402129870104000,8.15210400390625,1.8973870277404785,0.5947909951210022,-0.3210499882698059
1772402129890160000,8.17216015625,-1.9772900342941284,-1.5601660013198853,0.44075900316238403
1772402129910216200,8.19221630859375,-5.173031806945801,-3.9561328887939453,-0.27779099345207214
1772402129930272300,8.212272216796874,-6.075225830078125,-4.68170690536499,-1.7654329538345337
1772402129950328600,8.23232861328125,-5.608980178833008,-4.566965103149414,-1.6499470472335815
1772402129970384600,8.252384521484375,-4.467984199523926,-3.1671719551086426,-0.8895570039749146
1772402129990440700,8.272440673828125,-3.9479870796203613,-2.3465371131896973,-2.1556448936462402
1772402130010496800,8.292496826171876,-4.254389762878418,-1.7884299755096436,-2.818916082382202
1772402130030552800,8.312552734375,-3.692312002182007,-0.7091439962387085,-2.7095329761505127
1772402130050609000,8.33260888671875,-1.8506489992141724,0.29828399419784546,-1.7420259714126587
1772402130070665200,8.352665283203125,0.12427899986505508,1.2714279890060425,0.0455779992043972
1772402130090721300,8.37272119140625,1.6034239530563354,2.3539419174194336,0.8924630284309387
1772402130110777300,8.39277734375,2.0835390090942383,3.0511538982391357,1.1835700273513794
1772402130130833400,8.41283349609375,1.9004310369491577,3.2513229846954346,1.1860560178756714
1772402130150889500,8.432889404296875,1.428344964981079,2.966658115386963,1.0600450038909912
1772402130170945800,8.45294580078125,1.274675965309143,2.73732590675354,0.8560349941253662
1772402130191001900,8.473001953125,0.8701410293579102,2.188261032104492,0.04482800140976906
1772402130211058000,8.493057861328126,0.3705120086669922,1.5706089735031128,-1.1497360467910767
1772402130231114200,8.5131142578125,0.0740090012550354,1.0532870292663574,-1.9149889945983887
1772402130251170300,8.53317041015625,0.3160080015659332,0.6130290031433105,-2.3783910274505615
1772402130271226400,8.553226318359375,1.5880060195922852,0.218422994017601,-2.265113115310669
1772402130291282400,8.573282470703125,2.4600040912628174,0.0771389976143837,-1.5592900514602661
1772402130311338500,8.59333837890625,1.8816039562225342,0.2705110013484955,-0.5306320190429688
1772402130331394800,8.613394775390624,0.7524830102920532,0.17560799419879913,0.5570939779281616
1772402130351451000,8.633450927734375,0.6555870175361633,-0.11391299962997437,1.0760749578475952
1772402130371507200,8.653507080078125,1.3748689889907837,-0.4991300106048584,0.7224599719047546
1772402130391563000,8.67356298828125,1.607895016670227,-0.8497040271759033,0.5819680094718933
1772402130411619000,8.693619140625,1.3279169797897339,-0.7965630292892456,0.523173987865448
1772402130431675400,8.71367529296875,0.7655329704284668,-0.6236500144004822,0.5713390111923218
1772402130451731500,8.7337314453125,0.20282599329948425,-1.4621200561523438,1.229071021080017
1772402130471787500,8.75378759765625,0.20066100358963013,-2.0680959224700928,1.2800569534301758
1772402130491843800,8.77384375,0.7597290277481079,-2.7272770404815674,1.5088449716567993
1772402130511899600,8.793899658203125,0.9469829797744751,-2.1490209102630615,0.8950759768486023
1772402130531956000,8.8139560546875,1.5999870300292969,-1.5776170492172241,1.125661015510559
1772402130552012000,8.834011962890624,1.2055890560150146,-1.788493037223816,1.1437289714813232
1772402130572068000,8.854068115234375,-1.1883280277252197,-1.5539950132369995,0.8709830045700073
1772402130592124400,8.87412451171875,-2.6210620403289795,-0.7407960295677185,0.3327859938144684
1772402130612180200,8.89418017578125,-1.5504499673843384,0.0025629999581724405,-0.2753700017929077
1772402130632236300,8.914236328125,-0.3867590129375458,0.8948500156402588,-1.1458959579467773
1772402130652292600,8.934292724609374,-0.61980801820755,1.6566799879074097,-1.8551169633865356
1772402130672348700,8.9543486328125,-1.935845971107483,1.8917429447174072,-1.793692946434021
1772402130692405000,8.974405029296875,-3.400676965713501,1.914194941520691,-1.7029550075531006
1772402130712460800,8.994460693359375,-4.24934196472168,1.8449560403823853,-1.7015639543533325
1772402130732516900,9.014516845703126,-3.8298730850219727,1.6215649843215942,-1.646051049232483
1772402130752573000,9.034572998046874,-3.0390989780426025,1.1860510110855103,-1.4320399761199951
1772402130772629200,9.054629150390625,-2.645678997039795,0.8496410250663757,-1.1440320014953613
1772402130792685300,9.074685302734375,-2.1797430515289307,0.7197129726409912,-0.5832260251045227
1772402130812741600,9.09474169921875,-1.4181950092315674,0.5757700204849243,-0.22737999260425568
1772402130832797400,9.11479736328125,-0.42415499687194824,0.6006159782409668,0.034095000475645065
1772402130852853500,9.134853515625,0.23667499423027039,1.1836930513381958,0.8064759969711304
1772402130872909800,9.154909912109375,0.4749400019645691,1.6629539728164673,1.9547799825668335
1772402130892966000,9.1749658203125,1.2575520277023315,1.8839629888534546,2.443023920059204
1772402130913022000,9.19502197265625,2.492440938949585,1.9415700435638428,2.8704190254211426
1772402130933078000,9.215078125,3.4707529544830322,2.1204559803009033,2.9931349754333496
1772402130953134300,9.23513427734375,5.191802978515625,1.8155649900436401,1.7225079536437988
1772402130973190100,9.255190185546875,7.1198410987854,0.8716520071029663,0.5772070288658142
1772402130993246500,9.27524658203125,6.912672996520996,0.40052199363708496,0.8337649703025818
1772402131013302500,9.295302490234375,5.207738876342773,0.8204169869422913,1.1742119789123535
1772402131033358600,9.315358642578126,3.6477909088134766,-1.1308649778366089,3.5057690143585205
1772402131053414700,9.33541455078125,1.4606330394744873,-5.155093193054199,3.2190160751342773
1772402131073471000,9.355470947265625,-1.1778919696807861,-7.121674060821533,-1.1775870323181152
1772402131093526800,9.37552685546875,-3.3255128860473633,-6.166138172149658,-4.005270004272461
1772402131113583000,9.3955830078125,-5.667611122131348,-4.340910911560059,-3.3938159942626953
1772402131133639200,9.41563916015625,-8.546089172363281,-2.735929012298584,-2.510251998901367
1772402131153695500,9.435695556640624,-9.0584716796875,-1.2271430492401123,-2.5370020866394043
1772402131173751600,9.45575146484375,-6.587576866149902,-0.540913999080658,-2.591201066970825
1772402131193807400,9.475807373046875,-2.355660915374756,0.09206800162792206,-1.541761040687561
1772402131213863700,9.49586376953125,0.47707000374794006,1.0216540098190308,-0.24780899286270142
1772402131233919700,9.515919677734376,1.8008559942245483,2.3053228855133057,0.7785519957542419
1772402131253975800,9.535975830078126,2.4422850608825684,3.1778581142425537,1.6492420434951782
1772402131274032000,9.5560322265625,2.0322279930114746,3.216686964035034,1.5225930213928223
1772402131294088200,9.576088134765625,1.4537819623947144,2.83174991607666,0.9628750085830688
1772402131314144000,9.59614404296875,1.1286250352859497,2.221400022506714,0.4950999915599823
1772402131334200300,9.616200439453126,0.6284999847412109,1.321120023727417,0.0008800000068731606
1772402131354256400,9.63625634765625,0.33079999685287476,0.4744960069656372,-1.0904959440231323
1772402131374312700,9.656312744140624,0.6230400204658508,-0.11080300062894821,-1.5099960565567017
1772402131394368800,9.67636865234375,1.028831958770752,-0.7166420221328735,-1.387997031211853
1772402131414424800,9.6964248046875,1.1006660461425781,-1.019713044166565,-1.9087979793548584
1772402131434481000,9.71648095703125,0.7365319728851318,-0.7773699760437012,-2.0350379943847656
1772402131454537000,9.736536865234376,0.7332260012626648,-0.2674970030784607,-1.1376299858093262
1772402131474593000,9.756593017578124,1.3697810173034668,0.20520199835300446,0.6194949746131897
1772402131494649300,9.7766494140625,2.2742249965667725,0.4689610004425049,2.506795883178711
1772402131514705200,9.796705078125,3.142580032348633,0.3823690116405487,2.896636962890625
1772402131534761200,9.81676123046875,3.2476630210876465,0.07069499790668488,2.405308961868286
1772402131554817500,9.836817626953126,2.4637300968170166,-0.13864299654960632,1.1770470142364502
1772402131574873600,9.85687353515625,0.7757850289344788,-0.16291500627994537,0.393638014793396
1772402131594929700,9.8769296875,-0.4537709951400757,-0.05353200063109398,0.6253100037574768
1772402131614985700,9.89698583984375,-0.7230160236358643,-0.5812249779701233,1.3434480428695679
1772402131635041800,9.917041748046875,-1.13761305809021,-1.2177799940109253,1.7811579704284668
1772402131655097900,9.937097900390626,-0.5460900068283081,-1.2038240432739258,1.229727029800415
1772402131675154200,9.957154296875,0.8007270097732544,-1.6046589612960815,0.5949810147285461
1772402131695210200,9.977210205078125,0.8141819834709167,-1.5141270160675049,-0.2272139936685562
1772402131715266300,9.997266357421875,-0.4286539852619171,-1.908102035522461,-0.3233709931373596
1772402131735322400,10.017322265625,-1.7485229969024658,-1.9040809869766235,-0.1570969969034195
1772402131755378400,10.03737841796875,-3.2492189407348633,-1.7608649730682373,-0.41687801480293274
1772402131775434500,10.0574345703125,-2.6801750659942627,-0.6366919875144958,-0.6111019849777222
1772402131795490800,10.07749072265625,-0.9233400225639343,0.3106459975242615,-0.0888810008764267
1772402131815547000,10.097546875,0.2797270119190216,1.4229170083999634,-0.18790499866008759
1772402131835603000,10.11760302734375,0.30618101358413696,1.9351329803466797,-0.6903240084648132
1772402131855659000,10.137658935546876,-0.6398540139198303,1.6857069730758667,-1.5178589820861816
1772402131875715000,10.157715087890624,-2.155082941055298,1.4197659492492676,-2.2494869232177734
1772402131895771400,10.177771484375,-3.3160669803619385,1.4342119693756104,-2.071589946746826
1772402131915827500,10.197827392578125,-3.3168530464172363,1.7545700073242188,-1.16047203540802
1772402131935883500,10.217883544921875,-2.8662819862365723,1.6564559936523438,-0.14677700400352478
1772402131955939800,10.23793994140625,-2.174626111984253,0.9899640083312988,0.14897699654102325
1772402131975996000,10.257995849609374,-0.9085010290145874,0.6983709931373596,-0.29441699385643005
