time,seconds_elapsed,z,y,x
1772402122048112000,0.330112060546875,11.76300048828125,-14.280000686645508,-0.534000039100647
1772402122128428800,0.4104287109375,13.633050918579102,-11.032950401306152,-1.1299500465393066
1772402122148485000,0.430485107421875,10.546950340270996,-10.701000213623047,0.021000001579523087
1772402122168541200,0.450541259765625,9.03600025177002,-10.384950637817383,0.226950004696846
1772402122188597200,0.47059716796875,11.002050399780273,-10.08495044708252,0.6000000238418579
1772402122208653300,0.4906533203125,11.992950439453125,-9.53895092010498,1.2510000467300415
1772402122228709400,0.51070947265625,10.611000061035156,-8.94795036315918,2.3479502201080322
1772402122248765700,0.530765625,8.46405029296875,-8.244000434875488,3.6310501098632812
1772402122268821800,0.55082177734375,7.615950584411621,-7.4920501708984375,5.158950328826904
1772402122288878000,0.570878173828125,8.674050331115723,-7.308000564575195,7.026000499725342
1772402122308934100,0.59093408203125,9.400050163269043,-8.677050590515137,7.153050422668457
1772402122328990200,0.610990234375,8.176050186157227,-8.995950698852539,7.771050453186035
1772402122349046300,0.63104638671875,7.117950439453125,-11.029050827026367,8.187000274658203
1772402122369102600,0.6511025390625,6.58905029296875,-13.37700080871582,4.736999988555908
1772402122389158700,0.67115869140625,6.271050453186035,-14.479050636291504,-0.6390000581741333
1772402122409214700,0.691214599609375,3.747000217437744,-13.519050598144531,-4.939050197601318
1772402122429271000,0.71127099609375,1.5370501279830933,-12.83595085144043,-4.657050132751465
1772402122449327000,0.7313271484375,2.980950117111206,-11.292000770568848,-2.3770501613616943
1772402122469383200,0.751383056640625,5.167050361633301,-9.460050582885742,0.8419500589370728
1772402122489439500,0.771439453125,5.974050521850586,-8.200950622558594,2.1660001277923584
1772402122509495600,0.79149560546875,5.959050178527832,-7.2960004806518555,1.2820500135421753
1772402122529551600,0.811551513671875,4.603950023651123,-6.232950210571289,0.1860000044107437
1772402122549608000,0.83160791015625,2.3560500144958496,-5.685000419616699,0.15000000596046448
1772402122569664000,0.8516640625,2.200050115585327,-5.701050281524658,0.922950029373169
1772402122589720000,0.871719970703125,3.850050210952759,-5.728050231933594,0.9300000667572021
1772402122609776000,0.891776123046875,4.255050182342529,-6.604050159454346,0.5380499958992004
1772402122629832200,0.911832275390625,2.8950002193450928,-6.9970502853393555,-0.3330000042915344
1772402122649888500,0.931888427734375,2.3970000743865967,-6.324000358581543,0.4759500324726105
1772402122669944600,0.951944580078125,2.4469501972198486,-5.304000377655029,2.448000192642212
1772402122690001000,0.9720009765625,3.1530001163482666,-5.56695032119751,2.6260502338409424
1772402122710057000,0.992056884765625,4.82895040512085,-5.139000415802002,3.016050100326538
1772402122730113000,1.012113037109375,5.713050365447998,-5.170050144195557,3.3030002117156982
1772402122750169300,1.03216943359375,6.649050235748291,-5.443050384521484,3.624000072479248
1772402122770225200,1.05222509765625,7.386000156402588,-6.468000411987305,2.700000047683716
1772402122790281500,1.072281494140625,7.258950233459473,-6.6499505043029785,2.518050193786621
1772402122810337500,1.092337646484375,7.603950500488281,-7.012950420379639,2.6140501499176025
1772402122830393600,1.1123935546875,7.954050540924072,-8.044950485229492,1.4740500450134277
1772402122850449700,1.13244970703125,6.820950508117676,-7.8160505294799805,0.7050000429153442
1772402122870506000,1.152506103515625,5.764950275421143,-8.40000057220459,2.338050127029419
1772402122890562000,1.17256201171875,8.72504997253418,-8.773050308227539,6.862950325012207
1772402122910618400,1.192618408203125,18.98400115966797,-14.658000946044922,5.869950294494629
1772402122930674200,1.212674072265625,20.538000106811523,-12.094050407409668,1.5510001182556152
1772402122950730200,1.232730224609375,9.964950561523438,-10.53795051574707,-0.48405003547668457
1772402122970786600,1.25278662109375,-1.5810000896453857,-9.031949996948242,-2.1949501037597656
1772402122990842600,1.272842529296875,-5.278050422668457,-8.41604995727539,-0.7230000495910645
1772402123010899000,1.29289892578125,-4.507050037384033,-9.79995059967041,0.21495001018047333
1772402123030955000,1.312955078125,-1.13100004196167,-9.196950912475586,-0.8590500354766846
1772402123051011000,1.333010986328125,2.9740500450134277,-9.397950172424316,0.022950001060962677
1772402123071067100,1.353067138671875,5.074050426483154,-8.740050315856934,-0.4120500087738037
1772402123091123500,1.37312353515625,6.373950481414795,-8.43600082397461,-1.2229501008987427
1772402123111179500,1.393179443359375,5.473050117492676,-7.950000286102295,-0.7279500365257263
1772402123131235600,1.413235595703125,4.0819501876831055,-6.898950099945068,0.5590500235557556
1772402123151292000,1.4332919921875,3.6349501609802246,-5.967000484466553,1.633950114250183
1772402123171348200,1.45334814453125,4.947000026702881,-5.338050365447998,2.1510000228881836
1772402123191404300,1.473404296875,6.939000129699707,-5.673000335693359,3.0610501766204834
1772402123211460000,1.493460205078125,8.287050247192383,-5.769000053405762,2.7690000534057617
1772402123231516400,1.513516357421875,8.695950508117676,-6.052950382232666,1.867050051689148
1772402123251572500,1.533572509765625,8.287050247192383,-6.8359503746032715,0.5550000071525574
1772402123271628800,1.55362890625,6.397950172424316,-7.078050136566162,-0.6319500207901001
1772402123291684900,1.573684814453125,5.133000373840332,-6.990000247955322,-1.1350500583648682
1772402123311741000,1.593740966796875,5.362950325012207,-6.676050186157227,-0.6679500341415405
1772402123331797000,1.613796875,5.863950252532959,-7.059000492095947,0.27000001072883606
1772402123351853300,1.633853271484375,6.892950534820557,-8.140950202941895,0.24300001561641693
1772402123371909400,1.653909423828125,8.931000709533691,-8.838000297546387,0.556950032711029
1772402123391965700,1.673965576171875,11.575950622558594,-9.088950157165527,1.8139500617980957
1772402123412021800,1.694021728515625,11.872950553894043,-8.752050399780273,2.647050142288208
1772402123432077800,1.714077880859375,10.348050117492676,-8.062050819396973,3.2410502433776855
1772402123452134000,1.7341337890625,9.318000793457031,-7.957050323486328,3.982950210571289
1772402123472190200,1.754190185546875,8.617050170898438,-10.011000633239746,4.033050060272217
1772402123492246300,1.774246337890625,8.3100004196167,-11.589000701904297,2.5470001697540283
1772402123512302300,1.79430224609375,8.45895004272461,-12.877050399780273,1.9620001316070557
1772402123532358400,1.8143583984375,8.409000396728516,-13.10205078125,0.736050009727478
1772402123552414700,1.834414794921875,9.040950775146484,-13.179000854492188,0.22200001776218414
1772402123572470800,1.854470703125,6.445050239562988,-12.762001037597656,-0.4020000100135803
1772402123592527000,1.874527099609375,2.743950128555298,-12.553950309753418,-0.6820500493049622
1772402123612583200,1.894583251953125,2.6359500885009766,-11.602950096130371,-0.15600000321865082
1772402123632639500,1.914639404296875,4.906050205230713,-9.831000328063965,0.8389500379562378
1772402123652695600,1.934695556640625,6.508050441741943,-8.223000526428223,0.9810000658035278
1772402123672751600,1.954751708984375,7.687950134277344,-7.44195032119751,0.5550000071525574
1772402123692807700,1.9748076171875,6.163050174713135,-6.664050102233887,-0.2560500204563141
1772402123712864000,1.994864013671875,3.6010501384735107,-6.499050140380859,-1.5940500497817993
1772402123732920000,2.014920166015625,1.3789501190185547,-6.348000526428223,-2.2960500717163086
1772402123752976400,2.034976318359375,-0.028050001710653305,-6.082050323486328,-1.8790501356124878
1772402123773032700,2.05503271484375,-0.23100000619888306,-6.127950191497803,-1.585050106048584
1772402123793088800,2.0750888671875,0.9580500721931458,-6.243000507354736,-1.350000023841858
1772402123813144800,2.095144775390625,1.0030500888824463,-6.396000385284424,-0.7210500240325928
1772402123833201000,2.115200927734375,1.3429501056671143,-6.808050155639648,-0.1770000010728836
1772402123853257200,2.13525732421875,1.8370500802993774,-6.832050323486328,0.8149500489234924
1772402123873313300,2.155313232421875,0.7140000462532043,-5.851950168609619,1.8019500970840454
1772402123893369600,2.17536962890625,2.11395001411438,-5.761050224304199,3.1810500621795654
1772402123913425700,2.19542578125,4.882050037384033,-5.718000411987305,4.383000373840332
1772402123933482000,2.21548193359375,7.944000244140625,-5.176950454711914,5.496000289916992
1772402123953538000,2.2355380859375,9.895050048828125,-4.933050155639648,7.174050331115723
1772402123973594400,2.255594482421875,12.804000854492188,-6.553950309753418,8.475000381469727
1772402123993650400,2.275650390625,16.86495018005371,-7.612050533294678,7.660950183868408
1772402124013706500,2.29570654296875,18.33300018310547,-7.830000400543213,6.873000144958496
1772402124033762800,2.3157626953125,17.064001083374023,-11.437950134277344,7.4760003089904785
1772402124053819000,2.33581884765625,14.394001007080078,-16.171051025390625,6.825000286102295
1772402124073875200,2.355875244140625,10.120050430297852,-14.78700065612793,1.0120500326156616
1772402124093931300,2.37593115234375,5.145000457763672,-11.385000228881836,0.15000000596046448
1772402124113987300,2.3959873046875,-2.1919500827789307,-11.119950294494629,0.06105000153183937
1772402124134043400,2.41604345703125,-4.6720499992370605,-10.021050453186035,-1.180050015449524
1772402124154099700,2.436099609375,-3.4870500564575195,-10.06605052947998,-1.7860500812530518
1772402124174156000,2.456156005859375,-2.605950117111206,-9.493950843811035,-2.3149502277374268
1772402124194212000,2.476212158203125,0.003000000026077032,-9.310050010681152,-0.814050018787384
1772402124214268200,2.49626806640625,2.1259500980377197,-8.95995044708252,0.30300000309944153
1772402124234324500,2.516324462890625,2.54295015335083,-8.0910005569458,0.6529500484466553
1772402124254380500,2.536380615234375,2.8090500831604004,-7.669950485229492,0.5620500445365906
1772402124274436600,2.5564365234375,3.6660001277923584,-7.53795051574707,0.38895002007484436
1772402124294493000,2.576492919921875,3.9120001792907715,-7.321950435638428,0.7510500550270081
1772402124314549200,2.59654931640625,4.377000331878662,-6.930000305175781,1.29705011844635
1772402124334605300,2.616605224609375,5.923050403594971,-6.444000244140625,1.5739500522613525
1772402124354661400,2.636661376953125,7.378950119018555,-6.1710004806518555,1.651050090789795
1772402124374717700,2.6567177734375,7.789050579071045,-6.040950298309326,1.6630500555038452
1772402124394773800,2.676773681640625,7.687950134277344,-6.049050331115723,1.7160000801086426
1772402124414830000,2.696830078125,7.73805046081543,-6.006000518798828,2.0560500621795654
1772402124434886100,2.71688623046875,8.44694995880127,-5.962050437927246,2.794950246810913
1772402124454942200,2.736942138671875,9.205950736999512,-6.23805046081543,1.6219500303268433
1772402124474998500,2.75699853515625,9.429000854492188,-6.930000305175781,-0.46905001997947693
1772402124495054600,2.7770546875,8.952000617980957,-7.0570502281188965,-1.336050033569336
1772402124515111000,2.79711083984375,7.930050373077393,-7.078050136566162,-0.7330500483512878
1772402124535167200,2.817167236328125,7.374000549316406,-7.516050338745117,0.11595000326633453
1772402124555223300,2.837223388671875,7.408050537109375,-8.152950286865234,0.4420500099658966
1772402124575279400,2.857279296875,8.101950645446777,-9.087000846862793,0.4420500099658966
1772402124595335700,2.877335693359375,9.448050498962402,-9.51300048828125,0.6340500116348267
1772402124615392000,2.89739208984375,9.985950469970703,-9.597000122070312,1.7680500745773315
1772402124635448000,2.917447998046875,9.484050750732422,-10.842000961303711,3.463050127029419
1772402124655504100,2.937504150390625,8.803950309753418,-12.26205062866211,3.8989500999450684
1772402124675560400,2.957560546875,8.619000434875488,-12.558000564575195,2.7210001945495605
1772402124695616500,2.977616455078125,8.422950744628906,-11.995950698852539,1.5240000486373901
1772402124715672800,2.9976728515625,8.296050071716309,-12.058050155639648,1.5649501085281372
1772402124735729000,3.01772900390625,7.2210001945495605,-12.352951049804688,2.4559500217437744
1772402124755785200,3.03778515625,4.171050071716309,-12.51300048828125,2.3959500789642334
1772402124775841300,3.05784130859375,2.0350501537323,-12.168000221252441,1.9309500455856323
1772402124795897300,3.0778974609375,3.2059502601623535,-10.794000625610352,1.1430000066757202
1772402124815953700,3.09795361328125,5.3460001945495605,-9.685050010681152,0.1980000138282776
1772402124836009700,3.118009765625,6.019050121307373,-8.617950439453125,-0.12195000797510147
1772402124856065800,3.138065673828125,5.587950229644775,-7.579050540924072,-0.6490500569343567
1772402124876121900,3.158121826171875,5.302950382232666,-6.621000289916992,-1.2430500984191895
1772402124896178200,3.17817822265625,4.954050064086914,-5.862000465393066,-0.9889500737190247
1772402124916234500,3.198234375,3.109950065612793,-5.220000267028809,-1.0849500894546509
1772402124936290600,3.21829052734375,1.924950122833252,-5.019000053405762,-1.1490000486373901
1772402124956347000,3.238346923828125,1.53000009059906,-4.882950305938721,-0.984000027179718
1772402124976403000,3.25840283203125,1.4010000228881836,-4.969050407409668,-0.3850500285625458
1772402124996459000,3.278458984375,0.40005001425743103,-5.304000377655029,0.32505002617836
1772402125016515300,3.298515380859375,-0.31005001068115234,-5.356950283050537,0.8629500269889832
1772402125036571400,3.3185712890625,0.3160500228404999,-5.3710503578186035,1.0960500240325928
1772402125056627700,3.338627685546875,2.1739501953125,-5.184000015258789,1.527000069618225
1772402125076683800,3.358683837890625,4.357950210571289,-4.906949996948242,2.4240000247955322
1772402125096740000,3.378739990234375,6.148950099945068,-4.701000213623047,4.195950031280518
1772402125116796200,3.398796142578125,7.3309502601623535,-4.354050159454346,6.229050159454346
1772402125136852500,3.4188525390625,9.097949981689453,-4.638000011444092,8.131950378417969
1772402125156908800,3.43890869140625,15.238950729370117,-6.075000286102295,8.308950424194336
1772402125176964900,3.45896484375,20.97300148010254,-7.198050498962402,5.998950481414795
1772402125197021000,3.47902099609375,20.80095100402832,-6.207000255584717,4.6459503173828125
1772402125217077000,3.499076904296875,17.185951232910156,-6.312000274658203,3.9780001640319824
1772402125237133300,3.51913330078125,9.891000747680664,-9.348000526428223,3.0679502487182617
1772402125257189600,3.539189697265625,2.770050048828125,-13.440000534057617,1.1509500741958618
1772402125277245700,3.55924560546875,-2.227950096130371,-15.499051094055176,-0.0499500036239624
1772402125297302000,3.579302001953125,-2.971950054168701,-15.184950828552246,-0.04500000178813934
1772402125317358000,3.599358154296875,0.6060000061988831,-13.428000450134277,-1.5630000829696655
1772402125337414100,3.6194140625,3.3520500659942627,-11.66100025177002,-3.052950143814087
1772402125357470200,3.63947021484375,1.7530500888824463,-11.079000473022461,-3.2920501232147217
1772402125377526500,3.659526611328125,0.6780000329017639,-11.254050254821777,-1.3530000448226929
1772402125397582600,3.67958251953125,1.1610000133514404,-10.702950477600098,0.9829500317573547
1772402125417639000,3.699638916015625,3.4960501194000244,-9.352950096130371,3.235950231552124
1772402125437695000,3.719695068359375,6.4930500984191895,-7.555050373077393,4.182000160217285
1772402125457751000,3.7397509765625,8.104949951171875,-6.055950164794922,3.5520002841949463
1772402125477807400,3.759807373046875,8.548050880432129,-5.497950077056885,2.578050136566162
1772402125497863400,3.779863525390625,7.968000411987305,-4.939950466156006,1.990950107574463
1772402125517919700,3.799919677734375,6.928950309753418,-4.5,1.5910500288009644
1772402125537976000,3.81997607421875,5.619000434875488,-4.449000358581543,1.0170000791549683
1772402125558032000,3.840031982421875,4.827000141143799,-4.921050071716309,-0.16995000839233398
1772402125578088200,3.860088134765625,5.586000442504883,-5.634000301361084,-1.9560000896453857
1772402125598144500,3.88014453125,6.766050338745117,-6.28095006942749,-3.229950189590454
1772402125618200600,3.90020068359375,7.437000274658203,-6.207000255584717,-2.9850001335144043
1772402125638256600,3.920256591796875,7.896000385284424,-6.2310004234313965,-1.6780500411987305
1772402125658313000,3.94031298828125,8.017950057983398,-6.381000518798828,-0.05295000225305557
1772402125678369300,3.960369384765625,8.610000610351562,-6.408000469207764,1.5979501008987427
1772402125698425300,3.98042529296875,9.996000289916992,-6.547050476074219,3.198000192642212
1772402125718481700,4.000481689453125,11.539950370788574,-6.832050323486328,3.6100502014160156
1772402125738537700,4.020537841796875,12.177000999450684,-7.222050189971924,3.3289501667022705
1772402125758593800,4.04059375,11.941950798034668,-7.567050457000732,2.9920501708984375
1772402125778649900,4.06064990234375,10.89900016784668,-8.272950172424316,2.278050184249878
1772402125798706200,4.0807060546875,9.438000679016113,-9.384000778198242,2.914950132369995
1772402125818762500,4.100762451171875,9.321000099182129,-10.437000274658203,4.279950141906738
1772402125838818600,4.120818603515625,8.611950874328613,-12.336000442504883,4.254000186920166
1772402125858875000,4.140875,6.778050422668457,-14.341950416564941,2.6760001182556152
1772402125878931000,4.160930908203125,6.229950428009033,-15.039000511169434,0.6550500392913818
1772402125898987300,4.1809873046875,5.722050189971924,-14.455050468444824,-0.09600000083446503
1772402125919043000,4.20104296875,6.510000228881836,-13.770000457763672,1.2079501152038574
1772402125939099400,4.221099365234375,7.348050117492676,-11.887950897216797,2.986950159072876
1772402125959155500,4.241155517578125,9.469050407409668,-10.204950332641602,4.5769500732421875
1772402125979211800,4.261211669921875,10.506000518798828,-8.74905014038086,4.480950355529785
1772402125999268000,4.28126806640625,9.2989501953125,-7.123950481414795,3.0400500297546387
1772402126019324200,4.30132421875,7.1610002517700195,-6.097050189971924,1.2439500093460083
1772402126039380200,4.321380126953125,4.414950370788574,-5.467050075531006,-0.3540000021457672
1772402126059436300,4.341436279296875,2.2680001258850098,-5.341950416564941,-1.2160500288009644
1772402126079492600,4.36149267578125,0.5920500159263611,-5.014050006866455,-1.543950080871582
1772402126099548700,4.381548583984375,-0.5299500226974487,-4.561950206756592,-1.7070001363754272
1772402126119605000,4.40160498046875,-0.5490000247955322,-4.038000106811523,-1.1470500230789185
1772402126139661300,4.421661376953125,0.505050003528595,-3.5899500846862793,0.5740500092506409
1772402126159717400,4.44171728515625,1.645050048828125,-3.3859500885009766,1.8880500793457031
1772402126179773400,4.4617734375,2.9140501022338867,-3.115950107574463,2.5390501022338867
1772402126199829800,4.481829833984375,4.908000469207764,-2.662950038909912,2.8150501251220703
1772402126219885800,4.5018857421875,6.699000358581543,-2.656050205230713,2.716050148010254
1772402126239942000,4.52194189453125,7.801050186157227,-2.883000135421753,3.135000228881836
1772402126259998200,4.541998291015625,8.952000617980957,-3.3480000495910645,3.5590500831604004
1772402126280054300,4.56205419921875,9.727950096130371,-4.071000099182129,2.9610002040863037
1772402126300110600,4.582110595703125,10.879050254821777,-4.114050388336182,2.5230000019073486
1772402126320167000,4.6021669921875,15.531001091003418,-1.8990000486373901,2.9220001697540283
1772402126340223000,4.622222900390625,23.748001098632812,-2.5909500122070312,3.7219502925872803
1772402126360279300,4.642279296875,23.989952087402344,-3.6640501022338867,4.2370500564575195
1772402126380335000,4.662335205078125,15.205950736999512,-9.094050407409668,4.713000297546387
1772402126400391400,4.682391357421875,8.032950401306152,-13.216950416564941,2.1349501609802246
1772402126420447500,4.702447509765625,5.512050151824951,-13.791000366210938,-1.4239500761032104
1772402126440503800,4.72250390625,4.504050254821777,-12.136950492858887,-1.5730500221252441
1772402126460560000,4.742559814453125,0.984000027179718,-10.62600040435791,-0.856950044631958
1772402126480616000,4.762615966796875,-1.6080000400543213,-9.822000503540039,0.5899500250816345
1772402126500672000,4.782672119140625,-0.8299500346183777,-9.322050094604492,0.89205002784729
1772402126520728300,4.802728271484375,3.2560501098632812,-9.268950462341309,1.5310500860214233
1772402126540784600,4.82278466796875,7.153950214385986,-8.506950378417969,2.3050501346588135
1772402126560840700,4.8428408203125,9.237000465393066,-6.991950511932373,2.388000011444092
1772402126580896800,4.862896728515625,9.01200008392334,-5.46405029296875,2.02905011177063
1772402126600952800,4.882952880859375,7.819950580596924,-4.483050346374512,2.0050501823425293
1772402126621009200,4.903009033203125,6.98205041885376,-4.038000106811523,1.977000117301941
1772402126641065200,4.923065185546875,6.66795015335083,-3.742950201034546,1.612950086593628
1772402126661121500,4.94312158203125,6.499950408935547,-3.6450002193450928,1.171950101852417
1772402126681177600,4.963177490234375,6.313950061798096,-3.541950225830078,0.8629500269889832
1772402126701234000,4.98323388671875,6.369000434875488,-3.481950283050537,0.7890000343322754
1772402126721289700,5.003289794921875,7.180050373077393,-3.5659501552581787,0.9640500545501709
1772402126741346000,5.023345947265625,8.47095012664795,-3.7570502758026123,0.7579500079154968
1772402126761402400,5.04340234375,9.357000350952148,-3.931950092315674,0.3079500198364258
1772402126781458400,5.06345849609375,9.414000511169434,-4.180950164794922,0.2770500183105469
1772402126801514800,5.0835146484375,9.241950035095215,-4.45395040512085,0.7699500322341919
1772402126821570800,5.10357080078125,9.448050498962402,-4.713000297546387,1.3590000867843628
1772402126841627100,5.123627197265625,9.916950225830078,-5.035950183868408,1.6390501260757446
1772402126861683200,5.14368310546875,10.221000671386719,-5.260950088500977,1.7059500217437744
1772402126881739300,5.1637392578125,10.519950866699219,-5.395050048828125,1.7950501441955566
1772402126901795300,5.18379541015625,10.954050064086914,-5.529000282287598,1.495050072669983
1772402126921851600,5.2038515625,10.978050231933594,-5.752050399780273,1.1700000762939453
1772402126941907700,5.22390771484375,10.777050971984863,-5.848050117492676,1.5529500246047974
1772402126961964000,5.243964111328125,10.306950569152832,-6.178050518035889,2.5470001697540283
1772402126982020400,5.264020263671875,9.92400074005127,-7.203000545501709,3.5779502391815186
1772402127002076400,5.284076416015625,10.270950317382812,-7.903950214385986,4.6650004386901855
1772402127022132500,5.304132568359375,11.305950164794922,-8.437950134277344,5.592000484466553
1772402127042188500,5.3241884765625,12.028950691223145,-8.235000610351562,5.214000225067139
1772402127062244900,5.344244873046875,11.884950637817383,-8.503050804138184,4.32105016708374
1772402127082301000,5.364301025390625,10.398000717163086,-9.433950424194336,2.9629502296447754
1772402127102357200,5.384357177734375,7.444050312042236,-10.231050491333008,2.416950225830078
1772402127122413300,5.404413330078125,5.629050254821777,-9.621000289916992,2.3929500579833984
1772402127142469600,5.4244697265625,6.465000152587891,-8.124000549316406,2.9320502281188965
1772402127162525700,5.444525634765625,8.308050155639648,-6.5560503005981445,3.1930501461029053
1772402127182581800,5.464581787109375,8.758049964904785,-5.485950469970703,2.5489501953125
1772402127202637800,5.484637939453125,7.53000020980835,-4.935000419616699,1.725000023841858
1772402127222694100,5.504694091796875,5.658000469207764,-4.609950065612793,0.8149500489234924
1772402127242750200,5.524750244140625,3.5220000743865967,-4.8319501876831055,-0.4120500087738037
1772402127262806500,5.544806640625,1.9180500507354736,-4.942950248718262,-1.336050033569336
1772402127282862600,5.564862548828125,1.6380001306533813,-4.770000457763672,-1.6660500764846802
1772402127302918700,5.584918701171875,2.4850502014160156,-4.878000259399414,-1.2690000534057617
1772402127322974700,5.604974609375,3.204000234603882,-4.852050304412842,-0.7879500389099121
1772402127343031000,5.625031005859375,3.370950222015381,-4.959000110626221,-0.08895000070333481
1772402127363087000,5.645087158203125,3.2970001697540283,-4.879950046539307,0.5689499974250793
1772402127383143400,5.665143310546875,3.8359501361846924,-4.3060503005981445,1.1599500179290771
1772402127403199500,5.685199462890625,4.711950302124023,-3.553950071334839,1.6990500688552856
1772402127423255800,5.705255859375,5.7460503578186035,-3.0460500717163086,2.428950071334839
1772402127443311900,5.725311767578125,7.1419501304626465,-2.971950054168701,3.745950222015381
1772402127463368200,5.7453681640625,8.895000457763672,-2.5030500888824463,5.151000022888184
1772402127483424300,5.76542431640625,12.241950988769531,-1.8610501289367676,7.384950160980225
1772402127503480300,5.785480224609375,17.84895133972168,-2.095950126647949,8.532000541687012
1772402127523536600,5.80553662109375,20.659950256347656,-2.656050205230713,5.781000137329102
1772402127543592700,5.8255927734375,19.494001388549805,-2.9599502086639404,3.8389501571655273
1772402127563648800,5.845648681640625,16.812000274658203,-5.332950115203857,3.4800002574920654
1772402127583705000,5.865705078125,10.38900089263916,-9.124950408935547,3.0010502338409424
1772402127603761200,5.88576123046875,4.695000171661377,-12.508050918579102,0.7720500230789185
1772402127623817200,5.905817138671875,1.0320000648498535,-12.49905014038086,-0.4050000309944153
1772402127643873300,5.925873291015625,1.645050048828125,-13.471050262451172,1.3350000381469727
1772402127663929600,5.9459296875,3.936000108718872,-13.369950294494629,-0.19905000925064087
1772402127683986000,5.96598583984375,2.703000068664551,-11.905050277709961,-1.9030500650405884
1772402127704041700,5.986041748046875,0.3040500283241272,-10.368000030517578,-2.124000072479248
1772402127724097800,6.006097900390625,1.4700000286102295,-9.496050834655762,-0.15105000138282776
1772402127744154000,6.026154052734375,5.109000205993652,-8.578950881958008,2.82705020904541
1772402127764210200,6.046210205078125,7.453050136566162,-7.41795015335083,4.600950241088867
1772402127784266500,6.0662666015625,8.623950004577637,-6.381000518798828,4.833000183105469
1772402127804322600,6.086322509765625,8.931000709533691,-5.557950496673584,3.2430002689361572
1772402127824379000,6.10637890625,8.317950248718262,-5.07705020904541,2.058000087738037
1772402127844435000,6.12643505859375,7.513050556182861,-4.98105001449585,1.5889500379562378
1772402127864491000,6.146490966796875,6.903000354766846,-4.813050270080566,1.1700000762939453
1772402127884547000,6.166547119140625,6.304050445556641,-4.452000141143799,0.5710500478744507
1772402127904603400,6.186603271484375,6.181950092315674,-4.25100040435791,0.16905000805854797
1772402127924659500,6.206659423828125,6.927000522613525,-4.183950424194336,-0.10305000841617584
1772402127944715800,6.2267158203125,7.777050495147705,-4.120950222015381,-0.1099500060081482
1772402127964771600,6.246771484375,8.619000434875488,-3.901050090789795,0.7200000286102295
1772402127984828000,6.266827880859375,8.79900074005127,-3.769050121307373,1.7710500955581665
1772402128004884000,6.286884033203125,8.653050422668457,-4.132950305938721,2.359950065612793
1772402128024940300,6.306940185546875,8.598000526428223,-4.734000205993652,2.3209500312805176
1772402128044996000,6.32699609375,9.019050598144531,-5.397000312805176,2.5489501953125
1772402128065052200,6.34705224609375,10.243050575256348,-5.761050224304199,2.9419500827789307
1772402128085108500,6.3671083984375,11.341950416564941,-5.7300004959106445,3.553950071334839
1772402128105164500,6.38716455078125,11.743950843811035,-5.1820502281188965,4.024050235748291
1772402128125220900,6.407220947265625,11.485050201416016,-5.220000267028809,5.26200008392334
1772402128145277000,6.42727685546875,11.152050971984863,-6.907950401306152,6.301050186157227
1772402128165333200,6.447333251953125,11.121000289916992,-9.016950607299805,7.201050281524658
1772402128185389300,6.467389404296875,9.473999977111816,-11.148000717163086,6.514050483703613
1772402128205445400,6.4874453125,8.679000854492188,-11.914050102233887,4.380000114440918
1772402128225501400,6.50750146484375,10.66200065612793,-12.307050704956055,3.2310001850128174
1772402128245557800,6.527557861328125,10.37700080871582,-12.469950675964355,2.379000186920166
1772402128265613800,6.54761376953125,7.992000579833984,-12.123000144958496,2.020050048828125
1772402128285670000,6.567669921875,6.4930500984191895,-10.545000076293945,2.218050003051758
1772402128305726200,6.587726318359375,7.228050231933594,-8.269950866699219,2.202000141143799
1772402128325782500,6.607782470703125,8.039999961853027,-6.4800004959106445,2.3959500789642334
1772402128345838600,6.627838623046875,7.453050136566162,-5.305950164794922,2.5470001697540283
1772402128365894700,6.647894775390625,6.733050346374512,-4.483050346374512,2.227950096130371
1772402128385950700,6.66795068359375,5.848950386047363,-4.276950359344482,1.2540000677108765
1772402128406006800,6.6880068359375,4.825050354003906,-4.228950023651123,0.48705002665519714
1772402128426063000,6.70806298828125,3.9030001163482666,-4.357950210571289,-0.28995001316070557
1772402128446119200,6.728119140625,3.022050142288208,-4.420950412750244,-0.661050021648407
1772402128466175500,6.748175537109375,1.5090000629425049,-4.440000057220459,-0.8089500665664673
1772402128486231300,6.768231201171875,-0.05895000323653221,-4.263000011444092,-0.40905001759529114
1772402128506287400,6.788287353515625,0.37800002098083496,-3.879000186920166,1.062000036239624
1772402128526343700,6.80834375,1.828950047492981,-3.444000244140625,1.8709501028060913
1772402128546399700,6.828399658203125,3.6730501651763916,-3.172950267791748,1.7230501174926758
1772402128566456000,6.8484560546875,6.5560503005981445,-3.052950143814087,2.575050115585327
1772402128586512100,6.86851220703125,9.703950881958008,-3.2470500469207764,3.676950216293335
1772402128606568200,6.888568115234375,11.241000175476074,-3.6760501861572266,4.234050273895264
1772402128626624500,6.90862451171875,11.263050079345703,-3.7570502758026123,3.8080501556396484
1772402128646680600,6.9286806640625,11.952000617980957,-3.598950147628784,3.4489500522613525
1772402128666736600,6.948736572265625,15.979050636291504,-2.7660000324249268,3.3100502490997314
1772402128686793000,6.96879296875,21.117000579833984,-2.994000196456909,3.1519501209259033
1772402128706849000,6.98884912109375,20.191051483154297,-1.7320500612258911,3.327000141143799
1772402128726905000,7.008905029296875,14.406001091003418,-4.840050220489502,3.5809502601623535
1772402128746961400,7.02896142578125,8.337000846862793,-9.17805004119873,3.586050271987915
1772402128767017500,7.049017578125,5.461050033569336,-12.127950668334961,1.2199500799179077
1772402128787073500,7.069073486328125,4.695000171661377,-13.021050453186035,1.0690500736236572
1772402128807129600,7.089129638671875,4.50600004196167,-12.333000183105469,0.8779500126838684
1772402128827185700,7.109185546875,3.6150002479553223,-11.755950927734375,0.286050021648407
1772402128847242000,7.129241943359375,1.8220500946044922,-11.3899507522583,-0.7999500632286072
1772402128867298000,7.149298095703125,0.9120000600814819,-10.279050827026367,-1.4869500398635864
1772402128887354000,7.16935400390625,3.2560501098632812,-9.087000846862793,0.19305001199245453
1772402128907410400,7.189410400390625,6.5460004806518555,-7.942050457000732,2.2930500507354736
1772402128927466500,7.209466552734375,8.053950309753418,-6.505950450897217,3.0330002307891846
1772402128947522600,7.2295224609375,7.762050151824951,-5.175000190734863,3.163950204849243
1772402128967578600,7.24957861328125,7.168050289154053,-4.276950359344482,3.4080002307891846
1772402128987635000,7.269635009765625,6.879000186920166,-3.424950122833252,3.544950246810913
1772402129007691000,7.28969091796875,6.259050369262695,-2.836050033569336,3.4080002307891846
1772402129027747000,7.3097470703125,5.694000244140625,-2.4840002059936523,2.8410000801086426
1772402129047803100,7.32980322265625,6.117000102996826,-2.605950117111206,2.1469500064849854
1772402129067859200,7.349859130859375,7.012950420379639,-3.010050058364868,1.5720000267028809
1772402129087915500,7.36991552734375,7.6020002365112305,-3.5350501537323,0.6139500141143799
1772402129107971600,7.3899716796875,8.515950202941895,-3.970050096511841,-0.8880000710487366
1772402129128027600,7.410027587890625,9.690000534057617,-4.027950286865234,-1.8409501314163208
1772402129148084000,7.430083984375,10.006050109863281,-4.147950172424316,-1.4599500894546509
1772402129168140000,7.45014013671875,9.927000045776367,-4.360949993133545,0.10905000567436218
1772402129188196000,7.470196044921875,10.944000244140625,-4.843950271606445,1.7950501441955566
1772402129208252200,7.490252197265625,11.368050575256348,-5.656050205230713,2.419950008392334
1772402129228308500,7.51030859375,10.94895076751709,-6.147000312805176,2.26200008392334
1772402129248364500,7.530364501953125,11.406000137329102,-6.313950061798096,2.329050064086914
1772402129268420600,7.550420654296875,11.926050186157227,-6.100950241088867,2.4409501552581787
1772402129288476700,7.5704765625,11.4660005569458,-6.208950519561768,3.0490500926971436
1772402129308532700,7.59053271484375,10.803000450134277,-6.823950290679932,3.870000123977661
1772402129328589000,7.610589111328125,11.289000511169434,-7.897050380706787,7.32105016708374
1772402129348645000,7.63064501953125,12.04800033569336,-10.0489501953125,8.938950538635254
1772402129368701200,7.650701171875,13.329000473022461,-10.171050071716309,6.484950542449951
1772402129388757200,7.67075732421875,13.659000396728516,-10.456050872802734,4.141050338745117
1772402129408813300,7.690813232421875,9.86205005645752,-11.223000526428223,2.6490001678466797
1772402129428869600,7.71086962890625,5.008950233459473,-11.1670503616333,1.4190000295639038
1772402129448925400,7.730925537109375,3.1870501041412354,-10.32705020904541,1.8000000715255737
1772402129468981500,7.7509814453125,4.497000217437744,-8.656050682067871,2.269050121307373
1772402129489037800,7.771037841796875,5.767950057983398,-7.033050537109375,2.499000072479248
1772402129509094000,7.791093994140625,6.70395040512085,-5.706000328063965,2.3929500579833984
1772402129529150000,7.81114990234375,6.562950134277344,-4.73205041885376,1.5720000267028809
1772402129549206000,7.8312060546875,5.5909504890441895,-4.488000392913818,0.4849500358104706
1772402129569262000,7.851261962890625,5.233950138092041,-4.597949981689453,-0.5509500503540039
1772402129589318400,7.871318359375,5.08305025100708,-4.5259504318237305,-1.290000081062317
1772402129609374500,7.89137451171875,3.6250500679016113,-4.320000171661377,-1.7790000438690186
1772402129629430500,7.911430419921875,1.9990501403808594,-3.8149502277374268,-1.4800500869750977
1772402129649486600,7.931486572265625,0.6990000605583191,-3.5899500846862793,-0.49605002999305725
1772402129689599000,7.971598876953125,1.2280501127243042,-4.509000301361084,2.0820000171661377
1772402129769823500,8.051823486328125,9.345000267028809,-4.06095027923584,5.44605016708374
1772402129789879600,8.071879638671875,12.967050552368164,-2.995950222015381,6.757950305938721
1772402129809936000,8.091935791015626,18.991050720214844,-3.220950126647949,7.762950420379639
1772402129829991700,8.11199169921875,23.63595199584961,-3.934950113296509,6.38700008392334
1772402129850048000,8.132048095703125,20.764951705932617,-3.8869502544403076,4.23900032043457
1772402129870104000,8.15210400390625,15.991050720214844,-3.2430002689361572,4.051949977874756
1772402129890160000,8.17216015625,11.622000694274902,-5.788050174713135,4.924050331115723
1772402129910216200,8.19221630859375,7.132950305938721,-9.172950744628906,4.135950088500977
1772402129930272300,8.212272216796874,4.711950302124023,-11.068950653076172,2.2069501876831055
1772402129950328600,8.23232861328125,3.7759501934051514,-12.096000671386719,1.9099501371383667
1772402129970384600,8.252384521484375,3.799950122833252,-11.48805046081543,2.448000192642212
1772402129990440700,8.272440673828125,3.3330001831054688,-11.254050254821777,0.6430500149726868
1772402130010496800,8.292496826171876,1.963050127029419,-11.143050193786621,-0.7249500155448914
1772402130030552800,8.312552734375,1.602000117301941,-10.240950584411621,-1.2930001020431519
1772402130050609000,8.33260888671875,2.980950117111206,-9.159000396728516,-0.7609500288963318
1772402130070665200,8.352665283203125,4.9870500564575195,-7.867950439453125,1.0380001068115234
1772402130090721300,8.37272119140625,6.867000102996826,-6.196950435638428,2.107950210571289
1772402130110777300,8.39277734375,7.867950439453125,-4.736999988555908,2.6950502395629883
1772402130130833400,8.41283349609375,8.160000801086426,-3.724050283432007,2.994000196456909
1772402130150889500,8.432889404296875,8.044950485229492,-3.267000198364258,3.1330502033233643
1772402130170945800,8.45294580078125,8.20995044708252,-2.8120501041412354,3.1429500579833984
1772402130191001900,8.473001953125,8.023050308227539,-2.814000129699707,2.3430001735687256
1772402130211058000,8.493057861328126,7.615950584411621,-3.0390000343322754,0.8610000610351562
1772402130231114200,8.5131142578125,7.338000297546387,-3.29295015335083,-0.3829500079154968
1772402130251170300,8.53317041015625,7.659000396728516,-3.580050230026245,-1.4410500526428223
1772402130271226400,8.553226318359375,9.32805061340332,-3.919950246810913,-1.894050121307373
1772402130291282400,8.573282470703125,10.815000534057617,-4.042050361633301,-1.5780000686645508
1772402130311338500,8.59333837890625,10.707000732421875,-3.781050205230713,-0.6820500493049622
1772402130331394800,8.613394775390624,9.766050338745117,-3.832050085067749,0.544950008392334
1772402130351451000,8.633450927734375,9.832950592041016,-4.150050163269043,1.333050012588501
1772402130371507200,8.653507080078125,10.896000862121582,-4.660050392150879,1.1599500179290771
1772402130391563000,8.67356298828125,11.530950546264648,-5.2230000495910645,1.1650500297546387
1772402130411619000,8.693619140625,11.583000183105469,-5.368950366973877,1.2370500564575195
1772402130431675400,8.71367529296875,11.212050437927246,-5.3520002365112305,1.4280000925064087
1772402130451731500,8.7337314453125,10.699950218200684,-6.5560503005981445,2.3929500579833984
1772402130471787500,8.75378759765625,10.747950553894043,-7.678950309753418,2.764050245285034
1772402130491843800,8.77384375,11.497050285339355,-9.019950866699219,3.3700501918792725
1772402130511899600,8.793899658203125,11.920950889587402,-8.979000091552734,2.9800500869750977
1772402130531956000,8.8139560546875,12.973950386047363,-8.802000045776367,3.492000102996826
1772402130552012000,8.834011962890624,12.880950927734375,-9.460050582885742,3.7960500717163086
1772402130572068000,8.854068115234375,10.189950942993164,-9.613950729370117,3.741000175476074
1772402130592124400,8.87412451171875,8.101950645446777,-8.986050605773926,3.2860500812530518
1772402130612180200,8.89418017578125,8.785050392150879,-8.242050170898438,2.608950138092041
1772402130632236300,8.914236328125,9.85200023651123,-7.1260504722595215,1.4520000219345093
1772402130652292600,8.934292724609374,9.463950157165527,-5.950050354003906,0.27900001406669617
1772402130672348700,8.9543486328125,7.663950443267822,-5.2420501708984375,-0.1080000028014183
1772402130692405000,8.974405029296875,5.349000453948975,-4.7410502433776855,-0.4429500102996826
1772402130712460800,8.994460693359375,3.438000202178955,-4.348950386047363,-0.8670000433921814
1772402130732516900,9.014516845703126,2.8999500274658203,-4.1670002937316895,-1.2229501008987427
1772402130752573000,9.034572998046874,2.931000232696533,-4.3060503005981445,-1.3669500350952148
1772402130772629200,9.054629150390625,2.662950038909912,-4.42995023727417,-1.3650000095367432
1772402130792685300,9.074685302734375,2.584050178527832,-4.380000114440918,-0.9499500393867493
1772402130812741600,9.09474169921875,2.991000175476074,-4.380000114440918,-0.6510000228881836
1772402130832797400,9.11479736328125,3.879000186920166,-4.204950332641602,-0.38100001215934753
1772402130852853500,9.134853515625,4.599000453948975,-3.3259501457214355,0.5929500460624695
1772402130872909800,9.154909912109375,4.956000328063965,-2.4310500621795654,2.2300500869750977
1772402130892966000,9.1749658203125,6.052950382232666,-1.7389501333236694,3.3289501667022705
1772402130913022000,9.19502197265625,7.9110002517700195,-1.1959500312805176,4.474050045013428
1772402130933078000,9.215078125,9.757050514221191,-0.48705002665519714,5.344950199127197
1772402130953134300,9.23513427734375,12.77595043182373,-0.3379500210285187,4.504950046539307
1772402130973190100,9.255190185546875,16.483951568603516,-1.0639500617980957,3.504000186920166
1772402130993246500,9.27524658203125,18.00495147705078,-1.4350500106811523,3.9690001010894775
1772402131013302500,9.295302490234375,17.60205078125,-0.8100000619888306,4.603050231933594
1772402131033358600,9.315358642578126,16.954050064086914,-3.043950080871582,7.81095027923584
1772402131053414700,9.33541455078125,15.132000923156738,-8.356950759887695,8.329050064086914
1772402131073471000,9.355470947265625,12.199050903320312,-12.103950500488281,3.6379501819610596
1772402131093526800,9.37552685546875,9.220050811767578,-12.690000534057617,-0.19095000624656677
1772402131113583000,9.3955830078125,5.461050033569336,-11.950050354003906,-0.42795002460479736
1772402131133639200,9.41563916015625,0.4459500312805176,-11.029050827026367,-0.17205001413822174
1772402131153695500,9.435695556640624,-2.3310000896453857,-9.826950073242188,-0.8329500555992126
1772402131173751600,9.45575146484375,-1.5070500373840332,-9.276000022888184,-1.5349500179290771
1772402131193807400,9.475807373046875,2.136000156402588,-8.620050430297852,-0.8710500597953796
1772402131213863700,9.49586376953125,5.088000297546387,-7.4350504875183105,0.361050009727478
1772402131233919700,9.515919677734376,6.862050533294678,-5.575050354003906,1.582050085067749
1772402131253975800,9.535975830078126,8.113950729370117,-3.9079501628875732,2.8650002479553223
1772402131274032000,9.5560322265625,8.212050437927246,-3.0649502277374268,3.118950128555298
1772402131294088200,9.576088134765625,7.996950149536133,-2.742000102996826,2.8000500202178955
1772402131314144000,9.59614404296875,7.954050540924072,-2.7970502376556396,2.4559500217437744
1772402131334200300,9.616200439453126,7.6110005378723145,-3.3670501708984375,1.9620001316070557
1772402131354256400,9.63625634765625,7.396050453186035,-4.095000267028809,0.598050057888031
1772402131374312700,9.656312744140624,7.843950271606445,-4.70805025100708,-0.19905000925064087
1772402131394368800,9.67636865234375,8.506950378417969,-5.493000030517578,-0.4240500330924988
1772402131414424800,9.6964248046875,8.854050636291504,-6.051000118255615,-1.4220000505447388
1772402131434481000,9.71648095703125,8.674050331115723,-6.003000259399414,-2.056950092315674
1772402131454537000,9.736536865234376,8.854050636291504,-5.5600504875183105,-1.4440500736236572
1772402131474593000,9.756593017578124,9.832950592041016,-5.035950183868408,0.46800002455711365
1772402131494649300,9.7766494140625,11.305950164794922,-4.654950141906738,2.9820001125335693
1772402131514705200,9.796705078125,12.960000991821289,-4.6459503173828125,4.096050262451172
1772402131534761200,9.81676123046875,13.87695026397705,-4.939950466156006,4.206000328063965
1772402131554817500,9.836817626953126,13.708950996398926,-5.184000015258789,3.2719502449035645
1772402131574873600,9.85687353515625,12.214950561523438,-5.248950481414795,2.587050199508667
1772402131594929700,9.8769296875,10.872000694274902,-5.152950286865234,2.974950075149536
1772402131614985700,9.89698583984375,10.422000885009766,-5.826000213623047,4.029000282287598
1772402131635041800,9.917041748046875,9.723000526428223,-6.7669501304626465,4.912050247192383
1772402131655097900,9.937097900390626,10.177950859069824,-7.054050445556641,4.668000221252441
1772402131675154200,9.957154296875,11.725050926208496,-7.855950355529785,4.182000160217285
1772402131695210200,9.977210205078125,11.941950798034668,-8.143950462341309,3.3030002117156982
1772402131715266300,9.997266357421875,10.591950416564941,-9.015000343322754,3.126000165939331
1772402131735322400,10.017322265625,8.835000038146973,-9.48705005645752,3.2530500888824463
1772402131755378400,10.03737841796875,6.522000312805176,-9.784050941467285,2.889000177383423
1772402131775434500,10.0574345703125,6.421050071716309,-8.818950653076172,2.5420501232147217
1772402131795490800,10.07749072265625,7.947000503540039,-7.794000148773193,3.0420000553131104
1772402131815547000,10.097546875,9.220050811767578,-6.3259501457214355,2.896050214767456
1772402131835603000,10.11760302734375,9.32295036315918,-5.329950332641602,2.2210500240325928
1772402131855659000,10.137658935546876,8.217000007629395,-5.158050060272217,1.0140000581741333
1772402131875715000,10.157715087890624,6.163050174713135,-5.068950176239014,-0.28005000948905945
1772402131895771400,10.177771484375,4.173000335693359,-4.69605016708374,-0.6199500560760498
1772402131915827500,10.197827392578125,3.343050241470337,-3.9370501041412354,0.0010500000789761543
1772402131935883500,10.217883544921875,3.0769500732421875,-3.621000289916992,0.9780000448226929
1772402131955939800,10.23793994140625,3.2250001430511475,-4.039950370788574,1.311000108718872
1772402131975996000,10.257995849609374,4.264050006866455,-4.156949996948242,0.7939500212669373
