time,seconds_elapsed,z,y,x
1772402122108372700,0.390372802734375,-0.3889875113964081,-0.88714998960495,-2.5119874477386475
1772402122128428800,0.4104287109375,-0.040699999779462814,-1.1662750244140625,-1.4136375188827515
1772402122148485000,0.430485107421875,0.0775500014424324,-1.0544874668121338,-0.7606499791145325
1772402122168541200,0.450541259765625,0.17338749766349792,-0.07328750193119049,-0.9747374653816223
1772402122188597200,0.47059716796875,0.23732499778270721,1.2838374376296997,-1.2293875217437744
1772402122208653300,0.4906533203125,0.2532750070095062,1.2273249626159668,-0.4390375018119812
1772402122228709400,0.51070947265625,0.3097875118255615,0.7628499865531921,0.3833499848842621
1772402122248765700,0.530765625,0.2171124964952469,0.39861249923706055,0.8446624875068665
1772402122268821800,0.55082177734375,0.05197500064969063,0.17599999904632568,0.8127624988555908
1772402122288878000,0.570878173828125,-0.28146249055862427,0.05128749832510948,0.8148249983787537
1772402122308934100,0.59093408203125,-0.7746750116348267,0.07686249911785126,1.1929500102996826
1772402122328990200,0.610990234375,-1.1379499435424805,0.33041250705718994,1.4370124340057373
1772402122349046300,0.63104638671875,-1.704587459564209,0.4805625081062317,1.390125036239624
1772402122369102600,0.6511025390625,-2.1084249019622803,0.8310499787330627,1.2335125207901
1772402122389158700,0.67115869140625,-1.7568374872207642,0.7320500016212463,1.3591874837875366
1772402122409214700,0.691214599609375,-0.8673499822616577,0.3133625090122223,1.5157999992370605
1772402122429271000,0.71127099609375,-0.002337499987334013,0.5487625002861023,0.9895874857902527
1772402122449327000,0.7313271484375,0.609125018119812,0.7841625213623047,0.4302375018596649
1772402122469383200,0.751383056640625,0.7242124676704407,0.9941250085830688,0.23856249451637268
1772402122489439500,0.771439453125,0.518512487411499,1.1837375164031982,0.49527499079704285
1772402122509495600,0.79149560546875,0.4525125026702881,1.3498375415802002,0.7189875245094299
1772402122529551600,0.811551513671875,0.47382500767707825,1.6343250274658203,0.9948124885559082
1772402122549608000,0.83160791015625,0.5047624707221985,1.6013250350952148,0.9810624718666077
1772402122569664000,0.8516640625,0.32573750615119934,0.8810999989509583,0.7275124788284302
1772402122589720000,0.871719970703125,-0.050324998795986176,0.031075000762939453,0.7796249985694885
1772402122609776000,0.891776123046875,-0.30703750252723694,-0.609125018119812,1.2292499542236328
1772402122629832200,0.911832275390625,0.0966624990105629,-0.729574978351593,1.3464000225067139
1772402122649888500,0.931888427734375,0.6335999965667725,-0.3876124918460846,1.1013749837875366
1772402122669944600,0.951944580078125,0.7859500050544739,-0.038224998861551285,0.8340749740600586
1772402122690001000,0.9720009765625,0.6858500242233276,-0.1681624948978424,0.5644375085830688
1772402122710057000,0.992056884765625,0.7880125045776367,-0.8691374659538269,0.4207499921321869
1772402122730113000,1.012113037109375,0.517549991607666,-1.3356750011444092,0.43353748321533203
1772402122750169300,1.03216943359375,0.48124998807907104,-1.050225019454956,0.29397499561309814
1772402122770225200,1.05222509765625,0.6560124754905701,0.13653749227523804,0.04675000160932541
1772402122790281500,1.072281494140625,1.0714000463485718,0.27073749899864197,0.047849997878074646
1772402122810337500,1.092337646484375,1.2865874767303467,-0.12127500027418137,-0.06297499686479568
1772402122830393600,1.1123935546875,1.5156625509262085,-0.5154874920845032,0.018012499436736107
1772402122850449700,1.13244970703125,1.641337513923645,-0.6411625146865845,0.10106249898672104
1772402122870506000,1.152506103515625,1.3462624549865723,-1.0874874591827393,-0.3718000054359436
1772402122890562000,1.17256201171875,0.4419249892234802,-0.5473874807357788,-2.6024625301361084
1772402122910618400,1.192618408203125,-0.05142499879002571,1.204912543296814,-3.216125011444092
1772402122930674200,1.212674072265625,0.22990000247955322,0.5476624965667725,-0.42294999957084656
1772402122950730200,1.232730224609375,0.5483499765396118,-0.2363625019788742,2.7248375415802
1772402122970786600,1.25278662109375,0.592074990272522,-0.20336249470710754,2.8740248680114746
1772402122990842600,1.272842529296875,0.6858500242233276,0.05555000156164169,1.3059749603271484
1772402123010899000,1.29289892578125,0.23952500522136688,0.05871250107884407,-0.5402374863624573
1772402123030955000,1.312955078125,-0.03437500074505806,0.10779999941587448,-1.7663249969482422
1772402123051011000,1.333010986328125,-0.19731250405311584,-0.5655375123023987,-1.9570374488830566
1772402123071067100,1.353067138671875,-0.3443000018596649,-1.0874874591827393,-1.4786750078201294
1772402123091123500,1.37312353515625,-0.15262499451637268,-1.1119624376296997,-0.902412474155426
1772402123111179500,1.393179443359375,0.3012624979019165,-0.9180874824523926,-0.3973749876022339
1772402123131235600,1.413235595703125,0.5047624707221985,-0.6591749787330627,-0.4815250039100647
1772402123151292000,1.4332919921875,0.5036625266075134,-0.5644375085830688,-0.8863250017166138
1772402123171348200,1.45334814453125,0.36616250872612,-0.2619374990463257,-1.373212456703186
1772402123191404300,1.473404296875,0.1424500048160553,0.1396999955177307,-1.5276249647140503
1772402123211460000,1.493460205078125,-0.16005000472068787,0.41772499680519104,-1.29868745803833
1772402123231516400,1.513516357421875,-0.4188250005245209,0.5135625004768372,-0.9780374765396118
1772402123251572500,1.533572509765625,-0.45512500405311584,0.5444999933242798,-0.5732374787330627
1772402123271628800,1.55362890625,-0.2877874970436096,0.3389374911785126,-0.3143250048160553
1772402123291684900,1.573684814453125,-0.08112499862909317,-0.060499999672174454,-0.4101625084877014
1772402123311741000,1.593740966796875,0.055137500166893005,-0.4185499846935272,-0.5806624889373779
1772402123331797000,1.613796875,0.013612499460577965,-0.35241249203681946,-0.7265499830245972
1772402123351853300,1.633853271484375,-0.03863750025629997,0.13859999179840088,-0.9076374769210815
1772402123371909400,1.653909423828125,0.09350000321865082,0.7138999700546265,-0.9897249937057495
1772402123391965700,1.673965576171875,0.12223749607801437,1.0973875522613525,-0.6584874987602234
1772402123412021800,1.694021728515625,0.025299999862909317,1.0345499515533447,-0.020349999889731407
1772402123432077800,1.714077880859375,-0.20583750307559967,0.7926874756813049,0.3684999942779541
1772402123452134000,1.7341337890625,-0.5989499688148499,0.9131374955177307,0.4302375018596649
1772402123472190200,1.754190185546875,-1.1826374530792236,1.297724962234497,0.4345000088214874
1772402123492246300,1.774246337890625,-1.5448124408721924,1.5789124965667725,0.42391249537467957
1772402123512302300,1.79430224609375,-1.7505124807357788,1.5820749998092651,0.525112509727478
1772402123532358400,1.8143583984375,-1.6502749919891357,1.3274250030517578,0.682687520980835
1772402123552414700,1.834414794921875,-1.2838374376296997,0.7650499939918518,1.1109999418258667
1772402123572470800,1.854470703125,-0.8949875235557556,-0.08937499672174454,1.7714124917984009
1772402123592527000,1.874527099609375,-0.5882250070571899,0.17489999532699585,1.5732749700546265
1772402123612583200,1.894583251953125,-0.24529999494552612,1.4478750228881836,0.720087468624115
1772402123632639500,1.914639404296875,-0.023649999871850014,2.1403250694274902,0.2502500116825104
1772402123652695600,1.934695556640625,-0.006599999964237213,1.8495124578475952,0.21615000069141388
1772402123672751600,1.954751708984375,0.006187499966472387,1.1539000272750854,0.7232499718666077
1772402123692807700,1.9748076171875,-0.029012499377131462,0.6052749752998352,1.299512505531311
1772402123712864000,1.994864013671875,0.0625625029206276,0.3910500109195709,1.4859625101089478
1772402123732920000,2.014920166015625,0.3279374837875366,0.3858250081539154,1.3432375192642212
1772402123752976400,2.034976318359375,0.5025625228881836,0.31226250529289246,0.9341750144958496
1772402123773032700,2.05503271484375,0.6059625148773193,-0.057337500154972076,0.4739624857902527
1772402123793088800,2.0750888671875,0.7603750228881836,-0.6858500242233276,0.3258749842643738
1772402123813144800,2.095144775390625,0.952049970626831,-1.2535874843597412,0.39943748712539673
1772402123833201000,2.115200927734375,1.1545875072479248,-1.4783999919891357,0.40466248989105225
1772402123853257200,2.13525732421875,1.3366374969482422,-1.8598250150680542,0.6613749861717224
1772402123873313300,2.155313232421875,1.4815624952316284,-2.3700873851776123,0.3460874855518341
1772402123893369600,2.17536962890625,1.4293124675750732,-2.705587387084961,-0.2494249939918518
1772402123913425700,2.19542578125,1.3388375043869019,-2.5554375648498535,-0.763949990272522
1772402123933482000,2.21548193359375,1.1853874921798706,-2.5489749908447266,-0.9279875159263611
1772402123953538000,2.2355380859375,0.8562124967575073,-2.4030873775482178,-1.263487458229065
1772402123973594400,2.255594482421875,0.35667499899864197,-1.2887874841690063,-2.0858750343322754
1772402123993650400,2.275650390625,-0.07686249911785126,-0.5537124872207642,-1.9016250371932983
1772402124013706500,2.29570654296875,-0.32725000381469727,-0.6837875247001648,-0.7148625254631042
1772402124033762800,2.3157626953125,-0.5029749870300293,-0.19263750314712524,0.29493749141693115
1772402124053819000,2.33581884765625,-0.6297500133514404,0.8992499709129333,0.6912124752998352
1772402124073875200,2.355875244140625,-0.28888750076293945,1.6076500415802002,1.724524974822998
1772402124093931300,2.37593115234375,-0.20583750307559967,0.23127499222755432,3.44492506980896
1772402124113987300,2.3959873046875,-0.7374125123023987,-0.8754624724388123,3.5120248794555664
1772402124134043400,2.41604345703125,-0.6958875060081482,-0.7699999809265137,2.084637403488159
1772402124154099700,2.436099609375,-0.4998124837875366,-0.032862499356269836,0.7775624990463257
1772402124174156000,2.456156005859375,0.0019249999895691872,0.7383750081062317,-0.4101625084877014
1772402124194212000,2.476212158203125,0.46956250071525574,0.8256874680519104,-1.215499997138977
1772402124214268200,2.49626806640625,0.5505499839782715,0.514662504196167,-1.3252249956130981
1772402124234324500,2.516324462890625,0.5057250261306763,0.11096250265836716,-1.290162444114685
1772402124254380500,2.536380615234375,0.4801499843597412,-0.11701250076293945,-1.3956249952316284
1772402124274436600,2.5564365234375,0.5803874731063843,0.03849999979138374,-1.5224000215530396
1772402124294493000,2.576492919921875,0.6868125200271606,0.4049375057220459,-1.6491750478744507
1772402124314549200,2.59654931640625,0.7092249989509583,0.6467999815940857,-1.8940625190734863
1772402124334605300,2.616605224609375,0.6443250179290771,0.5828624963760376,-1.9857749938964844
1772402124354661400,2.636661376953125,0.5505499839782715,0.20569999516010284,-1.7172374725341797
1772402124374717700,2.6567177734375,0.46213749051094055,-0.1522125005722046,-1.3604249954223633
1772402124394773800,2.676773681640625,0.39077499508857727,-0.24158750474452972,-1.1517000198364258
1772402124414830000,2.696830078125,0.30236250162124634,0.018287500366568565,-1.1771374940872192
1772402124434886100,2.71688623046875,0.010449999943375587,0.5467000007629395,-1.3007500171661377
1772402124454942200,2.736942138671875,-0.3858250081539154,0.8460375070571899,-1.188962459564209
1772402124474998500,2.75699853515625,-0.4721750020980835,0.6052749752998352,-0.8032749891281128
1772402124495054600,2.7770546875,-0.20899999141693115,0.10559999942779541,-0.31322500109672546
1772402124515111000,2.79711083984375,-0.00976249948143959,-0.19373749196529388,-0.05335000157356262
1772402124535167200,2.817167236328125,-0.007699999958276749,-0.10958749800920486,-0.056512501090765
1772402124555223300,2.837223388671875,-0.09184999763965607,0.031075000762939453,-0.12155000120401382
1772402124575279400,2.857279296875,-0.08442500233650208,-0.02433750033378601,-0.20253749191761017
1772402124595335700,2.877335693359375,0.05403750017285347,-0.32147499918937683,-0.10766249895095825
1772402124615392000,2.89739208984375,0.08071249723434448,-0.609125018119812,0.25561249256134033
1772402124635448000,2.917447998046875,-0.25478750467300415,-0.3151499927043915,0.5475249886512756
1772402124655504100,2.937504150390625,-0.7512999773025513,0.3474625051021576,0.5751624703407288
1772402124675560400,2.957560546875,-1.1752125024795532,0.6360750198364258,0.6624749898910522
1772402124695616500,2.977616455078125,-1.2104125022888184,0.32725000381469727,0.8637750148773193
1772402124715672800,2.9976728515625,-0.9919250011444092,-0.3726249933242798,1.2142624855041504
1772402124735729000,3.01772900390625,-0.7852625250816345,-0.9840874671936035,1.730987548828125
1772402124755785200,3.03778515625,-0.7288874983787537,-0.7060624957084656,1.8673875331878662
1772402124775841300,3.05784130859375,-0.7363125085830688,0.6851624846458435,1.1834625005722046
1772402124795897300,3.0778974609375,-0.6819999814033508,1.8356249332427979,0.3312374949455261
1772402124815953700,3.09795361328125,-0.4529249966144562,2.04544997215271,0.13089999556541443
1772402124836009700,3.118009765625,-0.16637499630451202,1.805787444114685,0.4250124990940094
1772402124856065800,3.138065673828125,0.01251249946653843,1.6523374319076538,0.7115625143051147
1772402124876121900,3.158121826171875,0.24158750474452972,1.3785749673843384,0.8062999844551086
1772402124896178200,3.17817822265625,0.40878748893737793,0.9174000024795532,1.1886874437332153
1772402124916234500,3.198234375,0.4769875109195709,0.3443000018596649,1.4071749448776245
1772402124936290600,3.21829052734375,0.5398250222206116,-0.03492499887943268,1.3953499794006348
1772402124956347000,3.238346923828125,0.6740249991416931,-0.22027499973773956,1.3528624773025513
1772402124976403000,3.25840283203125,0.7891125082969666,-0.5154874920845032,1.3932875394821167
1772402124996459000,3.278458984375,0.8402624726295471,-1.0044374465942383,1.373075008392334
1772402125016515300,3.298515380859375,0.8467249870300293,-1.4337124824523926,1.024649977684021
1772402125036571400,3.3185712890625,0.8786249756813049,-1.7373124361038208,0.4643374979496002
1772402125056627700,3.338627685546875,1.017087459564209,-1.965287446975708,-0.03423750028014183
1772402125076683800,3.358683837890625,1.2066999673843384,-2.2219998836517334,-0.32284998893737793
1772402125096740000,3.378739990234375,1.3217874765396118,-2.237950086593628,-0.506137490272522
1772402125116796200,3.398796142578125,1.0884499549865723,-1.355887532234192,-0.9087374806404114
1772402125136852500,3.4188525390625,0.527037501335144,0.697950005531311,-2.0091500282287598
1772402125156908800,3.43890869140625,-0.13021250069141388,2.4001998901367188,-3.032837390899658
1772402125176964900,3.45896484375,-0.4881249964237213,1.9336625337600708,-1.9399875402450562
1772402125197021000,3.47902099609375,-0.6382749676704407,0.5956500172615051,0.09047500044107437
1772402125217077000,3.499076904296875,-0.8045125007629395,0.4166249930858612,1.558424949645996
1772402125237133300,3.51913330078125,-0.8812375068664551,0.9418749809265137,2.697200059890747
1772402125257189600,3.539189697265625,-1.0527000427246094,0.8907250165939331,2.855875015258789
1772402125277245700,3.55924560546875,-0.8406749963760376,0.16101250052452087,1.9174374341964722
1772402125297302000,3.579302001953125,-0.8141375184059143,0.5541250109672546,0.05637500062584877
1772402125317358000,3.599358154296875,-0.9674500226974487,1.215637445449829,-1.1165000200271606
1772402125337414100,3.6194140625,-0.7959874868392944,0.855525016784668,-0.6754000186920166
1772402125357470200,3.63947021484375,-0.30057498812675476,0.13859999179840088,-0.17270000278949738
1772402125377526500,3.659526611328125,0.3129499852657318,-0.21285000443458557,-0.4507249891757965
1772402125397582600,3.67958251953125,0.7156875133514404,-0.2363625019788742,-1.2080750465393066
1772402125417639000,3.699638916015625,0.7455250024795532,-0.17668749392032623,-1.9687249660491943
1772402125437695000,3.719695068359375,0.4716250002384186,-0.3077250123023987,-2.187074899673462
1772402125457751000,3.7397509765625,0.08717499673366547,-0.47808748483657837,-1.9229375123977661
1772402125477807400,3.759807373046875,-0.12278749793767929,-0.5218124985694885,-1.4701499938964844
1772402125497863400,3.779863525390625,-0.1845249980688095,-0.4419249892234802,-0.9832624793052673
1772402125517919700,3.799919677734375,-0.2601499855518341,-0.25437501072883606,-0.6456999778747559
1772402125537976000,3.81997607421875,-0.4497624933719635,0.18232500553131104,-0.5988125205039978
1772402125558032000,3.840031982421875,-0.6425374746322632,0.7031750082969666,-0.8575875163078308
1772402125578088200,3.860088134765625,-0.6234250068664551,0.7490999698638916,-1.0835000276565552
1772402125598144500,3.88014453125,-0.18878750503063202,0.16637499630451202,-0.9917874932289124
1772402125618200600,3.90020068359375,0.3917374908924103,-0.27898749709129333,-0.8416374921798706
1772402125638256600,3.920256591796875,0.7880125045776367,-0.3683624863624573,-0.7341125011444092
1772402125658313000,3.94031298828125,0.9084625244140625,-0.4109874963760376,-0.6434999704360962
1772402125678369300,3.960369384765625,0.7944750189781189,-0.28421249985694885,-0.7265499830245972
1772402125698425300,3.98042529296875,0.45567500591278076,0.21326249837875366,-0.8277499675750732
1772402125718481700,4.000481689453125,0.023237500339746475,0.5296499729156494,-0.5955125093460083
1772402125738537700,4.020537841796875,-0.1993750035762787,0.2974124848842621,-0.03423750028014183
1772402125758593800,4.04059375,-0.34966251254081726,-0.11384999752044678,0.6061000227928162
1772402125778649900,4.06064990234375,-0.5691124796867371,-0.6432250142097473,1.2132999897003174
1772402125798706200,4.0807060546875,-0.8907250165939331,-0.8839874863624573,1.5349124670028687
1772402125818762500,4.100762451171875,-1.2028499841690063,-1.043762445449829,1.6020125150680542
1772402125838818600,4.120818603515625,-1.4926999807357788,-1.3100999593734741,1.840712547302246
1772402125858875000,4.140875,-1.6493124961853027,-1.0917500257492065,1.6861624717712402
1772402125878931000,4.160930908203125,-1.4873374700546265,-0.7935125231742859,1.4763374328613281
1772402125898987300,4.1809873046875,-1.095324993133545,-0.16926249861717224,1.1695749759674072
1772402125919043000,4.20104296875,-0.6595875024795532,0.4529249966144562,0.8298124670982361
1772402125939099400,4.221099365234375,-0.3975124955177307,1.2028499841690063,0.4760249853134155
1772402125959155500,4.241155517578125,-0.34113749861717224,2.125337600708008,0.2055625021457672
1772402125979211800,4.261211669921875,-0.4156624972820282,2.516387462615967,0.6252124905586243
1772402125999268000,4.28126806640625,-0.47850000858306885,2.369262456893921,1.2398375272750854
1772402126019324200,4.30132421875,-0.522225022315979,1.9857749938964844,1.772512435913086
1772402126039380200,4.321380126953125,-0.5179625153541565,1.4702874422073364,2.0878000259399414
1772402126059436300,4.341436279296875,-0.3624500036239624,1.0579249858856201,2.1240999698638916
1772402126079492600,4.36149267578125,-0.08112499862909317,0.7330124974250793,1.9866000413894653
1772402126099548700,4.381548583984375,0.2586374878883362,0.30483749508857727,1.7193000316619873
1772402126119605000,4.40160498046875,0.6208124756813049,-0.07012499868869781,1.3017125129699707
1772402126139661300,4.421661376953125,0.867900013923645,-0.31831249594688416,0.9063999652862549
1772402126159717400,4.44171728515625,0.8391624689102173,-0.4067249894142151,0.6561499834060669
1772402126179773400,4.4617734375,0.7859500050544739,-0.45045000314712524,0.3801875114440918
1772402126199829800,4.481829833984375,0.720912516117096,-0.4482499957084656,0.11811249703168869
1772402126219885800,4.5018857421875,0.7006999850273132,-0.5442249774932861,0.023375000804662704
1772402126239942000,4.52194189453125,0.7444249987602234,-0.6347000002861023,-0.07039999961853027
1772402126259998200,4.541998291015625,0.5974375009536743,-0.526075005531311,-0.227012500166893
1772402126280054300,4.56205419921875,0.38747498393058777,-0.4856500029563904,-0.40383750200271606
1772402126300110600,4.582110595703125,0.2106499969959259,-0.3268375098705292,-0.7841625213623047
1772402126320167000,4.6021669921875,0.0008249999955296516,0.3282124996185303,-2.0037875175476074
1772402126340223000,4.622222900390625,0.10848750174045563,0.8503000140190125,-1.7450125217437744
1772402126360279300,4.642279296875,0.06792499870061874,0.9066749811172485,0.36959999799728394
1772402126380335000,4.662335205078125,-0.2143625020980835,0.854562520980835,1.9706499576568604
1772402126400391400,4.682391357421875,-0.6916249990463257,0.5732374787330627,1.8279249668121338
1772402126420447500,4.702447509765625,-0.4241875112056732,0.26221248507499695,1.4134999513626099
1772402126440503800,4.72250390625,0.04661250114440918,-0.1531749963760376,1.706512451171875
1772402126460560000,4.742559814453125,0.283112496137619,-0.34814998507499695,1.649999976158142
1772402126480616000,4.762615966796875,0.1467124968767166,0.040699999779462814,0.6997374892234802
1772402126500672000,4.782672119140625,0.021037500351667404,0.3431999981403351,-0.8788999915122986
1772402126520728300,4.802728271484375,0.12223749607801437,0.0672374963760376,-1.9111125469207764
1772402126540784600,4.82278466796875,0.24584999680519104,-0.4142875075340271,-1.9878374338150024
1772402126560840700,4.8428408203125,0.27568748593330383,-0.6517499685287476,-1.5085124969482422
1772402126580896800,4.862896728515625,0.31404998898506165,-0.6880499720573425,-0.9450374841690063
1772402126600952800,4.882952880859375,0.3438875079154968,-0.5761250257492065,-0.7106000185012817
1772402126621009200,4.903009033203125,0.26922500133514404,-0.4908750057220459,-0.6914874911308289
1772402126641065200,4.923065185546875,0.15207499265670776,-0.5207124948501587,-0.6477624773979187
1772402126661121500,4.94312158203125,0.08071249723434448,-0.5314375162124634,-0.5869874954223633
1772402126681177600,4.963177490234375,0.07864999771118164,-0.4142875075340271,-0.6201249957084656
1772402126701234000,4.98323388671875,0.05403750017285347,-0.2714250087738037,-0.7404375076293945
1772402126721289700,5.003289794921875,-0.015124999918043613,-0.16926249861717224,-0.9204249978065491
1772402126741346000,5.023345947265625,-0.055687498301267624,-0.09886249899864197,-0.9609875082969666
1772402126761402400,5.04340234375,0.018975000828504562,-0.15537500381469727,-0.781962513923645
1772402126781458400,5.06345849609375,0.17338749766349792,-0.21078750491142273,-0.5741999745368958
1772402126801514800,5.0835146484375,0.2564375102519989,-0.21285000443458557,-0.524150013923645
1772402126821570800,5.10357080078125,0.23100000619888306,-0.18837499618530273,-0.5784624814987183
1772402126841627100,5.123627197265625,0.12127500027418137,-0.13516250252723694,-0.6030749678611755
1772402126861683200,5.14368310546875,0.0019249999895691872,-0.06379999965429306,-0.6147624850273132
1772402126881739300,5.1637392578125,-0.14300000667572021,-0.07328750193119049,-0.5934500098228455
1772402126901795300,5.18379541015625,-0.20899999141693115,-0.1979999989271164,-0.4197874963283539
1772402126921851600,5.2038515625,-0.11852499842643738,-0.2927374839782715,-0.1821874976158142
1772402126941907700,5.22390771484375,0.057337500154972076,-0.35557499527931213,0.05211250111460686
1772402126961964000,5.243964111328125,0.09143749624490738,-0.41318750381469727,0.21078750491142273
1772402126982020400,5.264020263671875,-0.0929500013589859,-0.517549991607666,0.19593749940395355
1772402127002076400,5.284076416015625,-0.3389374911785126,-0.5803874731063843,0.07548750191926956
1772402127022132500,5.304132568359375,-0.8184000253677368,-0.5527499914169312,0.11384999752044678
1772402127042188500,5.3241884765625,-1.1985875368118286,-0.39723750948905945,0.3301374912261963
1772402127062244900,5.344244873046875,-1.314774990081787,-0.0765874981880188,0.6337375044822693
1772402127082301000,5.364301025390625,-1.2743500471115112,0.17173749208450317,1.1376750469207764
1772402127102357200,5.384357177734375,-1.1996874809265137,0.3793624937534332,1.3571250438690186
1772402127122413300,5.404413330078125,-1.0771750211715698,0.9780374765396118,0.8307750225067139
1772402127142469600,5.4244697265625,-0.9185000061988831,1.6651250123977661,0.11921250075101852
1772402127162525700,5.444525634765625,-0.8428750038146973,1.8845750093460083,-0.07356250286102295
1772402127182581800,5.464581787109375,-0.8226624727249146,1.7514749765396118,0.28971248865127563
1772402127202637800,5.484637939453125,-0.8130375146865845,1.4968249797821045,0.7721999883651733
1772402127222694100,5.504694091796875,-0.8471375107765198,1.3392499685287476,1.067275047302246
1772402127242750200,5.524750244140625,-0.8065750002861023,1.3562999963760376,1.0789624452590942
1772402127262806500,5.544806640625,-0.5605875253677368,1.3402124643325806,0.7935125231742859
1772402127282862600,5.564862548828125,-0.22921249270439148,1.1474374532699585,0.3227125108242035
1772402127302918700,5.584918701171875,0.13612499833106995,0.6318125128746033,0.03932499885559082
1772402127322974700,5.604974609375,0.46309998631477356,-0.021175000816583633,0.004124999977648258
1772402127343031000,5.625031005859375,0.7188500165939331,-0.5112249851226807,0.025437500327825546
1772402127363087000,5.645087158203125,0.9266124963760376,-0.8179875016212463,-0.033137500286102295
1772402127383143400,5.665143310546875,1.1470249891281128,-1.142899990081787,-0.16940000653266907
1772402127403199500,5.685199462890625,1.3536875247955322,-1.5795999765396118,-0.2770625054836273
1772402127423255800,5.705255859375,1.549762487411499,-2.0440750122070312,-0.3686375021934509
1772402127443311900,5.725311767578125,1.624287486076355,-2.0770750045776367,-0.524150013923645
1772402127463368200,5.7453681640625,1.4272500276565552,-1.2185250520706177,-0.9917874932289124
1772402127483424300,5.76542431640625,1.025612473487854,0.29411250352859497,-1.9324250221252441
1772402127503480300,5.785480224609375,0.3630000054836273,1.278475046157837,-2.238224983215332
1772402127523536600,5.80553662109375,-0.2782999873161316,0.7149999737739563,-1.0377124547958374
1772402127543592700,5.8255927734375,-0.5233250260353088,-0.08717499673366547,0.3909125030040741
1772402127563648800,5.845648681640625,-0.559487521648407,0.057750001549720764,1.383662462234497
1772402127583705000,5.865705078125,-0.726687490940094,0.3900874853134155,2.3146750926971436
1772402127603761200,5.88576123046875,-0.9503999948501587,0.07796250283718109,2.4829750061035156
1772402127623817200,5.905817138671875,-0.505174994468689,-0.5335000157356262,1.4965499639511108
1772402127643873300,5.925873291015625,-0.19085000455379486,0.29411250352859497,-0.029975000768899918
1772402127663929600,5.9459296875,-0.4349125027656555,1.4936624765396118,-0.30799999833106995
1772402127683986000,5.96598583984375,-0.38046249747276306,1.0632874965667725,0.10436250269412994
1772402127704041700,5.986041748046875,0.15207499265670776,0.2611125111579895,-0.3057999908924103
1772402127724097800,6.006097900390625,0.7614749670028687,-0.3811500072479248,-1.4008499383926392
1772402127744154000,6.026154052734375,0.8914124965667725,-0.8573125004768372,-1.897362470626831
1772402127764210200,6.046210205078125,0.6995999813079834,-0.9351375102996826,-1.8866374492645264
1772402127784266500,6.0662666015625,0.3513124883174896,-0.7231125235557556,-1.732224941253662
1772402127804322600,6.086322509765625,0.06476250290870667,-0.5154874920845032,-1.4306875467300415
1772402127824379000,6.10637890625,0.04455000162124634,-0.37056249380111694,-1.0718125104904175
1772402127844435000,6.12643505859375,0.060499999672174454,-0.38225001096725464,-0.7799000144004822
1772402127864491000,6.146490966796875,0.07218749821186066,-0.4558124840259552,-0.5636125206947327
1772402127884547000,6.166547119140625,0.04661250114440918,-0.3694624900817871,-0.47519999742507935
1772402127904603400,6.186603271484375,0.04881250113248825,-0.2554749846458435,-0.5487625002861023
1772402127924659500,6.206659423828125,0.15853749215602875,-0.334262490272522,-0.6062374711036682
1772402127944715800,6.2267158203125,0.35337498784065247,-0.47066250443458557,-0.5476624965667725
1772402127964771600,6.246771484375,0.564300000667572,-0.591112494468689,-0.3856875002384186
1772402127984828000,6.266827880859375,0.571862518787384,-0.6656374931335449,-0.16197499632835388
1772402128004884000,6.286884033203125,0.3502124845981598,-0.6485875248908997,-0.05967500060796738
1772402128024940300,6.306940185546875,0.09033749997615814,-0.4376625120639801,-0.10876250267028809
1772402128044996000,6.32699609375,-0.07906249910593033,-0.2256374955177307,-0.22481249272823334
1772402128065052200,6.34705224609375,-0.17173749208450317,-0.13296249508857727,-0.23759999871253967
1772402128085108500,6.3671083984375,-0.22824999690055847,-0.10216250270605087,0.030799999833106995
1772402128105164500,6.38716455078125,-0.3676750063896179,-0.1915374994277954,0.3983374834060669
1772402128125220900,6.407220947265625,-0.596750020980835,-0.3375625014305115,0.7243499755859375
1772402128145277000,6.42727685546875,-0.955762505531311,-0.6241124868392944,0.9245499968528748
1772402128165333200,6.447333251953125,-1.1433124542236328,-0.9297749996185303,1.0566874742507935
1772402128185389300,6.467389404296875,-1.769624948501587,-0.6326375007629395,1.067275047302246
1772402128205445400,6.4874453125,-1.885812520980835,0.256850004196167,0.3258749842643738
1772402128225501400,6.50750146484375,-1.746250033378601,0.7277874946594238,0.14368750154972076
1772402128245557800,6.527557861328125,-1.572587490081787,0.9098374843597412,0.6070625185966492
1772402128265613800,6.54761376953125,-1.1666874885559082,1.196524977684021,0.8392999768257141
1772402128285670000,6.567669921875,-0.7948874831199646,1.6097124814987183,0.494174987077713
1772402128305726200,6.587726318359375,-0.5009124875068665,1.8686250448226929,0.15963749587535858
1772402128325782500,6.607782470703125,-0.27073749899864197,1.6491750478744507,0.273624986410141
1772402128345838600,6.627838623046875,-0.18988749384880066,1.0280874967575073,0.5601750016212463
1772402128365894700,6.647894775390625,-0.25052499771118164,0.7746750116348267,0.681725025177002
1772402128385950700,6.66795068359375,-0.24626250565052032,0.9695125222206116,0.7062000036239624
1772402128406006800,6.6880068359375,-0.1802625060081482,1.0419750213623047,0.6965749859809875
1772402128426063000,6.70806298828125,-0.015124999918043613,0.9524624943733215,0.7625749707221985
1772402128446119200,6.728119140625,0.1915374994277954,0.7149999737739563,0.9191874861717224
1772402128466175500,6.748175537109375,0.39820000529289246,0.5467000007629395,0.9618124961853027
1772402128486231300,6.768231201171875,0.6964374780654907,0.644599974155426,0.5772249698638916
1772402128506287400,6.788287353515625,0.9053000211715698,0.4464625120162964,0.04895000159740448
1772402128526343700,6.80834375,0.7731624841690063,0.015124999918043613,-0.271699994802475
1772402128546399700,6.828399658203125,0.8146874904632568,-0.47382500767707825,-0.6158624887466431
1772402128566456000,6.8484560546875,1.0011374950408936,-0.8402624726295471,-0.8438374996185303
1772402128586512100,6.86851220703125,0.9915124773979187,-0.775362491607666,-0.8629499673843384
1772402128606568200,6.888568115234375,0.8701000213623047,-0.5473874807357788,-0.6040375232696533
1772402128626624500,6.90862451171875,0.7177500128746033,-0.6113250255584717,-0.4208875000476837
1772402128646680600,6.9286806640625,0.47382500767707825,-0.4248749911785126,-0.7393375039100647
1772402128666736600,6.948736572265625,0.3310999870300293,0.33467498421669006,-1.538349986076355
1772402128686793000,6.96879296875,0.3917374908924103,0.8427374958992004,-0.9407749772071838
1772402128706849000,6.98884912109375,0.2895750105381012,0.477400004863739,0.6699000000953674
1772402128726905000,7.008905029296875,0.12127500027418137,0.16843749582767487,1.854599952697754
1772402128746961400,7.02896142578125,-0.2484624981880188,-0.27252501249313354,1.972712516784668
1772402128767017500,7.049017578125,-0.4465999901294708,-0.6059625148773193,1.514699935913086
1772402128787073500,7.069073486328125,-0.16005000472068787,-0.2895750105381012,0.775362491607666
1772402128807129600,7.089129638671875,-0.27293750643730164,0.5391374826431274,0.5058624744415283
1772402128827185700,7.109185546875,-0.3422375023365021,0.8758749961853027,0.39943748712539673
1772402128847242000,7.129241943359375,-0.3507624864578247,0.6712750196456909,0.2204124927520752
1772402128867298000,7.149298095703125,0.14891250431537628,0.04922499880194664,-0.4624125063419342
1772402128887354000,7.16935400390625,0.7156875133514404,-0.7987374663352966,-1.231587529182434
1772402128907410400,7.189410400390625,0.895675003528595,-1.4528249502182007,-1.3848999738693237
1772402128927466500,7.209466552734375,0.867900013923645,-1.5988500118255615,-1.0866625308990479
1772402128947522600,7.2295224609375,0.8349000215530396,-1.3388375043869019,-0.8342124819755554
1772402128967578600,7.24957861328125,0.7581750154495239,-0.7764624953269958,-0.8149625062942505
1772402128987635000,7.269635009765625,0.6048625111579895,-0.35983750224113464,-0.7682124972343445
1772402129007691000,7.28969091796875,0.3737249970436096,-0.33646249771118164,-0.6701750159263611
1772402129027747000,7.3097470703125,0.09569999575614929,-0.4152500033378601,-0.736175000667572
1772402129047803100,7.32980322265625,-0.14300000667572021,-0.282150000333786,-0.976937472820282
1772402129067859200,7.349859130859375,-0.33797499537467957,0.1461624950170517,-1.1611875295639038
1772402129087915500,7.36991552734375,-0.4987125098705292,0.5168625116348267,-1.2614250183105469
1772402129107971600,7.3899716796875,-0.430649995803833,0.47203749418258667,-1.215499997138977
1772402129128027600,7.410027587890625,-0.07369999587535858,0.06517499685287476,-0.9343125224113464
1772402129148084000,7.430083984375,0.35337498784065247,-0.3438875079154968,-0.5422999858856201
1772402129168140000,7.45014013671875,0.6144874691963196,-0.6752625107765198,-0.3367374837398529
1772402129188196000,7.470196044921875,0.5579749941825867,-0.7327374815940857,-0.23663750290870667
1772402129208252200,7.490252197265625,0.3236750066280365,-0.4973374903202057,-0.03519999980926514
1772402129228308500,7.51030859375,0.19043749570846558,-0.3162499964237213,0.021175000816583633
1772402129248364500,7.530364501953125,0.1648624986410141,-0.2139499932527542,0.03932499885559082
1772402129268420600,7.550420654296875,0.12017499655485153,-0.0775500014424324,0.25341248512268066
1772402129288476700,7.5704765625,-0.013062499463558197,-0.03396249935030937,0.5399624705314636
1772402129308532700,7.59053271484375,-0.1270499974489212,-0.23100000619888306,0.562375009059906
1772402129328589000,7.610589111328125,-0.4124999940395355,-0.3162499964237213,0.37386250495910645
1772402129348645000,7.63064501953125,-1.2647249698638916,-0.11384999752044678,0.2523125112056732
1772402129368701200,7.650701171875,-1.5129125118255615,0.1695374995470047,0.17998750507831573
1772402129388757200,7.67075732421875,-1.4170750379562378,0.1929125040769577,0.8446624875068665
1772402129408813300,7.690813232421875,-1.3477749824523926,0.3176249861717224,1.6190625429153442
1772402129428869600,7.71086962890625,-1.1251624822616577,0.5370749831199646,1.5019124746322632
1772402129448925400,7.730925537109375,-0.8289874792098999,0.7405750155448914,0.5847874879837036
1772402129468981500,7.7509814453125,-0.6191624999046326,1.0835000276565552,-0.17366249859333038
1772402129489037800,7.771037841796875,-0.5403749942779541,1.2849375009536743,-0.45182499289512634
1772402129509094000,7.791093994140625,-0.5765374898910522,1.271049976348877,-0.38788750767707825
1772402129529150000,7.81114990234375,-0.6340125203132629,1.3615249395370483,-0.09487500041723251
1772402129549206000,7.8312060546875,-0.5839625000953674,1.5160750150680542,0.1106875017285347
1772402129569262000,7.851261962890625,-0.39861249923706055,1.5511374473571777,0.18314999341964722
1772402129589318400,7.871318359375,-0.082225002348423,1.2028499841690063,0.5314375162124634
1772402129609374500,7.89137451171875,0.3086875081062317,0.5828624963760376,0.9682750105857849
1772402129629430500,7.911430419921875,0.6986374855041504,0.012924999929964542,1.1791999340057373
1772402129649486600,7.931486572265625,0.9340375065803528,-0.4174500107765198,1.1312124729156494
1772402129709655000,7.991655029296875,0.8925125002861023,-1.1801625490188599,0.29493749141693115
1772402129769823500,8.051823486328125,1.39205002784729,-1.5604875087738037,-0.9843624830245972
1772402129789879600,8.071879638671875,1.0650750398635864,-1.1460624933242798,-1.5756125450134277
1772402129809936000,8.091935791015626,0.7379624843597412,-0.02213750034570694,-2.2808499336242676
1772402129829991700,8.11199169921875,0.518512487411499,0.56045001745224,-1.2529000043869019
1772402129850048000,8.132048095703125,0.43230000138282776,0.005499999970197678,0.8372374773025513
1772402129870104000,8.15210400390625,0.3609375059604645,-0.693274974822998,1.8438749313354492
1772402129890160000,8.17216015625,0.07012499868869781,-0.7551500201225281,2.288137435913086
1772402129910216200,8.19221630859375,-0.28462499380111694,-0.4600749909877777,2.0516374111175537
1772402129930272300,8.212272216796874,-0.3783999979496002,0.03739999979734421,1.4529625177383423
1772402129950328600,8.23232861328125,-0.17489999532699585,0.3367374837398529,0.7317749857902527
1772402129970384600,8.252384521484375,-0.4721750020980835,1.0601249933242798,0.33660000562667847
1772402129990440700,8.272440673828125,-0.9409124851226807,1.3338874578475952,0.1214125007390976
1772402130010496800,8.292496826171876,-0.808775007724762,1.314637541770935,-0.15248750150203705
1772402130030552800,8.312552734375,-0.5072374939918518,1.1505999565124512,-0.7244874835014343
1772402130050609000,8.33260888671875,-0.06737499684095383,0.6701750159263611,-1.2486374378204346
1772402130070665200,8.352665283203125,0.20748749375343323,-0.006187499966472387,-1.437150001525879
1772402130090721300,8.37272119140625,0.29163751006126404,-0.5366625189781189,-1.3774750232696533
1772402130110777300,8.39277734375,0.3683624863624573,-0.7273749709129333,-1.2187999486923218
1772402130130833400,8.41283349609375,0.33646249771118164,-0.4408249855041504,-1.0462374687194824
1772402130150889500,8.432889404296875,0.2671625018119812,0.1504250019788742,-0.9332125186920166
1772402130170945800,8.45294580078125,0.11701250076293945,0.47850000858306885,-0.8384749889373779
1772402130191001900,8.473001953125,-0.19511249661445618,0.5253875255584717,-0.6243875026702881
1772402130211058000,8.493057861328126,-0.431612491607666,0.7213249802589417,-0.5391374826431274
1772402130231114200,8.5131142578125,-0.5062749981880188,0.689424991607666,-0.5678749680519104
1772402130251170300,8.53317041015625,-0.4614500105381012,0.3335750102996826,-0.6967124938964844
1772402130271226400,8.553226318359375,-0.24199999868869781,0.07796250283718109,-0.7372750043869019
1772402130291282400,8.573282470703125,0.11481250077486038,-0.15001249313354492,-0.4251500070095062
1772402130311338500,8.59333837890625,0.4152500033378601,-0.41318750381469727,0.011687500402331352
1772402130331394800,8.613394775390624,0.47808748483657837,-0.4610374867916107,0.16073749959468842
1772402130351451000,8.633450927734375,0.31404998898506165,-0.28325000405311584,0.06599999964237213
1772402130371507200,8.653507080078125,0.16376249492168427,-0.22990000247955322,0.038224998861551285
1772402130391563000,8.67356298828125,0.16060000658035278,-0.43230000138282776,0.22151249647140503
1772402130411619000,8.693619140625,0.19580000638961792,-0.5676000118255615,0.4717625081539154
1772402130431675400,8.71367529296875,0.16596250236034393,-0.3993000090122223,0.6316750049591064
1772402130451731500,8.7337314453125,-0.04179999977350235,-0.07232499867677689,0.6561499834060669
1772402130471787500,8.75378759765625,-0.23883749544620514,0.03423750028014183,0.5484874844551086
1772402130491843800,8.77384375,-0.454025000333786,-0.0317624993622303,0.5516499876976013
1772402130511899600,8.793899658203125,-0.5168625116348267,0.008662499487400055,0.5751624703407288
1772402130531956000,8.8139560546875,-0.4124999940395355,0.1471250057220459,0.6039000153541565
1772402130552012000,8.834011962890624,-0.3900874853134155,0.04386249929666519,1.0257500410079956
1772402130572068000,8.854068115234375,-0.468874990940094,-0.07864999771118164,1.381600022315979
1772402130592124400,8.87412451171875,-0.6586250066757202,0.3559874892234802,0.9725375175476074
1772402130612180200,8.89418017578125,-0.8119375109672546,1.0643874406814575,0.41318750381469727
1772402130632236300,8.914236328125,-0.7757750153541565,1.3572624921798706,0.33976250886917114
1772402130652292600,8.934292724609374,-0.6074749827384949,1.0782749652862549,0.7125250101089478
1772402130672348700,8.9543486328125,-0.46681249141693115,0.8289874792098999,1.089687466621399
1772402130692405000,8.974405029296875,-0.4008125066757202,0.9609875082969666,1.181262493133545
1772402130712460800,8.994460693359375,-0.30703750252723694,1.048437476158142,0.9532874822616577
1772402130732516900,9.014516845703126,-0.15895000100135803,0.9855999946594238,0.6380000114440918
1772402130752573000,9.034572998046874,0.017875000834465027,0.7991499900817871,0.516587495803833
1772402130772629200,9.054629150390625,0.24584999680519104,0.4870249927043915,0.40369999408721924
1772402130792685300,9.074685302734375,0.5409250259399414,-0.1522125005722046,0.30882498621940613
1772402130812741600,9.09474169921875,0.7145875096321106,-0.637862503528595,0.16183750331401825
1772402130832797400,9.11479736328125,1.0000375509262085,-0.7103250026702881,0.0541750006377697
1772402130852853500,9.134853515625,1.331412434577942,-0.9468249678611755,0.09363749623298645
1772402130872909800,9.154909912109375,1.4528249502182007,-1.1545875072479248,0.11178749799728394
1772402130892966000,9.1749658203125,1.4090999364852905,-1.1855249404907227,-0.09281250089406967
1772402130913022000,9.19502197265625,1.2621124982833862,-1.2450624704360962,-0.30799999833106995
1772402130933078000,9.215078125,0.7720624804496765,-0.9490249752998352,-0.5497249960899353
1772402130953134300,9.23513427734375,0.20432500541210175,-0.3950375020503998,-0.9044749736785889
1772402130973190100,9.255190185546875,-0.0012374999932944775,-0.2096875011920929,-0.8608874678611755
1772402130993246500,9.27524658203125,0.038087498396635056,-0.2287999987602234,-0.3057999908924103
1772402131013302500,9.295302490234375,0.026399999856948853,-0.01691249944269657,0.318450003862381
1772402131033358600,9.315358642578126,-0.17916250228881836,0.06201250106096268,0.4632374942302704
1772402131053414700,9.33541455078125,-1.1655875444412231,0.5541250109672546,0.6050000190734863
1772402131073471000,9.355470947265625,-1.9123499393463135,1.1837375164031982,0.8520874977111816
1772402131093526800,9.37552685546875,-1.488437533378601,1.2645875215530396,1.0885875225067139
1772402131113583000,9.3955830078125,-0.9537000060081482,1.2199000120162964,1.538212537765503
1772402131133639200,9.41563916015625,-0.8397125005722046,0.9887624979019165,1.4049749374389648
1772402131153695500,9.435695556640624,-0.8705124855041504,0.4838624894618988,0.3162499964237213
1772402131173751600,9.45575146484375,-0.6137999892234802,0.1237500011920929,-1.2112375497817993
1772402131193807400,9.475807373046875,-0.196212500333786,-0.30346250534057617,-2.170024871826172
1772402131213863700,9.49586376953125,0.09239999949932098,-0.5814874768257141,-2.2158124446868896
1772402131233919700,9.515919677734376,0.2820124924182892,-0.7849875092506409,-2.084774971008301
1772402131253975800,9.535975830078126,0.2171124964952469,-0.9755625128746033,-1.8184374570846558
1772402131274032000,9.5560322265625,0.01251249946653843,-0.775362491607666,-1.5446749925613403
1772402131294088200,9.576088134765625,-0.1652749925851822,-0.41208750009536743,-1.4306875467300415
1772402131314144000,9.59614404296875,-0.3144625127315521,-0.3268375098705292,-1.338012456893921
1772402131334200300,9.616200439453126,-0.5435374975204468,-0.24268749356269836,-1.187862515449524
1772402131354256400,9.63625634765625,-0.6649500131607056,0.005499999970197678,-1.2091749906539917
1772402131374312700,9.656312744140624,-0.5807999968528748,-0.10422500222921371,-1.1867624521255493
1772402131394368800,9.67636865234375,-0.559487521648407,-0.3620375096797943,-1.020662546157837
1772402131414424800,9.6964248046875,-0.46681249141693115,-0.4760249853134155,-0.781962513923645
1772402131434481000,9.71648095703125,-0.09817499667406082,-0.6261749863624573,-0.5359749794006348
1772402131454537000,9.736536865234376,0.32573750615119934,-0.7242124676704407,-0.5295125246047974
1772402131474593000,9.756593017578124,0.6315374970436096,-0.7540500164031982,-0.54339998960495
1772402131494649300,9.7766494140625,0.6421250104904175,-0.7167875170707703,-0.5752999782562256
1772402131514705200,9.796705078125,0.40136250853538513,-0.6400625109672546,-0.4422000050544739
1772402131534761200,9.81676123046875,0.0849749967455864,-0.37798750400543213,-0.16733749210834503
1772402131554817500,9.836817626953126,-0.08442500233650208,0.05871250107884407,0.24392500519752502
1772402131574873600,9.85687353515625,-0.08112499862909317,0.006599999964237213,0.6912124752998352
1772402131594929700,9.8769296875,-0.09391249716281891,-0.16706250607967377,0.848924994468689
1772402131614985700,9.89698583984375,-0.20583750307559967,-0.1190750002861023,0.8606125116348267
1772402131635041800,9.917041748046875,-0.4156624972820282,-0.038224998861551285,0.828712522983551
1772402131655097900,9.937097900390626,-0.6638500094413757,-0.053075000643730164,0.5197499990463257
1772402131675154200,9.957154296875,-0.9483374953269958,0.033137500286102295,0.45045000314712524
1772402131695210200,9.977210205078125,-0.947237491607666,0.43697500228881836,0.7636749744415283
1772402131715266300,9.997266357421875,-0.6788374781608582,0.37619999051094055,1.1109999418258667
1772402131735322400,10.017322265625,-0.5062749981880188,0.04702499881386757,1.3506624698638916
1772402131755378400,10.03737841796875,-0.4604874849319458,0.14822499454021454,1.2685749530792236
1772402131775434500,10.0574345703125,-0.3624500036239624,0.2153249979019165,0.6987749934196472
1772402131795490800,10.07749072265625,-0.3251875042915344,0.6701750159263611,0.22151249647140503
1772402131815547000,10.097546875,-0.26124998927116394,1.187999963760376,0.18205000460147858
1772402131835603000,10.11760302734375,-0.23883749544620514,0.9876624941825867,0.5464249849319458
1772402131855659000,10.137658935546876,-0.2527250051498413,0.7426375150680542,1.0726374387741089
1772402131875715000,10.157715087890624,-0.10889999568462372,0.41456249356269836,1.4848624467849731
1772402131895771400,10.177771484375,0.15097500383853912,0.4049375057220459,1.3293499946594238
1772402131915827500,10.197827392578125,0.39393749833106995,0.41029998660087585,0.9927499890327454
1772402131935883500,10.217883544921875,0.39393749833106995,0.20363749563694,0.6624749898910522
1772402131955939800,10.23793994140625,0.36616250872612,0.42941248416900635,0.29397499561309814
1772402131975996000,10.257995849609374,0.5238749980926514,0.4731374979019165,0.17668749392032623
