time,seconds_elapsed,z,y,x
1772594804585630000,0.2436298828125,0.07361125946044922,-0.00009299442172050476,0.0017337054014205933
1772594804605925000,0.263925048828125,0.19922161102294922,0.0009347423911094666,0.0038312971591949463
1772594804626188000,0.28418798828125,0.19496726989746094,0.0006537064909934998,0.004155650734901428
1772594804646452000,0.304451904296875,0.18236541748046875,0.0006484650075435638,0.0039582401514053345
1772594804666716000,0.3247158203125,0.18368053436279297,0.00046476908028125763,0.0039970725774765015
1772594804686979000,0.34497900390625,0.18080520629882812,0.00042827799916267395,0.004127562046051025
1772594804707243000,0.365242919921875,0.17034626007080078,0.0003298614174127579,0.0039015263319015503
1772594804727507000,0.3855068359375,0.16296100616455078,0.000312143936753273,0.0038375258445739746
1772594804747770000,0.40577001953125,0.15444660186767578,0.00024462491273880005,0.0037997961044311523
1772594804768034000,0.426033935546875,0.15867328643798828,0.00024855323135852814,0.003946274518966675
1772594804788298000,0.446298095703125,0.17374324798583984,0.00043415091931819916,0.003969043493270874
1772594804808561000,0.466560791015625,0.16641902923583984,0.0003579910844564438,0.0039180368185043335
1772594804828825000,0.4868251953125,0.15840911865234375,0.0002885162830352783,0.003820091485977173
1772594804849089000,0.507089111328125,0.15070056915283203,0.0002041878178715706,0.0037138164043426514
1772594804869352000,0.52735205078125,0.1434173583984375,0.00013674888759851456,0.003616243600845337
1772594804889616000,0.547615966796875,0.13636302947998047,0.00007351348176598549,0.003522127866744995
1772594804909880000,0.567880126953125,0.12941265106201172,0.000023934058845043182,0.0034304559230804443
1772594804930143000,0.58814306640625,0.12126922607421875,-0.00001953565515577793,0.0032857954502105713
1772594804950407000,0.608406982421875,0.11223602294921875,-0.00005273986607789993,0.0031001269817352295
1772594804970671000,0.628671142578125,0.0995330810546875,-0.0000921962782740593,0.002794891595840454
1772594804990934000,0.64893408203125,0.08484268188476562,-0.00010959804058074951,0.002413928508758545
1772594805011198000,0.669197998046875,0.07200431823730469,-0.00011336803436279297,0.002077430486679077
1772594805031462000,0.6894619140625,0.06134986877441406,-0.00011288560926914215,0.0017929375171661377
1772594805051725000,0.70972509765625,0.05376720428466797,-0.00010755844414234161,0.0015876591205596924
1772594805071989000,0.729989013671875,0.04644203186035156,-0.00009921006858348846,0.0013811588287353516
1772594805092253000,0.7502529296875,0.04079151153564453,-0.00009315833449363708,0.001219242811203003
1772594805112516000,0.77051611328125,0.037238121032714844,-0.00009437277913093567,0.001116037368774414
1772594805132780000,0.790780029296875,0.03534507751464844,-0.00010066106915473938,0.001062542200088501
1772594805153044000,0.8110439453125,0.033524513244628906,-0.00010695867240428925,0.0010117888450622559
1772594805173307000,0.831306884765625,0.03349018096923828,-0.00011326372623443604,0.0010172724723815918
1772594805193571000,0.851571044921875,0.034969329833984375,-0.00012888386845588684,0.0010712146759033203
1772594805213835000,0.8718349609375,0.037242889404296875,-0.0001525282859802246,0.0011487305164337158
1772594805234098000,0.892097900390625,0.03984642028808594,-0.00017648935317993164,0.0012370049953460693
1772594805254362000,0.912362060546875,0.041329383850097656,-0.0001967400312423706,0.0012944340705871582
1772594805274626000,0.9326259765625,0.043936729431152344,-0.00022771582007408142,0.0013940036296844482
1772594805294889000,0.952888916015625,0.045187950134277344,-0.0002471655607223511,0.0014487802982330322
1772594805315153000,0.97315283203125,0.043906211853027344,-0.0002444051206111908,0.0014192759990692139
1772594805335417000,0.9934169921875,0.042822837829589844,-0.00023567676544189453,0.0013932287693023682
1772594805355680000,1.013679931640625,0.0452423095703125,-0.00024770572781562805,0.0014791786670684814
1772594805375944000,1.03394384765625,0.04936027526855469,-0.0002652108669281006,0.0016193091869354248
1772594805396208000,1.0542080078125,0.056624412536621094,-0.00029263272881507874,0.0018631815910339355
1772594805416471000,1.074470947265625,0.06407356262207031,-0.00031576305627822876,0.0021094977855682373
1772594805436735000,1.09473486328125,0.0702972412109375,-0.00033302605152130127,0.0023095309734344482
1772594805456999000,1.1149990234375,0.07559680938720703,-0.0003352835774421692,0.002476811408996582
1772594805477262000,1.135261962890625,0.07932281494140625,-0.0003255903720855713,0.002584487199783325
1772594805497526000,1.155526123046875,0.08302116394042969,-0.00032004714012145996,0.0026854872703552246
1772594805517790000,1.1757900390625,0.08808135986328125,-0.00032221898436546326,0.0028275251388549805
1772594805538053000,1.19605322265625,0.09065437316894531,-0.00032319873571395874,0.002885282039642334
1772594805558317000,1.216317138671875,0.08928775787353516,-0.0003039725124835968,0.0028140246868133545
1772594805578581000,1.2365810546875,0.08572864532470703,-0.0002863667905330658,0.0026739835739135742
1772594805598844000,1.256843994140625,0.07710647583007812,-0.0002641230821609497,0.0023804306983947754
1772594805619108000,1.277108154296875,0.06612968444824219,-0.00023385882377624512,0.002022981643676758
1772594805639372000,1.2973720703125,0.05667591094970703,-0.00019701942801475525,0.0017124712467193604
1772594805659635000,1.317635009765625,0.04813098907470703,-0.00017033517360687256,0.0014376342296600342
1772594805679899000,1.33789892578125,0.040785789489746094,-0.00014676526188850403,0.0012072324752807617
1772594805700163000,1.3581630859375,0.033306121826171875,-0.0001238994300365448,0.0009810924530029297
1772594805720426000,1.378426025390625,0.02360057830810547,-0.00009355694055557251,0.0006940662860870361
1772594805740690000,1.39868994140625,0.014154434204101562,-0.000059779733419418335,0.0004181861877441406
1772594805760954000,1.4189541015625,0.006234169006347656,-0.00002793222665786743,0.00018548965454101562
1772594805781217000,1.439217041015625,-0.0018720626831054688,0.000008769333362579346,-0.0000559687614440918
1772594805801481000,1.45948095703125,-0.008455276489257812,0.000040102750062942505,-0.00025340914726257324
1772594805821745000,1.479744873046875,-0.01129150390625,0.000055033713579177856,-0.00034049153327941895
1772594805842009000,1.500009033203125,-0.013258934020996094,0.0000678524374961853,-0.0004044175148010254
1772594805862272000,1.52027197265625,-0.015758514404296875,0.00008400529623031616,-0.00048619508743286133
1772594805882536000,1.540535888671875,-0.017828941345214844,0.00009567663073539734,-0.0005538761615753174
1772594805902800000,1.5607998046875,-0.021025657653808594,0.0001137368381023407,-0.0006550252437591553
1772594805923063000,1.58106298828125,-0.020265579223632812,0.00010875612497329712,-0.0006314516067504883
1772594805943327000,1.601326904296875,-0.016488075256347656,0.00008689612150192261,-0.000514298677444458
1772594805963591000,1.6215908203125,-0.010420799255371094,0.000053279101848602295,-0.0003260374069213867
1772594805983854000,1.64185400390625,-0.001522064208984375,0.000007510185241699219,-0.00004801154136657715
1772594806004118000,1.662117919921875,0.009540557861328125,-0.00004686415195465088,0.00030416250228881836
1772594806024382000,1.6823818359375,0.02001476287841797,-0.00009582191705703735,0.0006428062915802002
1772594806044645000,1.70264501953125,0.02984333038330078,-0.0001387186348438263,0.0009643733501434326
1772594806064909000,1.722908935546875,0.040495872497558594,-0.00018419697880744934,0.0013138353824615479
1772594806085173000,1.743173095703125,0.04984760284423828,-0.00022882968187332153,0.0016245245933532715
1772594806105436000,1.763435791015625,0.06014823913574219,-0.0002737268805503845,0.0019693076610565186
1772594806125700000,1.7837001953125,0.06945228576660156,-0.00031272321939468384,0.002286583185195923
1772594806145964000,1.803964111328125,0.07639598846435547,-0.0003477856516838074,0.0025163888931274414
1772594806166227000,1.82422705078125,0.07932281494140625,-0.00037236884236335754,0.002605646848678589
1772594806186491000,1.844490966796875,0.07847976684570312,-0.0003882870078086853,0.002563953399658203
1772594806206755000,1.864755126953125,0.07478713989257812,-0.0003869198262691498,0.0024214982986450195
1772594806227018000,1.88501806640625,0.06797504425048828,-0.00036438554525375366,0.0021758973598480225
1772594806247282000,1.905281982421875,0.05874347686767578,-0.00032629817724227905,0.0018593668937683105
1772594806267546000,1.925546142578125,0.046764373779296875,-0.00026096776127815247,0.0014620423316955566
1772594806287809000,1.94580908203125,0.03285694122314453,-0.00018256902694702148,0.001017063856124878
1772594806308073000,1.966072998046875,0.01666736602783203,-0.00009172409772872925,0.0005110204219818115
1772594806328337000,1.9863369140625,-0.00011157989501953125,6.221234798431396e-7,-0.000003427267074584961
1772594806348600000,2.00660009765625,-0.016323089599609375,0.00008855760097503662,-0.000491797924041748
1772594806368864000,2.026864013671875,-0.03009033203125,0.00016070902347564697,-0.0009009838104248047
1772594806389128000,2.0471279296875,-0.04226112365722656,0.0002192482352256775,-0.0012592077255249023
1772594806409391000,2.06739111328125,-0.05288505554199219,0.0002580024302005768,-0.0015737414360046387
1772594806429655000,2.087655029296875,-0.06293964385986328,0.00028783828020095825,-0.0018793940544128418
1772594806449919000,2.1079189453125,-0.07171821594238281,0.00030238181352615356,-0.0021542608737945557
1772594806470182000,2.128181884765625,-0.0791921615600586,0.0003234557807445526,-0.0023992061614990234
1772594806490446000,2.148446044921875,-0.08591747283935547,0.0003367327153682709,-0.002624034881591797
1772594806510710000,2.1687099609375,-0.09053611755371094,0.0003496520221233368,-0.00277748703956604
1772594806530973000,2.188972900390625,-0.09456729888916016,0.0003630109131336212,-0.0029117465019226074
1772594806551237000,2.209237060546875,-0.09522438049316406,0.00035200268030166626,-0.002942711114883423
1772594806571501000,2.2295009765625,-0.09374713897705078,0.00034029409289360046,-0.002901792526245117
1772594806591764000,2.249763916015625,-0.08874893188476562,0.00031238794326782227,-0.002744048833847046
1772594806612028000,2.27002783203125,-0.08171367645263672,0.0002865716814994812,-0.002524048089981079
1772594806632292000,2.2902919921875,-0.07236099243164062,0.0002458244562149048,-0.0022315680980682373
1772594806652555000,2.310554931640625,-0.06306934356689453,0.00020869076251983643,-0.0019431114196777344
1772594806672819000,2.33081884765625,-0.05238151550292969,0.00016114860773086548,-0.001607358455657959
1772594806693083000,2.351082763671875,-0.03914165496826172,0.00011427327990531921,-0.0011942684650421143
1772594806713346000,2.371345947265625,-0.024024009704589844,0.00006654486060142517,-0.0007345676422119141
1772594806733610000,2.39160986328125,-0.009113311767578125,0.00002446211874485016,-0.0002798140048980713
1772594806753874000,2.4118740234375,0.0045070648193359375,-0.000011565163731575012,0.00013872981071472168
1772594806774137000,2.43213720703125,0.017876625061035156,-0.00004379451274871826,0.0005502104759216309
1772594806794401000,2.452401123046875,0.026353836059570312,-0.000059952959418296814,0.0008123517036437988
1772594806814665000,2.4726650390625,0.03100299835205078,-0.00006335414946079254,0.0009540021419525146
1772594806834928000,2.49292822265625,0.03566169738769531,-0.00007050670683383942,0.0010952651500701904
1772594806855192000,2.513192138671875,0.04047966003417969,-0.00008379295468330383,0.0012357831001281738
1772594806875456000,2.5334560546875,0.04467582702636719,-0.00010137446224689484,0.0013580024242401123
1772594806895719000,2.553718994140625,0.04869842529296875,-0.00012088753283023834,0.001480191946029663
1772594806915983000,2.573983154296875,0.051993370056152344,-0.0001351870596408844,0.0015694200992584229
1772594806936247000,2.5942470703125,0.055443763732910156,-0.00015271082520484924,0.0016660094261169434
1772594806956510000,2.614510009765625,0.059302330017089844,-0.00017666257917881012,0.0017767548561096191
1772594806976774000,2.63477392578125,0.06261348724365234,-0.00019220635294914246,0.0018754899501800537
1772594806997038000,2.6550380859375,0.06965255737304688,-0.00022931769490242004,0.0020896494388580322
1772594807017301000,2.675301025390625,0.07968425750732422,-0.0002881065011024475,0.0023940205574035645
1772594807037565000,2.69556494140625,0.08949661254882812,-0.0003454349935054779,0.0026937127113342285
1772594807057829000,2.7158291015625,0.09556198120117188,-0.0003797188401222229,0.002885162830352783
1772594807078092000,2.736092041015625,0.09756755828857422,-0.00039228424429893494,0.0029512345790863037
1772594807098356000,2.75635595703125,0.09514904022216797,-0.0003839954733848572,0.002874135971069336
1772594807118620000,2.776619873046875,0.09020614624023438,-0.0003787912428379059,0.00273740291595459
1772594807138884000,2.796884033203125,0.082366943359375,-0.0003454945981502533,0.0025032758712768555
1772594807159147000,2.81714697265625,0.07144737243652344,-0.00030287355184555054,0.002177298069000244
1772594807179411000,2.837410888671875,0.057952880859375,-0.0002558678388595581,0.0017692744731903076
1772594807199675000,2.8576748046875,0.04265880584716797,-0.00019209831953048706,0.001302480697631836
1772594807219938000,2.87793798828125,0.025861740112304688,-0.00011892616748809814,0.0007907450199127197
1772594807240202000,2.898201904296875,0.006951332092285156,-0.000032100826501846313,0.00021278858184814453
1772594807260466000,2.9184658203125,-0.009618759155273438,0.0000450722873210907,-0.00029531121253967285
1772594807280729000,2.93872900390625,-0.02330780029296875,0.00011246278882026672,-0.0007214844226837158
1772594807300993000,2.958992919921875,-0.034171104431152344,0.00017141923308372498,-0.001063913106918335
1772594807321257000,2.979257080078125,-0.044564247131347656,0.00022277608513832092,-0.0013900995254516602
1772594807341520000,2.999519775390625,-0.05495262145996094,0.0002777799963951111,-0.0017192065715789795
1772594807361784000,3.0197841796875,-0.06505107879638672,0.0003246292471885681,-0.002041548490524292
1772594807382048000,3.040048095703125,-0.07542991638183594,0.00036699697375297546,-0.0023829638957977295
1772594807402311000,3.060310791015625,-0.08552074432373047,0.000408172607421875,-0.002719581127166748
1772594807422575000,3.0805751953125,-0.09531497955322266,0.00044415146112442017,-0.003036975860595703
1772594807442839000,3.100839111328125,-0.10389518737792969,0.0004865974187850952,-0.003316253423690796
1772594807463102000,3.12110205078125,-0.11289119720458984,0.0005236230790615082,-0.0036023855209350586
1772594807483366000,3.141365966796875,-0.1211252212524414,0.0005506649613380432,-0.003843963146209717
1772594807503630000,3.161630126953125,-0.12955379486083984,0.0005868338048458099,-0.004101693630218506
1772594807523893000,3.18189306640625,-0.13635921478271484,0.0006318017840385437,-0.004314631223678589
1772594807544157000,3.202156982421875,-0.13765716552734375,0.0006511695683002472,-0.004340767860412598
1772594807564421000,3.222421142578125,-0.13570022583007812,0.0006697624921798706,-0.004277646541595459
1772594807584684000,3.24268408203125,-0.1303577423095703,0.0006646104156970978,-0.004095256328582764
1772594807604948000,3.262947998046875,-0.1233510971069336,0.0006536915898323059,-0.0038718581199645996
1772594807625212000,3.2832119140625,-0.11315441131591797,0.0006116442382335663,-0.0035685598850250244
1772594807645475000,3.30347509765625,-0.10059452056884766,0.000552203506231308,-0.003184109926223755
1772594807665739000,3.323739013671875,-0.08485221862792969,0.0004673078656196594,-0.002703934907913208
1772594807686003000,3.3440029296875,-0.06772994995117188,0.00037486106157302856,-0.0021751821041107178
1772594807706266000,3.36426611328125,-0.04961585998535156,0.00027430057525634766,-0.0016015172004699707
1772594807726530000,3.384530029296875,-0.0319671630859375,0.00017863884568214417,-0.001038193702697754
1772594807746794000,3.4047939453125,-0.015689849853515625,0.00008835643529891968,-0.0005120038986206055
1772594807767057000,3.425056884765625,-0.00101470947265625,0.000005811452865600586,-0.00003325939178466797
1772594807787321000,3.445321044921875,0.012944221496582031,-0.00007541850209236145,0.00042703747749328613
1772594807807585000,3.4655849609375,0.027454376220703125,-0.00016199052333831787,0.0009064674377441406
1772594807827848000,3.485847900390625,0.039795875549316406,-0.0002388283610343933,0.0013138353824615479
1772594807848112000,3.506112060546875,0.04958629608154297,-0.0003029443323612213,0.0016404390335083008
1772594807868376000,3.5263759765625,0.05797863006591797,-0.00036850571632385254,0.0019179582595825195
1772594807888639000,3.546638916015625,0.06570816040039062,-0.00043107569217681885,0.002176046371459961
1772594807908903000,3.56690283203125,0.07371997833251953,-0.00048676133155822754,0.002445131540298462
1772594807929167000,3.5871669921875,0.0817718505859375,-0.0005338266491889954,0.00271037220954895
1772594807949430000,3.607429931640625,0.08765220642089844,-0.0005624890327453613,0.002904653549194336
1772594807969694000,3.62769384765625,0.09293460845947266,-0.0005678646266460419,0.0030696988105773926
1772594807989958000,3.6479580078125,0.09708690643310547,-0.0005668848752975464,0.0031855106353759766
1772594808010221000,3.668220947265625,0.10010910034179688,-0.0005599036812782288,0.003282785415649414
1772594808030485000,3.688485107421875,0.10354423522949219,-0.0005542188882827759,0.0033795535564422607
1772594808050749000,3.7087490234375,0.10845088958740234,-0.0005523338913917542,0.003507465124130249
1772594808071012000,3.72901220703125,0.11267757415771484,-0.00054120272397995,0.00361064076423645
1772594808091276000,3.749276123046875,0.11400127410888672,-0.0005236752331256866,0.0036289095878601074
1772594808111540000,3.7695400390625,0.1114492416381836,-0.0004955343902111053,0.003526747226715088
1772594808131803000,3.789802978515625,0.10699462890625,-0.0004694238305091858,0.003373265266418457
1772594808152067000,3.810067138671875,0.09926319122314453,-0.0004341788589954376,0.003129035234451294
1772594808172331000,3.8303310546875,0.08997821807861328,-0.00040300190448760986,0.0028372108936309814
1772594808192594000,3.850593994140625,0.07777690887451172,-0.0003483593463897705,0.0024558603763580322
1772594808212858000,3.870858154296875,0.06763267517089844,-0.0003054812550544739,0.0021366775035858154
1772594808233122000,3.8911220703125,0.05690574645996094,-0.0002575777471065521,0.0018054842948913574
1772594808253385000,3.911385009765625,0.047471046447753906,-0.00021652504801750183,0.0015195608139038086
1772594808273649000,3.93164892578125,0.03840827941894531,-0.00017505139112472534,0.0012409090995788574
1772594808293913000,3.9519130859375,0.031800270080566406,-0.00014122575521469116,0.0010345876216888428
1772594808314176000,3.972176025390625,0.02884387969970703,-0.00012223422527313232,0.0009441077709197998
1772594808334440000,3.99243994140625,0.02803325653076172,-0.00011261552572250366,0.0009208917617797852
1772594808354704000,4.012703857421875,0.030994415283203125,-0.0001167096197605133,0.0010156631469726562
1772594808374967000,4.032967041015625,0.03683948516845703,-0.00012887641787528992,0.0012055933475494385
1772594808395231000,4.05323095703125,0.04581737518310547,-0.0001556016504764557,0.0014934539794921875
1772594808415495000,4.073494873046875,0.052969932556152344,-0.00017266720533370972,0.0017131268978118896
1772594808435759000,4.093759033203125,0.06200885772705078,-0.00019679032266139984,0.001984924077987671
1772594808456022000,4.11402197265625,0.06896305084228516,-0.00020633265376091003,0.002177298069000244
1772594808476286000,4.134285888671875,0.07540035247802734,-0.00021105073392391205,0.0023428797721862793
1772594808496550000,4.1545498046875,0.08250904083251953,-0.0002219919115304947,0.002519547939300537
1772594808516813000,4.17481298828125,0.0884389877319336,-0.00023939087986946106,0.002658247947692871
1772594808537077000,4.195076904296875,0.09360218048095703,-0.00025715865194797516,0.0027695298194885254
1772594808557341000,4.2153408203125,0.09808731079101562,-0.0002703499048948288,0.002876460552215576
1772594808577604000,4.23560400390625,0.10227012634277344,-0.00028461217880249023,0.0029613077640533447
1772594808597868000,4.255867919921875,0.1065073013305664,-0.0002891644835472107,0.003045320510864258
1772594808618132000,4.276132080078125,0.11133384704589844,-0.000301433727145195,0.0031509697437286377
1772594808638395000,4.296394775390625,0.11450481414794922,-0.00032076798379421234,0.0032272040843963623
1772594808658659000,4.3166591796875,0.11825084686279297,-0.00035916268825531006,0.0033187270164489746
1772594808678923000,4.336923095703125,0.12166118621826172,-0.00039668381214141846,0.0034118592739105225
1772594808699186000,4.35718603515625,0.12415504455566406,-0.000428956001996994,0.003479570150375366
1772594808719450000,4.3774501953125,0.1268758773803711,-0.0004462003707885742,0.0035413503646850586
1772594808739714000,4.397714111328125,0.13018131256103516,-0.00045247748494148254,0.0036153197288513184
1772594808759977000,4.41797705078125,0.13328075408935547,-0.0004672519862651825,0.003692150115966797
1772594808780241000,4.438240966796875,0.13593769073486328,-0.0004687756299972534,0.0037754476070404053
1772594808800505000,4.458505126953125,0.13921260833740234,-0.0004977919161319733,0.0038870573043823242
1772594808820768000,4.47876806640625,0.141357421875,-0.0005107522010803223,0.003968566656112671
1772594808841032000,4.499031982421875,0.1434316635131836,-0.0005180761218070984,0.0040465593338012695
1772594808861296000,4.519296142578125,0.1452770233154297,-0.0005077831447124481,0.004110217094421387
1772594808881559000,4.53955908203125,0.14775466918945312,-0.0005056671798229218,0.004180580377578735
1772594808901823000,4.559822998046875,0.1495370864868164,-0.0004908069968223572,0.004236787557601929
1772594808922087000,4.5800869140625,0.15204715728759766,-0.0005022883415222168,0.004342913627624512
1772594808942350000,4.60035009765625,0.15458965301513672,-0.0005150251090526581,0.0044484734535217285
1772594808962614000,4.620614013671875,0.15827083587646484,-0.0005416125059127808,0.004575669765472412
1772594808982878000,4.6408779296875,0.1607198715209961,-0.0005755499005317688,0.004665762186050415
1772594809003141000,4.66114111328125,0.16142559051513672,-0.0005847401916980743,0.004699796438217163
1772594809023405000,4.681405029296875,0.1594705581665039,-0.0005884356796741486,0.004656493663787842
1772594809043669000,4.7016689453125,0.1552906036376953,-0.0005763284862041473,0.004516780376434326
1772594809063932000,4.721931884765625,0.14744949340820312,-0.0005521811544895172,0.004282087087631226
1772594809084196000,4.742196044921875,0.13772964477539062,-0.0005152896046638489,0.003994017839431763
1772594809104460000,4.7624599609375,0.125701904296875,-0.0004709102213382721,0.003653496503829956
1772594809124723000,4.782722900390625,0.1100006103515625,-0.0004066452383995056,0.0032043159008026123
1772594809144987000,4.80298681640625,0.09360790252685547,-0.000342048704624176,0.002748250961303711
1772594809165251000,4.8232509765625,0.0743093490600586,-0.00026332587003707886,0.0021938085556030273
1772594809185514000,4.843513916015625,0.05346965789794922,-0.00018039345741271973,0.0015891492366790771
1772594809205778000,4.86377783203125,0.032433509826660156,-0.00010473281145095825,0.0009717643260955811
1772594809226042000,4.8840419921875,0.012894630432128906,-0.0000391155481338501,0.00038820505142211914
1772594809246305000,4.904304931640625,-0.005820274353027344,0.000017024576663970947,-0.00017684698104858398
1772594809266569000,4.92456884765625,-0.022089004516601562,0.00006345659494400024,-0.0006775557994842529
1772594809286833000,4.9448330078125,-0.03413581848144531,0.00009873881936073303,-0.0010581016540527344
1772594809307096000,4.965095947265625,-0.04195117950439453,0.00012528523802757263,-0.0013052821159362793
1772594809327360000,4.985360107421875,-0.045418739318847656,0.00013467669486999512,-0.0014160573482513428
1772594809347624000,5.0056240234375,-0.047211647033691406,0.00013958103954792023,-0.001475304365158081
1772594809367887000,5.02588720703125,-0.048370361328125,0.00014038383960723877,-0.0015139877796173096
1772594809388151000,5.046151123046875,-0.04942607879638672,0.00014141201972961426,-0.001547008752822876
1772594809408415000,5.0664150390625,-0.05058097839355469,0.00013707391917705536,-0.0015773773193359375
1772594809428678000,5.086677978515625,-0.051403045654296875,0.00013580359518527985,-0.0016019940376281738
1772594809448942000,5.106942138671875,-0.051712989807128906,0.0001254994422197342,-0.0016060471534729004
1772594809469206000,5.1272060546875,-0.052620887756347656,0.00011958740651607513,-0.0016317963600158691
1772594809489469000,5.147468994140625,-0.053348541259765625,0.00010453164577484131,-0.0016520023345947266
1772594809509733000,5.167733154296875,-0.05391120910644531,0.00008774176239967346,-0.0016720890998840332
1772594809529997000,5.1879970703125,-0.05448627471923828,0.00007590930908918381,-0.0016893446445465088
1772594809550260000,5.208260009765625,-0.054802894592285156,0.00006628967821598053,-0.0016859769821166992
1772594809570524000,5.22852392578125,-0.0537567138671875,0.00005715806037187576,-0.0016415119171142578
1772594809590788000,5.2487880859375,-0.05152130126953125,0.00004850141704082489,-0.0015577375888824463
1772594809611051000,5.269051025390625,-0.050316810607910156,0.00004944112151861191,-0.001512378454208374
1772594809631315000,5.28931494140625,-0.04986381530761719,0.00005059689283370972,-0.0014920532703399658
1772594809651579000,5.309578857421875,-0.047698020935058594,0.00005527958273887634,-0.0014215707778930664
1772594809671842000,5.329842041015625,-0.041520118713378906,0.000046730972826480865,-0.0012334883213043213
1772594809692106000,5.35010595703125,-0.03742408752441406,0.00004925299435853958,-0.001109391450881958
1772594809712370000,5.370369873046875,-0.03315162658691406,0.00004916265606880188,-0.0009786784648895264
1772594809732634000,5.390634033203125,-0.028855323791503906,0.00004745274782180786,-0.0008491277694702148
1772594809752897000,5.41089697265625,-0.02465057373046875,0.00004437379539012909,-0.0007266402244567871
1772594809773161000,5.431160888671875,-0.018222808837890625,0.00003544054925441742,-0.0005394220352172852
1772594809793425000,5.4514248046875,-0.009656906127929688,0.000019690021872520447,-0.0002868771553039551
1772594809813688000,5.47168798828125,0.0022802352905273438,-0.0000048074871301651,0.00006794929504394531
1772594809833952000,5.491951904296875,0.01688098907470703,-0.00003584660589694977,0.0005054771900177002
1772594809854216000,5.5122158203125,0.02942371368408203,-0.00006624311208724976,0.0008853673934936523
1772594809874479000,5.53247900390625,0.03636646270751953,-0.00008880160748958588,0.0010927319526672363
1772594809894743000,5.552742919921875,0.043265342712402344,-0.00011466816067695618,0.001301586627960205
1772594809915007000,5.573007080078125,0.048458099365234375,-0.0001416727900505066,0.001461118459701538
1772594809935270000,5.593269775390625,0.053046226501464844,-0.00016709044575691223,0.0016034245491027832
1772594809955534000,5.6135341796875,0.058307647705078125,-0.0001940801739692688,0.0017721354961395264
1772594809975798000,5.633798095703125,0.06129169464111328,-0.0002093277871608734,0.0018750429153442383
1772594809996061000,5.65406103515625,0.0633401870727539,-0.00022315233945846558,0.0019493699073791504
1772594810016325000,5.6743251953125,0.06565189361572266,-0.00023576617240905762,0.002032756805419922
1772594810036589000,5.694589111328125,0.0668783187866211,-0.0002468973398208618,0.0020768940448760986
1772594810056852000,5.71485205078125,0.0695352554321289,-0.0002490505576133728,0.0021686553955078125
1772594810077116000,5.735115966796875,0.07557964324951172,-0.00026269257068634033,0.002379179000854492
1772594810097380000,5.755380126953125,0.08096694946289062,-0.0002646148204803467,0.0025701522827148438
1772594810117643000,5.77564306640625,0.08607864379882812,-0.00026026181876659393,0.0027453601360321045
1772594810137907000,5.795906982421875,0.09015274047851562,-0.0002442058175802231,0.0028824210166931152
1772594810158171000,5.8161708984375,0.09205818176269531,-0.00022931769490242004,0.002946227788925171
1772594810178434000,5.83643408203125,0.09423160552978516,-0.0002214685082435608,0.0030183494091033936
1772594810198698000,5.856697998046875,0.0959177017211914,-0.00021345540881156921,0.0030786991119384766
1772594810218962000,5.8769619140625,0.094207763671875,-0.0001978222280740738,0.0030241012573242188
1772594810239225000,5.89722509765625,0.09043598175048828,-0.00018889829516410828,0.00290071964263916
1772594810259489000,5.917489013671875,0.08468341827392578,-0.00017801299691200256,0.0027183890342712402
1772594810279753000,5.9377529296875,0.07629585266113281,-0.0001635923981666565,0.0024467110633850098
1772594810300016000,5.95801611328125,0.06666755676269531,-0.0001408606767654419,0.0021271705627441406
1772594810320280000,5.978280029296875,0.054589271545410156,-0.00012060999870300293,0.0017421245574951172
1772594810340544000,5.9985439453125,0.041149139404296875,-0.00009890459477901459,0.0013141632080078125
1772594810360807000,6.018806884765625,0.027242660522460938,-0.0000668652355670929,0.000870436429977417
1772594810381071000,6.039071044921875,0.012461662292480469,-0.00003153271973133087,0.00039833784103393555
1772594810401335000,6.0593349609375,0.0009737014770507812,-0.0000024605542421340942,0.00003108382225036621
1772594810421598000,6.079597900390625,-0.005791664123535156,0.000014808028936386108,-0.00018477439880371094
1772594810441862000,6.09986181640625,-0.009366035461425781,0.000022426247596740723,-0.00029921531677246094
1772594810462126000,6.1201259765625,-0.0096282958984375,0.000021709129214286804,-0.00030669569969177246
1772594810482389000,6.140388916015625,-0.009960174560546875,0.00002183392643928528,-0.00031617283821105957
1772594810502653000,6.16065283203125,-0.010753631591796875,0.000023460015654563904,-0.00034224987030029297
1772594810522917000,6.180917236328125,-0.010079383850097656,0.000020038336515426636,-0.00032141804695129395
1772594810543180000,6.201179931640625,-0.009163856506347656,0.0000174790620803833,-0.0002930760383605957
1772594810563444000,6.22144384765625,-0.009096145629882812,0.000016767531633377075,-0.00029093027114868164
1772594810583708000,6.2417080078125,-0.008632659912109375,0.000015176832675933838,-0.00027614831924438477
1772594810603971000,6.26197119140625,-0.012091636657714844,0.000023191794753074646,-0.0003885924816131592
1772594810624235000,6.282235107421875,-0.019140243530273438,0.00003900192677974701,-0.000619053840637207
1772594810644499000,6.3024990234375,-0.028458595275878906,0.0000616665929555893,-0.000923842191696167
1772594810664762000,6.32276220703125,-0.04076099395751953,0.0000903196632862091,-0.0013357102870941162
1772594810685026000,6.343026123046875,-0.05165576934814453,0.00011314451694488525,-0.0017043352127075195
1772594810705290000,6.3632900390625,-0.06140327453613281,0.00013812445104122162,-0.0020260214805603027
1772594810725553000,6.383552978515625,-0.06806278228759766,0.00016005337238311768,-0.0022447407245635986
1772594810745817000,6.403817138671875,-0.07221794128417969,0.00017367862164974213,-0.0023772120475769043
1772594810766081000,6.4240810546875,-0.07228660583496094,0.00018906034529209137,-0.0023647546768188477
1772594810786344000,6.444343994140625,-0.07042598724365234,0.0001954101026058197,-0.0022850334644317627
1772594810806608000,6.46460791015625,-0.06865596771240234,0.00019822269678115845,-0.0022090673446655273
1772594810826872000,6.4848720703125,-0.06658363342285156,0.0002032313495874405,-0.002124279737472534
1772594810847135000,6.505135009765625,-0.06424427032470703,0.0002050306648015976,-0.0020429790019989014
1772594810867399000,6.52539892578125,-0.05888175964355469,0.00020656734704971313,-0.0018603503704071045
1772594810887663000,6.5456630859375,-0.05005645751953125,0.00019192323088645935,-0.0015774667263031006
1772594810907926000,6.565926025390625,-0.039844512939453125,0.00016094371676445007,-0.0012536048889160156
1772594810928190000,6.58618994140625,-0.03255271911621094,0.00013932958245277405,-0.0010211169719696045
1772594810948454000,6.606453857421875,-0.02748394012451172,0.0001221783459186554,-0.0008637607097625732
1772594810968717000,6.626717041015625,-0.023347854614257812,0.0001054517924785614,-0.000736922025680542
1772594810988981000,6.64698095703125,-0.019066810607910156,0.00008884817361831665,-0.0006032288074493408
1772594811009245000,6.667244873046875,-0.012478828430175781,0.00005875900387763977,-0.0003959238529205322
1772594811029509000,6.687509033203125,-0.0036973953247070312,0.000017192214727401733,-0.0001170039176940918
1772594811049772000,6.70777197265625,0.006275177001953125,-0.000029712915420532227,0.00019788742065429688
1772594811070036000,6.728035888671875,0.016089439392089844,-0.00007617473602294922,0.000504910945892334
1772594811090300000,6.7482998046875,0.024644851684570312,-0.00011317431926727295,0.000769197940826416
1772594811110563000,6.76856298828125,0.0330047607421875,-0.00014915689826011658,0.0010260045528411865
1772594811130827000,6.788826904296875,0.04341888427734375,-0.00019260868430137634,0.001346886157989502
1772594811151091000,6.809091064453125,0.0548095703125,-0.00023495033383369446,0.001691579818725586
1772594811171354000,6.82935400390625,0.06480026245117188,-0.00027599185705184937,0.0019993185997009277
1772594811191618000,6.8496181640625,0.07372665405273438,-0.00031050294637680054,0.002282947301864624
1772594811211882000,6.869882080078125,0.08130073547363281,-0.0003299899399280548,0.0025104880332946777
1772594811232145000,6.890144775390625,0.08413219451904297,-0.00032836198806762695,0.0025954842567443848
1772594811252409000,6.9104091796875,0.08510971069335938,-0.00031532347202301025,0.0026182234287261963
1772594811272673000,6.930673095703125,0.08611392974853516,-0.0003022626042366028,0.002644449472427368
1772594811292936000,6.95093603515625,0.08643436431884766,-0.00030471011996269226,0.0026547610759735107
1772594811313200000,6.9712001953125,0.08675193786621094,-0.0003036782145500183,0.002660214900970459
1772594811333464000,6.991464111328125,0.08454418182373047,-0.0002956092357635498,0.0025860369205474854
1772594811353727000,7.01172705078125,0.07964134216308594,-0.00028950348496437073,0.002422928810119629
1772594811373991000,7.031990966796875,0.0712137222290039,-0.0002626664936542511,0.002152055501937866
1772594811394255000,7.052255126953125,0.06050300598144531,-0.00022887438535690308,0.0018081367015838623
1772594811414518000,7.07251806640625,0.04813385009765625,-0.00019074231386184692,0.0014334619045257568
1772594811434782000,7.092781982421875,0.03875255584716797,-0.00016467273235321045,0.0011561214923858643
1772594811455046000,7.1130458984375,0.03334236145019531,-0.0001497417688369751,0.000997304916381836
1772594811475309000,7.13330908203125,0.028426170349121094,-0.00013624131679534912,0.0008512437343597412
1772594811495573000,7.153572998046875,0.023731231689453125,-0.00011876970529556274,0.000708460807800293
1772594811515846000,7.173845947265625,0.016050338745117188,-0.00008312240242958069,0.0004781484603881836
1772594811536110000,7.194110107421875,0.00759124755859375,-0.00003999844193458557,0.0002263486385345459
1772594811556374000,7.2143740234375,-0.0006456375122070312,0.000003419816493988037,-0.000019371509552001953
1772594811576637000,7.234636962890625,-0.0069713592529296875,0.0000367872416973114,-0.00021085143089294434
1772594811596901000,7.254901123046875,-0.011466026306152344,0.00006121397018432617,-0.00034868717193603516
1772594811617165000,7.2751650390625,-0.01563262939453125,0.00008502975106239319,-0.0004776120185852051
1772594811637428000,7.295427978515625,-0.020717620849609375,0.00011353939771652222,-0.0006345212459564209
1772594811657692000,7.31569189453125,-0.029814720153808594,0.0001659691333770752,-0.0009139180183410645
1772594811677956000,7.3359560546875,-0.04105949401855469,0.00022978708148002625,-0.0012626945972442627
1772594811698219000,7.356218994140625,-0.054653167724609375,0.00030458346009254456,-0.0016874074935913086
1772594811718483000,7.37648291015625,-0.06627178192138672,0.00036660581827163696,-0.0020544230937957764
1772594811738747000,7.396746826171875,-0.07620906829833984,0.0004115253686904907,-0.002371758222579956
1772594811759010000,7.417010009765625,-0.08090972900390625,0.00042916834354400635,-0.0025156736373901367
1772594811779274000,7.43727392578125,-0.08326911926269531,0.00043520331382751465,-0.0025840401649475098
1772594811799538000,7.457537841796875,-0.08375072479248047,0.00042638927698135376,-0.0026054084300994873
1772594811819802000,7.477802001953125,-0.08085918426513672,0.000399172306060791,-0.0025054216384887695
1772594811840065000,7.49806494140625,-0.07881832122802734,0.00038643181324005127,-0.0024389326572418213
1772594811860329000,7.518328857421875,-0.0753641128540039,0.0003621615469455719,-0.0023350119590759277
1772594811880593000,7.538593017578125,-0.0735921859741211,0.0003441125154495239,-0.0022800862789154053
1772594811900856000,7.55885595703125,-0.07246017456054688,0.0003300867974758148,-0.0022423863410949707
1772594811921120000,7.5791201171875,-0.06983470916748047,0.0003099218010902405,-0.0021645426750183105
1772594811941384000,7.599384033203125,-0.0633401870727539,0.00028232112526893616,-0.0019634664058685303
1772594811961647000,7.619647216796875,-0.05760669708251953,0.0002594590187072754,-0.0017885565757751465
1772594811981911000,7.6399111328125,-0.05161476135253906,0.00022843480110168457,-0.0016062557697296143
1772594812002175000,7.660175048828125,-0.048366546630859375,0.0002093389630317688,-0.0015072226524353027
1772594812022438000,7.68043798828125,-0.047962188720703125,0.00020474940538406372,-0.0015059709548950195
1772594812042702000,7.7007021484375,-0.04792308807373047,0.00019737333059310913,-0.0015058517456054688
1772594812062966000,7.720966064453125,-0.049957275390625,0.0001923181116580963,-0.0015689432621002197
1772594812083229000,7.74122900390625,-0.050560951232910156,0.00018076598644256592,-0.0015869736671447754
1772594812103493000,7.7614931640625,-0.049411773681640625,0.0001691766083240509,-0.0015546083450317383
1772594812123757000,7.781757080078125,-0.04895210266113281,0.0001671425998210907,-0.0015406906604766846
1772594812144020000,7.80202001953125,-0.052298545837402344,0.00018104910850524902,-0.0016416311264038086
1772594812164284000,7.822283935546875,-0.05717754364013672,0.0001987256109714508,-0.0017872154712677002
1772594812184548000,7.842548095703125,-0.0638132095336914,0.00022626668214797974,-0.0019820332527160645
1772594812204811000,7.86281103515625,-0.07002067565917969,0.0002515725791454315,-0.0021618306636810303
1772594812225075000,7.883074951171875,-0.07483482360839844,0.0002657361328601837,-0.0022933781147003174
1772594812245339000,7.9033388671875,-0.07831192016601562,0.0002730041742324829,-0.002396494150161743
1772594812265602000,7.92360205078125,-0.0801849365234375,0.0002771131694316864,-0.0024538934230804443
1772594812285866000,7.943865966796875,-0.08007144927978516,0.0002751760184764862,-0.0024617910385131836
1772594812306130000,7.9641298828125,-0.07752704620361328,0.00026214122772216797,-0.0023929178714752197
1772594812326393000,7.98439306640625,-0.07431316375732422,0.00024223700165748596,-0.00229606032371521
1772594812346657000,8.004656982421874,-0.06997108459472656,0.00021823495626449585,-0.0021643638610839844
1772594812366921000,8.0249208984375,-0.06638431549072266,0.00019240379333496094,-0.002056628465652466
1772594812387184000,8.04518408203125,-0.060695648193359375,0.00016659684479236603,-0.0018836259841918945
1772594812407448000,8.065447998046874,-0.05284404754638672,0.000135716050863266,-0.001644045114517212
1772594812427712000,8.0857119140625,-0.04372215270996094,0.00010353885591030121,-0.001360565423965454
1772594812447975000,8.105974853515624,-0.03355121612548828,0.00007692351937294006,-0.0010401606559753418
1772594812468239000,8.126239013671874,-0.021142959594726562,0.000048819929361343384,-0.0006519854068756104
1772594812488503000,8.1465029296875,-0.010844230651855469,0.00002614036202430725,-0.00033286213874816895
1772594812508766000,8.166765869140624,-0.005093574523925781,0.000013364478945732117,-0.00015556812286376953
1772594812529030000,8.18702978515625,-0.001079559326171875,0.0000030007213354110718,-0.000032961368560791016
1772594812549294000,8.207294189453124,0.00080108642578125,-0.0000023227185010910034,0.000024437904357910156
1772594812569557000,8.227556884765624,0.0010461807250976562,-0.0000032279640436172485,0.000031948089599609375
1772594812589821000,8.247821044921874,-0.0005159378051757812,0.0000016540288925170898,-0.00001576542854309082
1772594812610085000,8.268085205078124,-0.005633354187011719,0.00001936405897140503,-0.000172346830368042
1772594812630348000,8.28834814453125,-0.01239776611328125,0.000047557055950164795,-0.0003813207149505615
1772594812650612000,8.308612060546874,-0.018403053283691406,0.00007641687989234924,-0.000568389892578125
1772594812670876000,8.3288759765625,-0.023006439208984375,0.00010186806321144104,-0.0007121562957763672
1772594812691139000,8.34913916015625,-0.026399612426757812,0.00012158602476119995,-0.000815659761428833
1772594812711403000,8.369403076171874,-0.02817249298095703,0.00013106688857078552,-0.0008705258369445801
1772594812731667000,8.3896669921875,-0.029850006103515625,0.0001417100429534912,-0.0009244382381439209
1772594812751930000,8.40993017578125,-0.03277873992919922,0.00015720725059509277,-0.0010146796703338623
1772594812772194000,8.430194091796874,-0.036235809326171875,0.00017158687114715576,-0.001123875379562378
1772594812792458000,8.4504580078125,-0.04084300994873047,0.00019738450646400452,-0.0012705624103546143
1772594812812721000,8.470720947265624,-0.040393829345703125,0.00019435584545135498,-0.0012554526329040527
1772594812832985000,8.490985107421874,-0.038687705993652344,0.00018582120537757874,-0.0011951923370361328
1772594812853249000,8.5112490234375,-0.03546142578125,0.0001676119863986969,-0.0010910630226135254
1772594812873512000,8.531511962890624,-0.033837318420410156,0.00016187876462936401,-0.0010358989238739014
1772594812893776000,8.55177587890625,-0.034369468688964844,0.00016673654317855835,-0.0010507702827453613
1772594812914040000,8.5720400390625,-0.03512096405029297,0.00017238035798072815,-0.0010724961757659912
1772594812934303000,8.592302978515624,-0.03661632537841797,0.00018370524048805237,-0.0011085867881774902
1772594812954567000,8.61256689453125,-0.03727149963378906,0.0001922696828842163,-0.0011223554611206055
1772594812974831000,8.6328310546875,-0.033514976501464844,0.00018126517534255981,-0.001005798578262329
1772594812995094000,8.653093994140624,-0.02731800079345703,0.00015052035450935364,-0.0008159279823303223
1772594813015358000,8.67335791015625,-0.022335052490234375,0.00012623146176338196,-0.000666201114654541
1772594813035622000,8.693621826171874,-0.01762866973876953,0.0001010596752166748,-0.0005272626876831055
1772594813055885000,8.713885009765624,-0.01628589630126953,0.00009483471512794495,-0.0004886090755462646
1772594813076149000,8.73414892578125,-0.017406463623046875,0.00010109320282936096,-0.0005267858505249023
1772594813096413000,8.754412841796874,-0.01968860626220703,0.00011628121137619019,-0.0005975961685180664
1772594813116677000,8.774677001953124,-0.022491455078125,0.00013462454080581665,-0.0006861090660095215
1772594813136940000,8.79493994140625,-0.025836944580078125,0.00015248358249664307,-0.0007954537868499756
1772594813157204000,8.815203857421874,-0.027518272399902344,0.0001604706048965454,-0.0008578002452850342
1772594813177468000,8.835468017578124,-0.03264045715332031,0.00018732622265815735,-0.0010244548320770264
1772594813197731000,8.85573095703125,-0.03907203674316406,0.00021946430206298828,-0.0012336969375610352
1772594813217995000,8.8759951171875,-0.04767322540283203,0.00026096031069755554,-0.0015132725238800049
1772594813238259000,8.896259033203124,-0.05874824523925781,0.00030960142612457275,-0.0018675029277801514
1772594813258522000,8.916522216796874,-0.06987190246582031,0.0003463849425315857,-0.0022168755531311035
1772594813278786000,8.9367861328125,-0.08034706115722656,0.0003742910921573639,-0.0025412440299987793
1772594813299050000,8.957050048828124,-0.08822917938232422,0.0003862939774990082,-0.002795487642288208
1772594813319313000,8.97731298828125,-0.0957021713256836,0.00039222463965415955,-0.0030318498611450195
1772594813339577000,8.9975771484375,-0.10204887390136719,0.0004013143479824066,-0.0032434463500976562
1772594813359841000,9.017841064453124,-0.10941791534423828,0.0004183240234851837,-0.003473609685897827
1772594813380104000,9.03810400390625,-0.11299991607666016,0.0004360303282737732,-0.0035980045795440674
1772594813400368000,9.0583681640625,-0.11475753784179688,0.00045238807797431946,-0.003650188446044922
1772594813420632000,9.078632080078124,-0.11316585540771484,0.00045603886246681213,-0.003607124090194702
1772594813440895000,9.09889501953125,-0.10782241821289062,0.0004512704908847809,-0.0034605860710144043
1772594813461159000,9.119158935546874,-0.0996551513671875,0.0004405193030834198,-0.003227919340133667
1772594813481423000,9.139423095703124,-0.08931732177734375,0.00040847063064575195,-0.0029149651527404785
1772594813501686000,9.15968603515625,-0.07771873474121094,0.0003488585352897644,-0.0025432705879211426
1772594813522041000,9.180041015625,-0.06349754333496094,0.00028252601623535156,-0.0020821094512939453
1772594813542305000,9.200304931640625,-0.047423362731933594,0.00020246952772140503,-0.0015532076358795166
1772594813562569000,9.22056884765625,-0.031179428100585938,0.00012890994548797607,-0.0010196268558502197
1772594813582833000,9.2408330078125,-0.019005775451660156,0.00007444247603416443,-0.000618278980255127
1772594813603096000,9.261095947265625,-0.008752822875976562,0.00003129243850708008,-0.00028386712074279785
1772594813623360000,9.281360107421875,0.0001201629638671875,-4.023313522338867e-7,0.000003904104232788086
1772594813643624000,9.3016240234375,0.008595466613769531,-0.0000264141708612442,0.00027573108673095703
1772594813663887000,9.32188720703125,0.015065193176269531,-0.00004152767360210419,0.00048094987869262695
1772594813684151000,9.342151123046875,0.021056175231933594,-0.0000543203204870224,0.0006661415100097656
1772594813704415000,9.3624150390625,0.02634429931640625,-0.0000705420970916748,0.0008270740509033203
1772594813724678000,9.382677978515625,0.03114032745361328,-0.0000864565372467041,0.0009694993495941162
1772594813744942000,9.402942138671875,0.034104347229003906,-0.00010147690773010254,0.001051574945449829
1772594813765206000,9.4232060546875,0.03764057159423828,-0.00011334195733070374,0.001152634620666504
1772594813785469000,9.443468994140625,0.042769432067871094,-0.00013217702507972717,0.001303166151046753
1772594813805733000,9.463733154296875,0.04920196533203125,-0.0001583583652973175,0.0014977455139160156
1772594813825997000,9.4839970703125,0.05425834655761719,-0.00016754679381847382,0.0016534030437469482
1772594813846260000,9.504260009765625,0.05746650695800781,-0.0001727268099784851,0.0017552971839904785
1772594813866524000,9.52452392578125,0.05819892883300781,-0.0001734849065542221,0.0017796158790588379
1772594813886788000,9.5447880859375,0.05661773681640625,-0.00016408227384090424,0.0017355680465698242
1772594813907051000,9.565051025390625,0.05422496795654297,-0.0001459214836359024,0.00167122483253479
1772594813927315000,9.58531494140625,0.051070213317871094,-0.00012784451246261597,0.0015816688537597656
1772594813947579000,9.605578857421875,0.049689292907714844,-0.00011517107486724854,0.0015449821949005127
1772594813967842000,9.625842041015625,0.05078887939453125,-0.00011403113603591919,0.0015805363655090332
1772594813988106000,9.64610595703125,0.05170154571533203,-0.00011064670979976654,0.0016100704669952393
1772594814008370000,9.666369873046875,0.052337646484375,-0.00010604783892631531,0.0016306042671203613
1772594814028633000,9.686633056640625,0.053549766540527344,-0.00011625327169895172,0.001666247844696045
1772594814048897000,9.70689697265625,0.055092811584472656,-0.0001311320811510086,0.0017018914222717285
1772594814069161000,9.727160888671875,0.060706138610839844,-0.00015472806990146637,0.001863032579421997
1772594814089424000,9.747423828125,0.06796550750732422,-0.0001853685826063156,0.00208166241645813
1772594814109688000,9.76768798828125,0.07505989074707031,-0.00021735019981861115,0.0022889673709869385
