time,seconds_elapsed,z,y,x
1772594804585630000,0.2436298828125,0.0022614786867052317,0.004389929119497538,0.0017293660202994943
1772594804605925000,0.263925048828125,0.0003990844707004726,0.0006651407456956804,0.004256900865584612
1772594804626188000,0.28418798828125,-0.001064225216396153,-0.0029266192577779293,-0.0013302814913913608
1772594804646452000,0.304451904296875,0.0019954221788793802,-0.0025275349617004395,0.0022614786867052317
1772594804666716000,0.3247158203125,0.0026605629827827215,-0.0017293660202994943,-0.0006651407456956804
1772594804686979000,0.34497900390625,0.0011972533538937569,-0.0022614786867052317,0.0035917600616812706
1772594804707243000,0.365242919921875,0.003325703786686063,-0.0031926757656037807,0.0013302814913913608
1772594804727507000,0.3855068359375,-0.0031926757656037807,-0.0029266192577779293,0.0005321126081980765
1772594804747770000,0.40577001953125,0.001064225216396153,0.0031926757656037807,-0.0011972533538937569
1772594804768034000,0.426033935546875,0.00026605630409903824,-0.0017293660202994943,0.0022614786867052317
1772594804788298000,0.446298095703125,-0.0007981689414009452,-0.0031926757656037807,0.004922041669487953
1772594804808561000,0.466560791015625,-0.00013302815204951912,0.004389929119497538,0.0039908443577587605
1772594804828825000,0.4868251953125,0.0039908443577587605,0.0018623941577970982,0.0006651407456956804
1772594804849089000,0.507089111328125,-0.00026605630409903824,0.0018623941577970982,0.0039908443577587605
1772594804869352000,0.52735205078125,-0.004256900865584612,0,0.0026605629827827215
1772594804889616000,0.547615966796875,0.0017293660202994943,0.0007981689414009452,-0.0003990844707004726
1772594804909880000,0.567880126953125,0.00013302815204951912,0.0022614786867052317,-0.001064225216396153
1772594804930143000,0.58814306640625,0.004123872611671686,-0.001064225216396153,-0.0039908443577587605
1772594804950407000,0.608406982421875,-0.002128450432792306,0.001064225216396153,0.0019954221788793802
1772594804970671000,0.628671142578125,0.004655985161662102,-0.00026605630409903824,-0.0031926757656037807
1772594804990934000,0.64893408203125,0.0039908443577587605,0.004256900865584612,-0.0007981689414009452
1772594805011198000,0.669197998046875,0.004922041669487953,0.0039908443577587605,-0.0037247883155941963
1772594805031462000,0.6894619140625,0.003325703786686063,0.001064225216396153,-0.00026605630409903824
1772594805051725000,0.70972509765625,-0.0038578163366764784,-0.004522957373410463,-0.0009311970788985491
1772594805071989000,0.729989013671875,-0.004655985161662102,0.004389929119497538,0.004389929119497538
1772594805092253000,0.7502529296875,-0.00013302815204951912,-0.0013302814913913608,0.001064225216396153
1772594805112516000,0.77051611328125,-0.0023945067077875137,-0.004123872611671686,0.004522957373410463
1772594805132780000,0.790780029296875,0.0022614786867052317,-0.0009311970788985491,-0.0006651407456956804
1772594805153044000,0.8110439453125,-0.003059647511690855,-0.0037247883155941963,-0.004389929119497538
1772594805173307000,0.831306884765625,-0.004655985161662102,0.0035917600616812706,-0.004922041669487953
1772594805193571000,0.851571044921875,0.0018623941577970982,-0.0006651407456956804,0.0017293660202994943
1772594805213835000,0.8718349609375,-0.00026605630409903824,0.0037247883155941963,0.0011972533538937569
1772594805234098000,0.892097900390625,0.004389929119497538,-0.0017293660202994943,0.00013302815204951912
1772594805254362000,0.912362060546875,-0.0034587320405989885,-0.0019954221788793802,-0.004655985161662102
1772594805274626000,0.9326259765625,-0.0039908443577587605,0.0006651407456956804,0.0025275349617004395
1772594805294889000,0.952888916015625,0.0031926757656037807,0.00013302815204951912,0.0019954221788793802
1772594805315153000,0.97315283203125,-0.0011972533538937569,-0.0018623941577970982,0.0039908443577587605
1772594805335417000,0.9934169921875,-0.0019954221788793802,-0.004123872611671686,0.0029266192577779293
1772594805355680000,1.013679931640625,-0.003059647511690855,0.0026605629827827215,0.0007981689414009452
1772594805375944000,1.03394384765625,-0.0006651407456956804,-0.0025275349617004395,0.0047890134155750275
1772594805396208000,1.0542080078125,0.0027935912366956472,0.0005321126081980765,0
1772594805416471000,1.074470947265625,0.0027935912366956472,0.0007981689414009452,0.0039908443577587605
1772594805436735000,1.09473486328125,0.0023945067077875137,-0.0003990844707004726,-0.0037247883155941963
1772594805456999000,1.1149990234375,-0.0006651407456956804,-0.00026605630409903824,-0.0017293660202994943
1772594805477262000,1.135261962890625,-0.0031926757656037807,-0.0013302814913913608,-0.002128450432792306
1772594805497526000,1.155526123046875,0.0017293660202994943,-0.004655985161662102,0.0023945067077875137
1772594805517790000,1.1757900390625,-0.0017293660202994943,-0.004655985161662102,-0.0022614786867052317
1772594805538053000,1.19605322265625,0.004922041669487953,0.0029266192577779293,-0.0023945067077875137
1772594805558317000,1.216317138671875,-0.0025275349617004395,0.001064225216396153,0.0034587320405989885
1772594805578581000,1.2365810546875,0.004522957373410463,0.0009311970788985491,0.0034587320405989885
1772594805598844000,1.256843994140625,0.004123872611671686,0.0022614786867052317,-0.004256900865584612
1772594805619108000,1.277108154296875,0.004389929119497538,-0.0037247883155941963,-0.0013302814913913608
1772594805639372000,1.2973720703125,0.0009311970788985491,-0.0047890134155750275,0.0027935912366956472
1772594805659635000,1.317635009765625,0.0018623941577970982,0.003059647511690855,-0.004123872611671686
1772594805679899000,1.33789892578125,0.004655985161662102,0.004123872611671686,-0.001064225216396153
1772594805700163000,1.3581630859375,0.0047890134155750275,-0.0026605629827827215,-0.0017293660202994943
1772594805720426000,1.378426025390625,-0.0011972533538937569,0.0014633096288889647,0.004389929119497538
1772594805740690000,1.39868994140625,-0.0047890134155750275,-0.0013302814913913608,-0.0023945067077875137
1772594805760954000,1.4189541015625,-0.0039908443577587605,-0.004922041669487953,-0.0015963378828018904
1772594805781217000,1.439217041015625,0.0022614786867052317,-0.0035917600616812706,0.0038578163366764784
1772594805801481000,1.45948095703125,0.0037247883155941963,0.0007981689414009452,-0.003325703786686063
1772594805821745000,1.479744873046875,0.003325703786686063,-0.0039908443577587605,-0.0013302814913913608
1772594805842009000,1.500009033203125,0.0009311970788985491,0.003325703786686063,-0.0011972533538937569
1772594805862272000,1.52027197265625,-0.0003990844707004726,0.0003990844707004726,-0.0026605629827827215
1772594805882536000,1.540535888671875,-0.004256900865584612,0.0005321126081980765,-0.0019954221788793802
1772594805902800000,1.5607998046875,0,0.002128450432792306,-0.0015963378828018904
1772594805923063000,1.58106298828125,0.0013302814913913608,0.0017293660202994943,0.0038578163366764784
1772594805943327000,1.601326904296875,0.004522957373410463,0.0015963378828018904,-0.0029266192577779293
1772594805963591000,1.6215908203125,-0.0005321126081980765,-0.00013302815204951912,0.0018623941577970982
1772594805983854000,1.64185400390625,-0.0038578163366764784,0.0047890134155750275,0.0006651407456956804
1772594806004118000,1.662117919921875,-0.004655985161662102,0.003325703786686063,-0.004655985161662102
1772594806024382000,1.6823818359375,-0.003059647511690855,0.004389929119497538,-0.0029266192577779293
1772594806044645000,1.70264501953125,-0.0027935912366956472,0.0014633096288889647,0.0038578163366764784
1772594806064909000,1.722908935546875,-0.0014633096288889647,-0.0035917600616812706,0.003059647511690855
1772594806085173000,1.743173095703125,-0.0019954221788793802,0.0006651407456956804,-0.004256900865584612
1772594806105436000,1.763435791015625,-0.0025275349617004395,0.004522957373410463,-0.0037247883155941963
1772594806125700000,1.7837001953125,-0.0047890134155750275,-0.0031926757656037807,0.0029266192577779293
1772594806145964000,1.803964111328125,-0.004522957373410463,0.0013302814913913608,0.004922041669487953
1772594806166227000,1.82422705078125,0.0026605629827827215,-0.002128450432792306,0.0011972533538937569
1772594806186491000,1.844490966796875,-0.003325703786686063,-0.0018623941577970982,-0.0026605629827827215
1772594806206755000,1.864755126953125,-0.0029266192577779293,0.0015963378828018904,0.003059647511690855
1772594806227018000,1.88501806640625,-0.002128450432792306,0.004123872611671686,0.0022614786867052317
1772594806247282000,1.905281982421875,-0.0038578163366764784,0.001064225216396153,0.0039908443577587605
1772594806267546000,1.925546142578125,-0.0039908443577587605,0.0009311970788985491,-0.0027935912366956472
1772594806287809000,1.94580908203125,-0.004256900865584612,-0.003059647511690855,0.0009311970788985491
1772594806308073000,1.966072998046875,-0.0026605629827827215,-0.0025275349617004395,-0.0017293660202994943
1772594806328337000,1.9863369140625,-0.0026605629827827215,-0.0025275349617004395,-0.0037247883155941963
1772594806348600000,2.00660009765625,0.0037247883155941963,-0.0031926757656037807,-0.0003990844707004726
1772594806368864000,2.026864013671875,0.0023945067077875137,0.0047890134155750275,0.00026605630409903824
1772594806389128000,2.0471279296875,0.0013302814913913608,0.00026605630409903824,0.0005321126081980765
1772594806409391000,2.06739111328125,0.0014633096288889647,0.004922041669487953,-0.004256900865584612
1772594806429655000,2.087655029296875,0.0009311970788985491,-0.0038578163366764784,0.004389929119497538
1772594806449919000,2.1079189453125,0.0037247883155941963,-0.00026605630409903824,-0.0026605629827827215
1772594806470182000,2.128181884765625,0.0025275349617004395,-0.0035917600616812706,0.004389929119497538
1772594806490446000,2.148446044921875,0.0027935912366956472,-0.004123872611671686,-0.0009311970788985491
1772594806510710000,2.1687099609375,0.0022614786867052317,0.004522957373410463,0.0037247883155941963
1772594806530973000,2.188972900390625,0.0031926757656037807,-0.0018623941577970982,0.0013302814913913608
1772594806551237000,2.209237060546875,0.004256900865584612,-0.0013302814913913608,0.0031926757656037807
1772594806571501000,2.2295009765625,0.0047890134155750275,0.0039908443577587605,0.0014633096288889647
1772594806591764000,2.249763916015625,-0.0039908443577587605,-0.0026605629827827215,-0.0034587320405989885
1772594806612028000,2.27002783203125,-0.0009311970788985491,0.0018623941577970982,-0.0011972533538937569
1772594806632292000,2.2902919921875,0.004389929119497538,-0.0011972533538937569,-0.0037247883155941963
1772594806652555000,2.310554931640625,-0.003059647511690855,0.0037247883155941963,-0.0027935912366956472
1772594806672819000,2.33081884765625,-0.1367529332637787,0.0013302814913913608,0.014899153262376785
1772594806693083000,2.351082763671875,-0.03551851585507393,0.0003990844707004726,0.0038578163366764784
1772594806713346000,2.371345947265625,-0.009178942069411278,0.00013302815204951912,0.001064225216396153
1772594806733610000,2.39160986328125,-0.0023945067077875137,0,0.00026605630409903824
1772594806753874000,2.4118740234375,-0.0006651407456956804,0,0.00013302815204951912
1772594806774137000,2.43213720703125,-0.00013302815204951912,0,0
1772594806794401000,2.452401123046875,0,0,0
1772594806814665000,2.4726650390625,0,0,0
1772594806834928000,2.49292822265625,0,0,0
1772594806855192000,2.513192138671875,0,0,0
1772594806875456000,2.5334560546875,0.06731224805116653,0.0047890134155750275,0.04589471220970154
1772594806895719000,2.553718994140625,0.017426688224077225,0.0011972533538937569,0.011972533538937569
1772594806915983000,2.573983154296875,0.004522957373410463,0.00026605630409903824,0.003059647511690855
1772594806936247000,2.5942470703125,0.0011972533538937569,0.00013302815204951912,0.0007981689414009452
1772594806956510000,2.614510009765625,0.00026605630409903824,0,0.00026605630409903824
1772594806976774000,2.63477392578125,0.00013302815204951912,0,0
1772594806997038000,2.6550380859375,-0.05773421749472618,0.014100983738899231,-0.06212414801120758
1772594807017301000,2.675301025390625,-0.015032181516289711,0.0035917600616812706,-0.016096405684947968
1772594807037565000,2.69556494140625,-0.0038578163366764784,0.0009311970788985491,-0.004123872611671686
1772594807057829000,2.7158291015625,-0.001064225216396153,0.00026605630409903824,-0.001064225216396153
1772594807078092000,2.736092041015625,-0.00026605630409903824,0,-0.00026605630409903824
1772594807098356000,2.75635595703125,-0.00013302815204951912,0,-0.00013302815204951912
1772594807118620000,2.776619873046875,0,0,0
1772594807138884000,2.796884033203125,-0.031926754862070084,-0.012637674808502197,-0.014500068500638008
1772594807159147000,2.81714697265625,-0.008247745223343372,-0.003325703786686063,-0.0037247883155941963
1772594807179411000,2.837410888671875,-0.12318406999111176,-0.004389929119497538,-0.017825772985816002
1772594807199675000,2.8576748046875,-0.09365181624889374,-0.0029266192577779293,-0.013169786892831326
1772594807219938000,2.87793798828125,-0.024344151839613914,-0.0007981689414009452,-0.0034587320405989885
1772594807240202000,2.898201904296875,-0.006252323277294636,-0.00013302815204951912,-0.0009311970788985491
1772594807260466000,2.9184658203125,-0.09085822850465775,-0.004522957373410463,-0.010775280185043812
1772594807280729000,2.93872900390625,-0.06904160976409912,-0.0034587320405989885,-0.008114716969430447
1772594807300993000,2.958992919921875,-0.017958801239728928,-0.0009311970788985491,-0.002128450432792306
1772594807321257000,2.979257080078125,-0.004655985161662102,-0.00026605630409903824,-0.0005321126081980765
1772594807341520000,2.999519775390625,-0.0011972533538937569,0,-0.00013302815204951912
1772594807361784000,3.0197841796875,-0.00026605630409903824,0,0
1772594807382048000,3.040048095703125,-0.00013302815204951912,0,0
1772594807402311000,3.060310791015625,0,0,0
1772594807422575000,3.0805751953125,0,0,0
1772594807442839000,3.100839111328125,0,0,0
1772594807463102000,3.12110205078125,-0.0034587320405989885,-0.004922041669487953,-0.001064225216396153
1772594807483366000,3.141365966796875,0.0031926757656037807,-0.0038578163366764784,-0.0029266192577779293
1772594807503630000,3.161630126953125,0.0019954221788793802,0.0027935912366956472,0.004123872611671686
1772594807523893000,3.18189306640625,0.0027935912366956472,-0.0018623941577970982,-0.0031926757656037807
1772594807544157000,3.202156982421875,0.0029266192577779293,-0.0025275349617004395,-0.004922041669487953
1772594807564421000,3.222421142578125,0.0026605629827827215,0.0037247883155941963,0.004256900865584612
1772594807584684000,3.24268408203125,-0.0029266192577779293,0.004655985161662102,0.0034587320405989885
1772594807604948000,3.262947998046875,-0.0031926757656037807,-0.0047890134155750275,0.0007981689414009452
1772594807625212000,3.2832119140625,-0.0003990844707004726,-0.0018623941577970982,0.0003990844707004726
1772594807645475000,3.30347509765625,-0.001064225216396153,-0.0027935912366956472,-0.0017293660202994943
1772594807665739000,3.323739013671875,0.0007981689414009452,-0.0005321126081980765,0.0019954221788793802
1772594807686003000,3.3440029296875,-0.0026605629827827215,0.0034587320405989885,-0.0023945067077875137
1772594807706266000,3.36426611328125,0.0013302814913913608,0.00026605630409903824,0.0017293660202994943
1772594807726530000,3.384530029296875,-0.0018623941577970982,-0.003325703786686063,-0.003059647511690855
1772594807746794000,3.4047939453125,0.0014633096288889647,-0.0027935912366956472,-0.0005321126081980765
1772594807767057000,3.425056884765625,0.0003990844707004726,0.0038578163366764784,0.0009311970788985491
1772594807787321000,3.445321044921875,0.0031926757656037807,0.004256900865584612,-0.001064225216396153
1772594807807585000,3.4655849609375,0.0003990844707004726,0.0011972533538937569,0.0037247883155941963
1772594807827848000,3.485847900390625,0.0005321126081980765,0.002128450432792306,-0.0011972533538937569
1772594807848112000,3.506112060546875,-0.004522957373410463,-0.0013302814913913608,-0.00013302815204951912
1772594807868376000,3.5263759765625,-0.0015963378828018904,0.0009311970788985491,-0.0031926757656037807
1772594807888639000,3.546638916015625,0.004389929119497538,-0.001064225216396153,-0.0009311970788985491
1772594807908903000,3.56690283203125,0.0014633096288889647,-0.0009311970788985491,-0.0026605629827827215
1772594807929167000,3.5871669921875,0.0009311970788985491,-0.0003990844707004726,-0.00013302815204951912
1772594807949430000,3.607429931640625,-0.0031926757656037807,-0.004522957373410463,0.00026605630409903824
1772594807969694000,3.62769384765625,0.0015963378828018904,0.0018623941577970982,0.0027935912366956472
1772594807989958000,3.6479580078125,0.0013302814913913608,0.0038578163366764784,0.0023945067077875137
1772594808010221000,3.668220947265625,0.004655985161662102,0.003059647511690855,0.0029266192577779293
1772594808030485000,3.688485107421875,-0.0031926757656037807,0.0038578163366764784,-0.0013302814913913608
1772594808050749000,3.7087490234375,-0.0039908443577587605,-0.002128450432792306,0.0009311970788985491
1772594808071012000,3.72901220703125,-0.00026605630409903824,-0.003059647511690855,-0.004123872611671686
1772594808091276000,3.749276123046875,-0.0003990844707004726,0.0022614786867052317,0.0005321126081980765
1772594808111540000,3.7695400390625,0.0029266192577779293,0.0006651407456956804,-0.0011972533538937569
1772594808131803000,3.789802978515625,-0.0017293660202994943,-0.0007981689414009452,0.0035917600616812706
1772594808152067000,3.810067138671875,-0.0027935912366956472,-0.0017293660202994943,-0.0014633096288889647
1772594808172331000,3.8303310546875,-0.00013302815204951912,-0.004389929119497538,-0.0029266192577779293
1772594808192594000,3.850593994140625,0.0026605629827827215,0.0007981689414009452,0.0034587320405989885
1772594808212858000,3.870858154296875,-0.003325703786686063,-0.0007981689414009452,-0.0007981689414009452
1772594808233122000,3.8911220703125,0.00013302815204951912,0.0019954221788793802,-0.00026605630409903824
1772594808253385000,3.911385009765625,-0.0005321126081980765,0.0009311970788985491,0.0013302814913913608
1772594808273649000,3.93164892578125,-0.004123872611671686,0.0029266192577779293,0.0003990844707004726
1772594808293913000,3.9519130859375,-0.001064225216396153,0.0018623941577970982,-0.0026605629827827215
1772594808314176000,3.972176025390625,-0.0013302814913913608,0.0006651407456956804,-0.004522957373410463
1772594808334440000,3.99243994140625,-0.0025275349617004395,-0.0009311970788985491,0.004256900865584612
1772594808354704000,4.012703857421875,0.0031926757656037807,0,0.004655985161662102
1772594808374967000,4.032967041015625,0.0023945067077875137,0.001064225216396153,0.0029266192577779293
1772594808395231000,4.05323095703125,-0.0031926757656037807,0.003059647511690855,-0.0037247883155941963
1772594808415495000,4.073494873046875,0.0047890134155750275,-0.0022614786867052317,-0.0035917600616812706
1772594808435759000,4.093759033203125,0.0011972533538937569,0.004256900865584612,-0.0018623941577970982
1772594808456022000,4.11402197265625,0.0009311970788985491,-0.004256900865584612,0.004922041669487953
1772594808476286000,4.134285888671875,-0.0038578163366764784,-0.00026605630409903824,-0.004123872611671686
1772594808496550000,4.1545498046875,-0.004389929119497538,-0.0006651407456956804,0.0023945067077875137
1772594808516813000,4.17481298828125,0.0022614786867052317,0.0009311970788985491,0.0014633096288889647
1772594808537077000,4.195076904296875,0.0035917600616812706,-0.0022614786867052317,0.0022614786867052317
1772594808557341000,4.2153408203125,0.004522957373410463,-0.0013302814913913608,0.0018623941577970982
1772594808577604000,4.23560400390625,0.00026605630409903824,-0.003325703786686063,0.005055069923400879
1772594808597868000,4.255867919921875,0.0029266192577779293,0.0013302814913913608,0.0027935912366956472
1772594808618132000,4.276132080078125,0.004389929119497538,0.0025275349617004395,-0.0031926757656037807
1772594808638395000,4.296394775390625,0.0039908443577587605,0.004922041669487953,-0.00013302815204951912
1772594808658659000,4.3166591796875,0.0039908443577587605,-0.0006651407456956804,0.0037247883155941963
1772594808678923000,4.336923095703125,-0.003325703786686063,-0.004123872611671686,-0.00026605630409903824
1772594808699186000,4.35718603515625,-0.001064225216396153,0.0038578163366764784,-0.004655985161662102
1772594808719450000,4.3774501953125,-0.00013302815204951912,0.005055069923400879,-0.003059647511690855
1772594808739714000,4.397714111328125,0.004389929119497538,-0.0035917600616812706,-0.001064225216396153
1772594808759977000,4.41797705078125,0.0014633096288889647,-0.0047890134155750275,0.004522957373410463
1772594808780241000,4.438240966796875,-0.0031926757656037807,0.0003990844707004726,0.0022614786867052317
1772594808800505000,4.458505126953125,-0.0039908443577587605,0.004389929119497538,-0.0013302814913913608
1772594808820768000,4.47876806640625,0.004256900865584612,0.0029266192577779293,0.0014633096288889647
1772594808841032000,4.499031982421875,-0.0035917600616812706,0.0037247883155941963,-0.00013302815204951912
1772594808861296000,4.519296142578125,0.004389929119497538,0.004655985161662102,-0.004123872611671686
1772594808881559000,4.53955908203125,0.0017293660202994943,-0.002128450432792306,-0.004522957373410463
1772594808901823000,4.559822998046875,-0.0039908443577587605,-0.00013302815204951912,0.003059647511690855
1772594808922087000,4.5800869140625,0.0026605629827827215,-0.0026605629827827215,-0.001064225216396153
1772594808942350000,4.60035009765625,-0.0015963378828018904,0.0027935912366956472,-0.003059647511690855
1772594808962614000,4.620614013671875,-0.0017293660202994943,0.0013302814913913608,0.004922041669487953
1772594808982878000,4.6408779296875,0.004655985161662102,-0.0019954221788793802,0.004922041669487953
1772594809003141000,4.66114111328125,0.003325703786686063,0.002128450432792306,-0.0013302814913913608
1772594809023405000,4.681405029296875,-0.004522957373410463,0.0005321126081980765,0.0013302814913913608
1772594809043669000,4.7016689453125,0.0023945067077875137,-0.0031926757656037807,0.0003990844707004726
1772594809063932000,4.721931884765625,0.004256900865584612,0.004655985161662102,-0.004389929119497538
1772594809084196000,4.742196044921875,-0.0022614786867052317,0.0003990844707004726,-0.0035917600616812706
1772594809104460000,4.7624599609375,-0.0007981689414009452,0.004256900865584612,0.0011972533538937569
1772594809124723000,4.782722900390625,0.0023945067077875137,-0.0031926757656037807,-0.003325703786686063
1772594809144987000,4.80298681640625,-0.004522957373410463,0.0037247883155941963,0.0018623941577970982
1772594809165251000,4.8232509765625,-0.0037247883155941963,0.0017293660202994943,0.0011972533538937569
1772594809185514000,4.843513916015625,-0.0003990844707004726,-0.0022614786867052317,0.002128450432792306
1772594809205778000,4.86377783203125,0.0011972533538937569,-0.0013302814913913608,0.0009311970788985491
1772594809226042000,4.8840419921875,-0.004123872611671686,0.0026605629827827215,0.0027935912366956472
1772594809246305000,4.904304931640625,-0.004389929119497538,0.0006651407456956804,0.0018623941577970982
1772594809266569000,4.92456884765625,0.003325703786686063,-0.0039908443577587605,0.0027935912366956472
1772594809286833000,4.9448330078125,0.0019954221788793802,0.0037247883155941963,-0.003325703786686063
1772594809307096000,4.965095947265625,0.0039908443577587605,-0.0003990844707004726,-0.00013302815204951912
1772594809327360000,4.985360107421875,-0.004389929119497538,0.003325703786686063,-0.0005321126081980765
1772594809347624000,5.0056240234375,-0.0047890134155750275,-0.003059647511690855,0.002128450432792306
1772594809367887000,5.02588720703125,0.0003990844707004726,0.005055069923400879,0.0039908443577587605
1772594809388151000,5.046151123046875,-0.004256900865584612,-0.0015963378828018904,0.0037247883155941963
1772594809408415000,5.0664150390625,-0.004522957373410463,0.0019954221788793802,0
1772594809428678000,5.086677978515625,-0.0019954221788793802,0.0006651407456956804,0.0007981689414009452
1772594809448942000,5.106942138671875,-0.0007981689414009452,0.00026605630409903824,0.003325703786686063
1772594809469206000,5.1272060546875,-0.0007981689414009452,-0.0039908443577587605,0.002128450432792306
1772594809489469000,5.147468994140625,-0.00026605630409903824,0.0035917600616812706,0.004123872611671686
1772594809509733000,5.167733154296875,0.0018623941577970982,0.0014633096288889647,0.0037247883155941963
1772594809529997000,5.1879970703125,-0.004123872611671686,0.0038578163366764784,0.004256900865584612
1772594809550260000,5.208260009765625,-0.0009311970788985491,0.0023945067077875137,-0.0006651407456956804
1772594809570524000,5.22852392578125,0.0023945067077875137,0.0007981689414009452,0.0011972533538937569
1772594809590788000,5.2487880859375,0.0005321126081980765,0.0014633096288889647,0.004655985161662102
1772594809611051000,5.269051025390625,-0.0003990844707004726,0.00026605630409903824,-0.0026605629827827215
1772594809631315000,5.28931494140625,0.0005321126081980765,0.0003990844707004726,-0.00026605630409903824
1772594809651579000,5.309578857421875,0.003059647511690855,0.0011972533538937569,0.003325703786686063
1772594809671842000,5.329842041015625,-0.0017293660202994943,-0.004256900865584612,-0.00026605630409903824
1772594809692106000,5.35010595703125,-0.0031926757656037807,-0.004123872611671686,0.0018623941577970982
1772594809712370000,5.370369873046875,0.0026605629827827215,0.0026605629827827215,-0.0017293660202994943
1772594809732634000,5.390634033203125,-0.0038578163366764784,0.0037247883155941963,0.0005321126081980765
1772594809752897000,5.41089697265625,-0.0047890134155750275,0.004389929119497538,-0.004522957373410463
1772594809773161000,5.431160888671875,-0.0022614786867052317,0.004522957373410463,0.0017293660202994943
1772594809793425000,5.4514248046875,-0.0018623941577970982,-0.0014633096288889647,0.0034587320405989885
1772594809813688000,5.47168798828125,0.0009311970788985491,0.0026605629827827215,0.0037247883155941963
1772594809833952000,5.491951904296875,0.0015963378828018904,-0.004256900865584612,-0.0019954221788793802
1772594809854216000,5.5122158203125,-0.0019954221788793802,-0.0035917600616812706,-0.0018623941577970982
1772594809874479000,5.53247900390625,-0.0037247883155941963,-0.0031926757656037807,0.003325703786686063
1772594809894743000,5.552742919921875,-0.0013302814913913608,-0.0003990844707004726,-0.0023945067077875137
1772594809915007000,5.573007080078125,0,0,0.00026605630409903824
1772594809935270000,5.593269775390625,0.0037247883155941963,0.0009311970788985491,-0.0003990844707004726
1772594809955534000,5.6135341796875,-0.0017293660202994943,0.004256900865584612,0.0015963378828018904
1772594809975798000,5.633798095703125,-0.0047890134155750275,0.0037247883155941963,0.0035917600616812706
1772594809996061000,5.65406103515625,0.004123872611671686,-0.0022614786867052317,-0.004256900865584612
1772594810016325000,5.6743251953125,-0.0039908443577587605,-0.0007981689414009452,0.0006651407456956804
1772594810036589000,5.694589111328125,-0.003325703786686063,0.0011972533538937569,0.0006651407456956804
1772594810056852000,5.71485205078125,0.004389929119497538,-0.0029266192577779293,0.00013302815204951912
1772594810077116000,5.735115966796875,-0.0027935912366956472,0.0027935912366956472,0.003059647511690855
1772594810097380000,5.755380126953125,0.0006651407456956804,-0.0007981689414009452,-0.0023945067077875137
1772594810117643000,5.77564306640625,-0.004922041669487953,-0.0014633096288889647,-0.0007981689414009452
1772594810137907000,5.795906982421875,-0.004389929119497538,-0.0019954221788793802,0.0005321126081980765
1772594810158171000,5.8161708984375,0.0027935912366956472,0.0025275349617004395,-0.0029266192577779293
1772594810178434000,5.83643408203125,-0.00013302815204951912,0.0011972533538937569,-0.0031926757656037807
1772594810198698000,5.856697998046875,0.0025275349617004395,-0.0011972533538937569,-0.004123872611671686
1772594810218962000,5.8769619140625,0.0013302814913913608,-0.004123872611671686,-0.0013302814913913608
1772594810239225000,5.89722509765625,-0.0022614786867052317,0.0027935912366956472,0.004256900865584612
1772594810259489000,5.917489013671875,0.0009311970788985491,0.004389929119497538,-0.0031926757656037807
1772594810279753000,5.9377529296875,0.0015963378828018904,-0.0009311970788985491,-0.0027935912366956472
1772594810300016000,5.95801611328125,0.004256900865584612,0.0015963378828018904,-0.0017293660202994943
1772594810320280000,5.978280029296875,0.004123872611671686,-0.004655985161662102,-0.0025275349617004395
1772594810340544000,5.9985439453125,0.002128450432792306,-0.004123872611671686,0.0031926757656037807
1772594810360807000,6.018806884765625,-0.0023945067077875137,0.0022614786867052317,-0.0031926757656037807
1772594810381071000,6.039071044921875,0.0038578163366764784,-0.0037247883155941963,0.0034587320405989885
1772594810401335000,6.0593349609375,-0.004123872611671686,-0.0018623941577970982,0.0015963378828018904
1772594810421598000,6.079597900390625,-0.0006651407456956804,0.004922041669487953,0.0011972533538937569
1772594810441862000,6.09986181640625,0.0006651407456956804,-0.0015963378828018904,-0.004389929119497538
1772594810462126000,6.1201259765625,-0.004256900865584612,0.0037247883155941963,-0.0034587320405989885
1772594810482389000,6.140388916015625,0.004123872611671686,-0.004256900865584612,-0.0013302814913913608
1772594810502653000,6.16065283203125,-0.002128450432792306,-0.00026605630409903824,0.0027935912366956472
1772594810522917000,6.180917236328125,0.0017293660202994943,-0.003325703786686063,0.0035917600616812706
1772594810543180000,6.201179931640625,0.004522957373410463,-0.0034587320405989885,-0.003325703786686063
1772594810563444000,6.22144384765625,0.0013302814913913608,-0.004522957373410463,0.0037247883155941963
1772594810583708000,6.2417080078125,-0.004123872611671686,0.0025275349617004395,0.0013302814913913608
1772594810603971000,6.26197119140625,0.0038578163366764784,0.0018623941577970982,-0.0007981689414009452
1772594810624235000,6.282235107421875,-0.0009311970788985491,0.0039908443577587605,-0.0007981689414009452
1772594810644499000,6.3024990234375,0.001064225216396153,-0.0047890134155750275,0.0035917600616812706
1772594810664762000,6.32276220703125,0.0037247883155941963,-0.0031926757656037807,-0.001064225216396153
1772594810685026000,6.343026123046875,0.0007981689414009452,0.0006651407456956804,0.004123872611671686
1772594810705290000,6.3632900390625,0.004123872611671686,0.0025275349617004395,-0.0006651407456956804
1772594810725553000,6.383552978515625,0.0022614786867052317,-0.004123872611671686,0.0025275349617004395
1772594810745817000,6.403817138671875,0.0027935912366956472,-0.001064225216396153,0.0029266192577779293
1772594810766081000,6.4240810546875,0.0019954221788793802,0.0026605629827827215,0.001064225216396153
1772594810786344000,6.444343994140625,-0.0026605629827827215,-0.0019954221788793802,0.0047890134155750275
1772594810806608000,6.46460791015625,0.0013302814913913608,-0.004922041669487953,-0.0031926757656037807
1772594810826872000,6.4848720703125,0.0029266192577779293,0.0029266192577779293,0.0011972533538937569
1772594810847135000,6.505135009765625,0.003059647511690855,-0.0015963378828018904,-0.0039908443577587605
1772594810867399000,6.52539892578125,-0.0018623941577970982,-0.0023945067077875137,-0.004522957373410463
1772594810887663000,6.5456630859375,-0.004389929119497538,0.0025275349617004395,-0.002128450432792306
1772594810907926000,6.565926025390625,-0.0027935912366956472,0.004389929119497538,-0.0025275349617004395
1772594810928190000,6.58618994140625,0.0009311970788985491,0.0023945067077875137,-0.0015963378828018904
1772594810948454000,6.606453857421875,0.0018623941577970982,0.0007981689414009452,0.0019954221788793802
1772594810968717000,6.626717041015625,-0.0017293660202994943,-0.004655985161662102,-0.0007981689414009452
1772594810988981000,6.64698095703125,-0.0015963378828018904,0.0011972533538937569,-0.001064225216396153
1772594811009245000,6.667244873046875,-0.0031926757656037807,-0.0034587320405989885,-0.0029266192577779293
1772594811029509000,6.687509033203125,0.0017293660202994943,-0.0039908443577587605,-0.0006651407456956804
1772594811049772000,6.70777197265625,0.003059647511690855,0.004922041669487953,-0.0038578163366764784
1772594811070036000,6.728035888671875,-0.0017293660202994943,-0.004522957373410463,-0.00013302815204951912
1772594811090300000,6.7482998046875,-0.0037247883155941963,0.001064225216396153,0.003325703786686063
1772594811110563000,6.76856298828125,-0.002128450432792306,-0.0018623941577970982,0.00013302815204951912
1772594811130827000,6.788826904296875,0.0005321126081980765,-0.001064225216396153,-0.004256900865584612
1772594811151091000,6.809091064453125,-0.004655985161662102,-0.001064225216396153,0.0014633096288889647
1772594811171354000,6.82935400390625,0.0034587320405989885,-0.0009311970788985491,0.003059647511690855
1772594811191618000,6.8496181640625,-0.001064225216396153,0.002128450432792306,0.0006651407456956804
1772594811211882000,6.869882080078125,0.0029266192577779293,0.0006651407456956804,-0.0019954221788793802
1772594811232145000,6.890144775390625,-0.003059647511690855,0.001064225216396153,-0.0025275349617004395
1772594811252409000,6.9104091796875,-0.0047890134155750275,0.003325703786686063,0.0026605629827827215
1772594811272673000,6.930673095703125,-0.0014633096288889647,-0.004123872611671686,0.004522957373410463
1772594811292936000,6.95093603515625,-0.002128450432792306,0.0026605629827827215,-0.0014633096288889647
1772594811313200000,6.9712001953125,-0.0029266192577779293,0.00013302815204951912,-0.0003990844707004726
1772594811333464000,6.991464111328125,0.0018623941577970982,0.0009311970788985491,0.00013302815204951912
1772594811353727000,7.01172705078125,0.0018623941577970982,0.004256900865584612,-0.0038578163366764784
1772594811373991000,7.031990966796875,0.0026605629827827215,0.0003990844707004726,0.0005321126081980765
1772594811394255000,7.052255126953125,0.003059647511690855,0.0029266192577779293,-0.004123872611671686
1772594811414518000,7.07251806640625,-0.0034587320405989885,-0.003325703786686063,0.0034587320405989885
1772594811434782000,7.092781982421875,-0.0035917600616812706,-0.0047890134155750275,-0.004922041669487953
1772594811455046000,7.1130458984375,0.004522957373410463,-0.00013302815204951912,0.004655985161662102
1772594811475309000,7.13330908203125,-0.0037247883155941963,-0.0023945067077875137,-0.0037247883155941963
1772594811495573000,7.153572998046875,0.0014633096288889647,-0.0027935912366956472,-0.0006651407456956804
1772594811515846000,7.173845947265625,-0.0009311970788985491,0.0014633096288889647,-0.0037247883155941963
1772594811536110000,7.194110107421875,-0.004922041669487953,0.0003990844707004726,0.0022614786867052317
1772594811556374000,7.2143740234375,0.003059647511690855,0.0047890134155750275,-0.0047890134155750275
1772594811576637000,7.234636962890625,0.0027935912366956472,0.0039908443577587605,-0.0026605629827827215
1772594811596901000,7.254901123046875,0.0027935912366956472,0.003059647511690855,-0.00013302815204951912
1772594811617165000,7.2751650390625,-0.0026605629827827215,-0.0047890134155750275,0.0027935912366956472
1772594811637428000,7.295427978515625,-0.0023945067077875137,0.0047890134155750275,0.0035917600616812706
1772594811657692000,7.31569189453125,-0.0006651407456956804,0.0025275349617004395,-0.0022614786867052317
1772594811677956000,7.3359560546875,0.0019954221788793802,-0.001064225216396153,0.0003990844707004726
1772594811698219000,7.356218994140625,-0.0029266192577779293,-0.0026605629827827215,-0.0013302814913913608
1772594811718483000,7.37648291015625,0.0018623941577970982,0.0006651407456956804,-0.0038578163366764784
1772594811738747000,7.396746826171875,0.0047890134155750275,-0.0007981689414009452,-0.0014633096288889647
1772594811759010000,7.417010009765625,0.0009311970788985491,0.0005321126081980765,0.0027935912366956472
1772594811779274000,7.43727392578125,-0.00013302815204951912,-0.0031926757656037807,0.0047890134155750275
1772594811799538000,7.457537841796875,0.0031926757656037807,-0.0011972533538937569,-0.0017293660202994943
1772594811819802000,7.477802001953125,-0.0018623941577970982,0.003325703786686063,0.0027935912366956472
1772594811840065000,7.49806494140625,-0.0031926757656037807,-0.0026605629827827215,-0.0013302814913913608
1772594811860329000,7.518328857421875,-0.004522957373410463,0.0034587320405989885,-0.004522957373410463
1772594811880593000,7.538593017578125,-0.0017293660202994943,0.0015963378828018904,0.0031926757656037807
1772594811900856000,7.55885595703125,0.0039908443577587605,-0.004922041669487953,-0.0007981689414009452
1772594811921120000,7.5791201171875,-0.0023945067077875137,0.0015963378828018904,-0.0013302814913913608
1772594811941384000,7.599384033203125,0.003059647511690855,0.004123872611671686,0.0011972533538937569
1772594811961647000,7.619647216796875,-0.0019954221788793802,0.00026605630409903824,-0.0014633096288889647
1772594811981911000,7.6399111328125,0.0023945067077875137,0.003059647511690855,-0.0013302814913913608
1772594812002175000,7.660175048828125,-0.0027935912366956472,-0.00013302815204951912,0.004389929119497538
1772594812022438000,7.68043798828125,-0.0047890134155750275,0.0026605629827827215,0.00026605630409903824
1772594812042702000,7.7007021484375,0.0017293660202994943,0.004389929119497538,0.0037247883155941963
1772594812062966000,7.720966064453125,-0.0027935912366956472,-0.0015963378828018904,-0.004655985161662102
1772594812083229000,7.74122900390625,0.003325703786686063,0.0025275349617004395,0.0025275349617004395
1772594812103493000,7.7614931640625,-0.0009311970788985491,0.0007981689414009452,0.0027935912366956472
1772594812123757000,7.781757080078125,-0.0025275349617004395,-0.004123872611671686,0.0011972533538937569
1772594812144020000,7.80202001953125,0.004389929119497538,0.0005321126081980765,-0.0019954221788793802
1772594812164284000,7.822283935546875,0.0026605629827827215,0.0005321126081980765,-0.004522957373410463
1772594812184548000,7.842548095703125,-0.0047890134155750275,0.0034587320405989885,-0.003325703786686063
1772594812204811000,7.86281103515625,0.0039908443577587605,-0.0029266192577779293,-0.0031926757656037807
1772594812225075000,7.883074951171875,0.0038578163366764784,-0.0023945067077875137,0.0013302814913913608
1772594812245339000,7.9033388671875,-0.0047890134155750275,-0.0019954221788793802,0.0023945067077875137
1772594812265602000,7.92360205078125,0.003325703786686063,-0.0025275349617004395,0.0038578163366764784
1772594812285866000,7.943865966796875,-0.0011972533538937569,0.0047890134155750275,-0.0034587320405989885
1772594812306130000,7.9641298828125,-0.00013302815204951912,-0.00013302815204951912,0.0034587320405989885
1772594812326393000,7.98439306640625,-0.0023945067077875137,0.0014633096288889647,-0.004256900865584612
1772594812346657000,8.004656982421874,0.001064225216396153,0.0031926757656037807,-0.0035917600616812706
1772594812366921000,8.0249208984375,-0.0014633096288889647,-0.0014633096288889647,-0.0035917600616812706
1772594812387184000,8.04518408203125,-0.0038578163366764784,-0.0038578163366764784,0.0034587320405989885
1772594812407448000,8.065447998046874,-0.0022614786867052317,0.0007981689414009452,0.0006651407456956804
1772594812427712000,8.0857119140625,-0.0014633096288889647,-0.00026605630409903824,-0.0017293660202994943
1772594812447975000,8.105974853515624,-0.0019954221788793802,0.0026605629827827215,-0.00026605630409903824
1772594812468239000,8.126239013671874,0.003325703786686063,0.0014633096288889647,0.0029266192577779293
1772594812488503000,8.1465029296875,0.0017293660202994943,0.0022614786867052317,0.0039908443577587605
1772594812508766000,8.166765869140624,-0.0027935912366956472,-0.0007981689414009452,-0.0023945067077875137
1772594812529030000,8.18702978515625,0.0013302814913913608,-0.0006651407456956804,-0.0025275349617004395
1772594812549294000,8.207294189453124,-0.0034587320405989885,0.004922041669487953,-0.0029266192577779293
1772594812569557000,8.227556884765624,-0.004522957373410463,0.0005321126081980765,-0.0023945067077875137
1772594812589821000,8.247821044921874,-0.0039908443577587605,0.0031926757656037807,-0.0023945067077875137
1772594812610085000,8.268085205078124,0.0003990844707004726,-0.0014633096288889647,0.0023945067077875137
1772594812630348000,8.28834814453125,-0.001064225216396153,0.0039908443577587605,0.0038578163366764784
1772594812650612000,8.308612060546874,-0.0029266192577779293,-0.0029266192577779293,0.0026605629827827215
1772594812670876000,8.3288759765625,0.0018623941577970982,0.0003990844707004726,-0.0006651407456956804
1772594812691139000,8.34913916015625,0.003325703786686063,0.004123872611671686,-0.0017293660202994943
1772594812711403000,8.369403076171874,-0.0034587320405989885,-0.0014633096288889647,-0.0009311970788985491
1772594812731667000,8.3896669921875,0.0027935912366956472,0.0047890134155750275,-0.005055069923400879
1772594812751930000,8.40993017578125,-0.003059647511690855,-0.001064225216396153,-0.0013302814913913608
1772594812772194000,8.430194091796874,-0.0037247883155941963,0.0034587320405989885,0.0017293660202994943
1772594812792458000,8.4504580078125,0.004256900865584612,-0.0017293660202994943,0.002128450432792306
1772594812812721000,8.470720947265624,0.001064225216396153,0.0034587320405989885,0.0023945067077875137
1772594812832985000,8.490985107421874,0.0015963378828018904,0.0026605629827827215,0.0006651407456956804
1772594812853249000,8.5112490234375,-0.004655985161662102,0.001064225216396153,0
1772594812873512000,8.531511962890624,-0.0013302814913913608,-0.004256900865584612,-0.00026605630409903824
1772594812893776000,8.55177587890625,0.0006651407456956804,-0.0017293660202994943,-0.0015963378828018904
1772594812914040000,8.5720400390625,0.0035917600616812706,-0.003325703786686063,-0.004655985161662102
1772594812934303000,8.592302978515624,0.00013302815204951912,0.00013302815204951912,-0.0005321126081980765
1772594812954567000,8.61256689453125,-0.0031926757656037807,-0.0009311970788985491,-0.0003990844707004726
1772594812974831000,8.6328310546875,0.0015963378828018904,-0.0005321126081980765,0.004922041669487953
1772594812995094000,8.653093994140624,-0.0026605629827827215,-0.0023945067077875137,0.0022614786867052317
1772594813015358000,8.67335791015625,-0.002128450432792306,-0.004522957373410463,-0.004389929119497538
1772594813035622000,8.693621826171874,-0.002128450432792306,-0.0005321126081980765,-0.0007981689414009452
1772594813055885000,8.713885009765624,0.001064225216396153,0.0035917600616812706,-0.0009311970788985491
1772594813076149000,8.73414892578125,0.0023945067077875137,0.0023945067077875137,0.0029266192577779293
1772594813096413000,8.754412841796874,-0.0023945067077875137,0.0025275349617004395,-0.004123872611671686
1772594813116677000,8.774677001953124,0.003059647511690855,-0.0047890134155750275,-0.004922041669487953
1772594813136940000,8.79493994140625,0.0018623941577970982,0.0026605629827827215,-0.001064225216396153
1772594813157204000,8.815203857421874,-0.0022614786867052317,0.0018623941577970982,0.0029266192577779293
1772594813177468000,8.835468017578124,0.003059647511690855,-0.0023945067077875137,-0.0013302814913913608
1772594813197731000,8.85573095703125,0.001064225216396153,0.0027935912366956472,0.003059647511690855
1772594813217995000,8.8759951171875,0.004922041669487953,-0.003325703786686063,0.0026605629827827215
1772594813238259000,8.896259033203124,0.0031926757656037807,0.0038578163366764784,-0.0035917600616812706
1772594813258522000,8.916522216796874,-0.0039908443577587605,0.0011972533538937569,0.0003990844707004726
1772594813278786000,8.9367861328125,0.002128450432792306,-0.0011972533538937569,-0.0017293660202994943
1772594813299050000,8.957050048828124,-0.0027935912366956472,0.0023945067077875137,0.004655985161662102
1772594813319313000,8.97731298828125,-0.003325703786686063,-0.0027935912366956472,0
1772594813339577000,8.9975771484375,-0.00013302815204951912,-0.002128450432792306,-0.0013302814913913608
1772594813359841000,9.017841064453124,-0.0047890134155750275,0.004123872611671686,0.004256900865584612
1772594813380104000,9.03810400390625,-0.0039908443577587605,-0.004922041669487953,0.0026605629827827215
1772594813400368000,9.0583681640625,0.0027935912366956472,0.0003990844707004726,-0.0034587320405989885
1772594813420632000,9.078632080078124,0.0026605629827827215,-0.003325703786686063,0.003325703786686063
1772594813440895000,9.09889501953125,0.0027935912366956472,-0.004655985161662102,0.0014633096288889647
1772594813461159000,9.119158935546874,0.0019954221788793802,0.004922041669487953,-0.0013302814913913608
1772594813481423000,9.139423095703124,-0.003059647511690855,0.0014633096288889647,-0.0011972533538937569
1772594813501686000,9.15968603515625,-0.0019954221788793802,0.004522957373410463,0.0035917600616812706
1772594813522041000,9.180041015625,-0.0025275349617004395,0.0006651407456956804,-0.0029266192577779293
1772594813542305000,9.200304931640625,0.0027935912366956472,-0.00013302815204951912,-0.0037247883155941963
1772594813562569000,9.22056884765625,-0.0023945067077875137,0.0029266192577779293,-0.0014633096288889647
1772594813582833000,9.2408330078125,0.0018623941577970982,0.003325703786686063,-0.0025275349617004395
1772594813603096000,9.261095947265625,0.0025275349617004395,0.0039908443577587605,0.004123872611671686
1772594813623360000,9.281360107421875,-0.0017293660202994943,-0.0034587320405989885,0.0047890134155750275
1772594813643624000,9.3016240234375,0.0022614786867052317,-0.004389929119497538,0.0026605629827827215
1772594813663887000,9.32188720703125,-0.0027935912366956472,0.0003990844707004726,-0.00013302815204951912
1772594813684151000,9.342151123046875,-0.0018623941577970982,-0.0031926757656037807,-0.004389929119497538
1772594813704415000,9.3624150390625,-0.0013302814913913608,0.0019954221788793802,0.0015963378828018904
1772594813724678000,9.382677978515625,0.0006651407456956804,-0.001064225216396153,0.004123872611671686
1772594813744942000,9.402942138671875,-0.0014633096288889647,-0.004389929119497538,0.004922041669487953
1772594813765206000,9.4232060546875,-0.0027935912366956472,-0.0039908443577587605,0.0039908443577587605
1772594813785469000,9.443468994140625,0.0006651407456956804,-0.0038578163366764784,0.004256900865584612
1772594813805733000,9.463733154296875,0.0005321126081980765,0.0027935912366956472,0.0019954221788793802
1772594813825997000,9.4839970703125,0.004123872611671686,-0.0007981689414009452,0.0039908443577587605
1772594813846260000,9.504260009765625,-0.0006651407456956804,0.004389929119497538,-0.003059647511690855
1772594813866524000,9.52452392578125,0.003325703786686063,-0.0031926757656037807,-0.00026605630409903824
1772594813886788000,9.5447880859375,0.0005321126081980765,0.0013302814913913608,0.0023945067077875137
1772594813907051000,9.565051025390625,0.0039908443577587605,0.0047890134155750275,-0.0037247883155941963
1772594813927315000,9.58531494140625,-0.0011972533538937569,-0.0017293660202994943,-0.0018623941577970982
1772594813947579000,9.605578857421875,-0.0047890134155750275,-0.0018623941577970982,0.0039908443577587605
1772594813967842000,9.625842041015625,0.00026605630409903824,0.003059647511690855,-0.004256900865584612
1772594813988106000,9.64610595703125,0.00013302815204951912,-0.0013302814913913608,-0.004655985161662102
1772594814008370000,9.666369873046875,0.0038578163366764784,-0.0035917600616812706,0.00026605630409903824
1772594814028633000,9.686633056640625,0.0003990844707004726,0.0013302814913913608,0.0047890134155750275
1772594814048897000,9.70689697265625,0,0.0019954221788793802,0.0019954221788793802
1772594814069161000,9.727160888671875,-0.0022614786867052317,0.002128450432792306,-0.004123872611671686
1772594814089424000,9.747423828125,-0.004123872611671686,-0.003325703786686063,0.0029266192577779293
1772594814109688000,9.76768798828125,-0.0023945067077875137,-0.002128450432792306,0.0022614786867052317
1772594814129952000,9.787951904296875,0.004389929119497538,0.0013302814913913608,0.0031926757656037807
