time,seconds_elapsed,z,y,x
1772594804605925000,0.263925048828125,9.997288703918457,0.046986207365989685,0.19213469326496124
1772594804626188000,0.28418798828125,9.992799758911133,0.033518824726343155,0.21308395266532898
1772594804646452000,0.304451904296875,9.979930877685547,0.03561374917626381,0.21667525172233582
1772594804666716000,0.3247158203125,9.981427192687988,0.02513911761343479,0.2172738015651703
1772594804686979000,0.34497900390625,9.978135108947754,0.02364274114370346,0.22774843871593475
1772594804707243000,0.365242919921875,9.967659950256348,0.019153613597154617,0.22834698855876923
1772594804727507000,0.3855068359375,9.96017837524414,0.019153613597154617,0.2346317619085312
1772594804747770000,0.40577001953125,9.951498985290527,0.01586158573627472,0.24480712413787842
1772594804768034000,0.426033935546875,9.955689430236816,0.015562310814857483,0.24750059843063354
1772594804788298000,0.446298095703125,9.947010040283203,0.0146644851192832,0.2555810213088989
1772594804808561000,0.466560791015625,9.922470092773438,0.011971008032560349,0.26007014513015747
1772594804828825000,0.4868251953125,9.911396026611328,0.0005985504249110818,0.26815059781074524
1772594804849089000,0.507089111328125,9.901819229125977,-0.01107318326830864,0.26725277304649353
1772594804869352000,0.52735205078125,9.907206535339355,-0.0146644851192832,0.2720411717891693
1772594804889616000,0.547615966796875,9.906309127807617,-0.017657237127423286,0.28700491786003113
1772594804909880000,0.567880126953125,9.896432876586914,-0.01586158573627472,0.29388827085494995
1772594804930143000,0.58814306640625,9.877279281616211,-0.015263035893440247,0.29059621691703796
1772594804950407000,0.608406982421875,9.85962200164795,-0.0146644851192832,0.2944868206977844
1772594804970671000,0.628671142578125,9.827300071716309,-0.029628245159983635,0.289399117231369
1772594804990934000,0.64893408203125,9.798869132995605,-0.02124853990972042,0.2882020175457001
1772594805011198000,0.669197998046875,9.793182373046875,-0.015562310814857483,0.2959831953048706
1772594805031462000,0.6894619140625,9.803657531738281,-0.025438392534852028,0.3016694188117981
1772594805051725000,0.70972509765625,9.824906349182129,-0.026635494083166122,0.2950853705406189
1772594805071989000,0.729989013671875,9.833285331726074,-0.028131870552897453,0.2908954918384552
1772594805092253000,0.7502529296875,9.849146842956543,-0.032022446393966675,0.2998737692832947
1772594805112516000,0.77051611328125,9.860818862915039,-0.04040215536952019,0.3007715940475464
1772594805132780000,0.790780029296875,9.858125686645508,-0.046088382601737976,0.29897594451904297
1772594805153044000,0.8110439453125,9.841066360473633,-0.048482585698366165,0.30555999279022217
1772594805173307000,0.831306884765625,9.82640266418457,-0.048482585698366165,0.30855274200439453
1772594805193571000,0.851571044921875,9.812934875488281,-0.05117605999112129,0.3139396905899048
1772594805213835000,0.8718349609375,9.815030097961426,-0.05596446618437767,0.3175309896469116
1772594805234098000,0.892097900390625,9.82879638671875,-0.05835866555571556,0.32202014327049255
1772594805254362000,0.912362060546875,9.838972091674805,-0.05925649031996727,0.322618693113327
1772594805274626000,0.9326259765625,9.857826232910156,-0.06973112374544144,0.3315969407558441
1772594805294889000,0.952888916015625,9.860519409179688,-0.06015431880950928,0.3330933153629303
1772594805315153000,0.97315283203125,9.847052574157715,-0.04997896030545235,0.3265092670917511
1772594805335417000,0.9934169921875,9.846453666687012,-0.039803601801395416,0.31932663917541504
1772594805355680000,1.013679931640625,9.864709854125977,-0.04578910768032074,0.32202014327049255
1772594805375944000,1.03394384765625,9.867103576660156,-0.03860650211572647,0.320523738861084
1772594805396208000,1.0542080078125,9.885359764099121,-0.0314238965511322,0.32620999217033386
1772594805416471000,1.074470947265625,9.889549255371094,-0.032620999962091446,0.32172083854675293
1772594805436735000,1.09473486328125,9.891345024108887,-0.04010287672281265,0.3172317147254944
1772594805456999000,1.1149990234375,9.892242431640625,-0.029628245159983635,0.31543606519699097
1772594805477262000,1.135261962890625,9.895833969116211,-0.03711012750864029,0.3148375153541565
1772594805497526000,1.155526123046875,9.898228645324707,-0.03561374917626381,0.31124621629714966
1772594805517790000,1.1757900390625,9.898528099060059,-0.030526071786880493,0.30376434326171875
1772594805538053000,1.19605322265625,9.873088836669922,-0.03082534670829773,0.29299044609069824
1772594805558317000,1.216317138671875,9.852140426635742,-0.02992752194404602,0.2908954918384552
1772594805578581000,1.2365810546875,9.832687377929688,-0.032022446393966675,0.28730419278144836
1772594805598844000,1.256843994140625,9.800065994262695,-0.03950432687997818,0.29209262132644653
1772594805619108000,1.277108154296875,9.78061294555664,-0.04339490458369255,0.29059621691703796
1772594805639372000,1.2973720703125,9.79797077178955,-0.03381809964776039,0.27742812037467957
1772594805659635000,1.317635009765625,9.807847023010254,-0.03561374917626381,0.2786252200603485
1772594805679899000,1.33789892578125,9.823110580444336,-0.04279635474085808,0.28640636801719666
1772594805700163000,1.3581630859375,9.824007987976074,-0.04728548228740692,0.2950853705406189
1772594805720426000,1.378426025390625,9.801262855529785,-0.054168812930583954,0.29628247022628784
1772594805740690000,1.39868994140625,9.778219223022461,-0.055665191262960434,0.3031657934188843
1772594805760954000,1.4189541015625,9.772233963012695,-0.05446808785200119,0.30945056676864624
1772594805781217000,1.439217041015625,9.750985145568848,-0.05267243832349777,0.2983773946762085
1772594805801481000,1.45948095703125,9.733925819396973,-0.04429273307323456,0.29807811975479126
1772594805821745000,1.479744873046875,9.751583099365234,-0.05596446618437767,0.3076549172401428
1772594805842009000,1.500009033203125,9.777320861816406,-0.05746084079146385,0.3106476664543152
1772594805862272000,1.52027197265625,9.781511306762695,-0.05626374110579491,0.3124433159828186
1772594805882536000,1.540535888671875,9.801861763000488,-0.04638765752315521,0.30615854263305664
1772594805902800000,1.5607998046875,9.791686058044434,-0.05147533491253853,0.30286651849746704
1772594805923063000,1.58106298828125,9.80904483795166,-0.04997896030545235,0.29718029499053955
1772594805943327000,1.601326904296875,9.815927505493164,-0.04638765752315521,0.3076549172401428
1772594805963591000,1.6215908203125,9.832687377929688,-0.03950432687997818,0.3208230137825012
1772594805983854000,1.64185400390625,9.839271545410156,-0.035913024097681046,0.32531216740608215
1772594806004118000,1.662117919921875,9.843461036682129,-0.042197804898023605,0.3348889648914337
1772594806024382000,1.6823818359375,9.855731010437012,-0.04399345442652702,0.33429041504859924
1772594806044645000,1.70264501953125,9.874884605407715,-0.04429273307323456,0.3330933153629303
1772594806064909000,1.722908935546875,9.8877534866333,-0.04668693244457245,0.32860419154167175
1772594806085173000,1.743173095703125,9.894637107849121,-0.050876785069704056,0.32381579279899597
1772594806105436000,1.763435791015625,9.89433765411377,-0.047884032130241394,0.32112228870391846
1772594806125700000,1.7837001953125,9.901520729064941,-0.04578910768032074,0.3181295394897461
1772594806145964000,1.803964111328125,9.885359764099121,-0.05177461355924606,0.3115454912185669
1772594806166227000,1.82422705078125,9.86231517791748,-0.05357026308774948,0.31274259090423584
1772594806186491000,1.844490966796875,9.831489562988281,-0.061052143573760986,0.3076549172401428
1772594806206755000,1.864755126953125,9.807547569274902,-0.06434416770935059,0.3049614429473877
1772594806227018000,1.88501806640625,9.78869342803955,-0.061949968338012695,0.2959831953048706
1772594806247282000,1.905281982421875,9.783605575561523,-0.0628477931022644,0.29478609561920166
1772594806267546000,1.925546142578125,9.769240379333496,-0.0487818606197834,0.2867056429386139
1772594806287809000,1.94580908203125,9.756670951843262,-0.047884032130241394,0.28880056738853455
1772594806308073000,1.966072998046875,9.733327865600586,-0.04189852997660637,0.28730419278144836
1772594806328337000,1.9863369140625,9.734524726867676,-0.040701430290937424,0.2858078181743622
1772594806348600000,2.00660009765625,9.724050521850586,-0.04728548228740692,0.28131869435310364
1772594806368864000,2.026864013671875,9.724947929382324,-0.044592007994651794,0.29059621691703796
1772594806389128000,2.0471279296875,9.710283279418945,-0.0454898327589035,0.28969839215278625
1772594806409391000,2.06739111328125,9.701305389404297,-0.03381809964776039,0.29807811975479126
1772594806429655000,2.087655029296875,9.687837600708008,-0.03172317147254944,0.30286651849746704
1772594806449919000,2.1079189453125,9.695618629455566,-0.027832595631480217,0.30945056676864624
1772594806470182000,2.128181884765625,9.69382381439209,-0.03561374917626381,0.30945056676864624
1772594806490446000,2.148446044921875,9.688735961914062,-0.0314238965511322,0.3106476664543152
1772594806510710000,2.1687099609375,9.686640739440918,-0.035913024097681046,0.2992752194404602
1772594806530973000,2.188972900390625,9.69382381439209,-0.038307227194309235,0.29538464546203613
1772594806551237000,2.209237060546875,9.717166900634766,-0.033518824726343155,0.29209262132644653
1772594806571501000,2.2295009765625,9.739612579345703,-0.038307227194309235,0.2959831953048706
1772594806591764000,2.249763916015625,9.760262489318848,-0.03501519933342934,0.28790274262428284
1772594806612028000,2.27002783203125,9.771934509277344,-0.032620999962091446,0.2974795699119568
1772594806632292000,2.2902919921875,9.781810760498047,-0.021547814831137657,0.3010708689689636
1772594806652555000,2.310554931640625,9.78869342803955,-0.01975216343998909,0.309151291847229
1772594806672819000,2.33081884765625,9.80096435546875,-0.013168109580874443,0.3007715940475464
1772594806693083000,2.351082763671875,9.821614265441895,-0.016759412363171577,0.297778844833374
1772594806713346000,2.371345947265625,9.837775230407715,-0.021847089752554893,0.3100491166114807
1772594806733610000,2.39160986328125,9.84256362915039,-0.030226796865463257,0.3130418658256531
1772594806753874000,2.4118740234375,9.85303783416748,-0.02274491637945175,0.3043628931045532
1772594806774137000,2.43213720703125,9.873388290405273,-0.02693476900458336,0.29897594451904297
1772594806794401000,2.452401123046875,9.84495735168457,-0.017956512048840523,0.2950853705406189
1772594806814665000,2.4726650390625,9.818621635437012,-0.010175357572734356,0.2935889959335327
1772594806834928000,2.49292822265625,9.828496932983398,-0.01496376097202301,0.2968810200691223
1772594806855192000,2.513192138671875,9.837176322937012,-0.028730420395731926,0.29239189624786377
1772594806875456000,2.5334560546875,9.843461036682129,-0.03292027488350868,0.289399117231369
1772594806895719000,2.553718994140625,9.862015724182129,-0.03770867735147476,0.29867666959762573
1772594806915983000,2.573983154296875,9.871294021606445,-0.033518824726343155,0.2902969419956207
1772594806936247000,2.5942470703125,9.877578735351562,-0.0454898327589035,0.30047231912612915
1772594806956510000,2.614510009765625,9.89194393157959,-0.04489128291606903,0.2965817451477051
1772594806976774000,2.63477392578125,9.906607627868652,-0.035913024097681046,0.2992752194404602
1772594806997038000,2.6550380859375,9.915287017822266,-0.04010287672281265,0.30196869373321533
1772594807017301000,2.675301025390625,9.9185791015625,-0.04249707981944084,0.3007715940475464
1772594807037565000,2.69556494140625,9.926360130310059,-0.03950432687997818,0.30526071786880493
1772594807057829000,2.7158291015625,9.897629737854004,-0.04040215536952019,0.3034650683403015
1772594807078092000,2.736092041015625,9.863213539123535,-0.03770867735147476,0.29538464546203613
1772594807098356000,2.75635595703125,9.837775230407715,-0.039205051958560944,0.29388827085494995
1772594807118620000,2.776619873046875,9.821314811706543,-0.049380410462617874,0.30286651849746704
1772594807138884000,2.796884033203125,9.799168586730957,-0.044592007994651794,0.3025672435760498
1772594807159147000,2.81714697265625,9.782408714294434,-0.0487818606197834,0.3016694188117981
1772594807179411000,2.837410888671875,9.77133560180664,-0.05297171324491501,0.30047231912612915
1772594807199675000,2.8576748046875,9.76205825805664,-0.04818331077694893,0.2974795699119568
1772594807219938000,2.87793798828125,9.750386238098145,-0.050876785069704056,0.2998737692832947
1772594807240202000,2.898201904296875,9.737217903137207,-0.040701430290937424,0.3031657934188843
1772594807260466000,2.9184658203125,9.731532096862793,-0.04638765752315521,0.3064578175544739
1772594807280729000,2.93872900390625,9.725546836853027,-0.05057751014828682,0.3163338899612427
1772594807300993000,2.958992919921875,9.72853946685791,-0.057161565870046616,0.3082534670829773
1772594807321257000,2.979257080078125,9.717166900634766,-0.04728548228740692,0.30526071786880493
1772594807341520000,2.999519775390625,9.694721221923828,-0.04967968538403511,0.3082534670829773
1772594807361784000,3.0197841796875,9.681253433227539,-0.042197804898023605,0.30795419216156006
1772594807382048000,3.040048095703125,9.667187690734863,-0.04010287672281265,0.3175309896469116
1772594807402311000,3.060310791015625,9.660603523254395,-0.03860650211572647,0.31453824043273926
1772594807422575000,3.0805751953125,9.652523040771484,-0.03950432687997818,0.30286651849746704
1772594807442839000,3.100839111328125,9.651026725769043,-0.04249707981944084,0.30615854263305664
1772594807463102000,3.12110205078125,9.641749382019043,-0.041299980133771896,0.30286651849746704
1772594807483366000,3.141365966796875,9.643844604492188,-0.041299980133771896,0.2968810200691223
1772594807503630000,3.161630126953125,9.644442558288574,-0.0553659126162529,0.29807811975479126
1772594807523893000,3.18189306640625,9.64923095703125,-0.05686229094862938,0.30137014389038086
1772594807544157000,3.202156982421875,9.682151794433594,-0.058957215398550034,0.29718029499053955
1772594807564421000,3.222421142578125,9.700706481933594,-0.061949968338012695,0.3076549172401428
1772594807584684000,3.24268408203125,9.720758438110352,-0.05626374110579491,0.30885201692581177
1772594807604948000,3.262947998046875,9.730634689331055,-0.05835866555571556,0.314238965511322
1772594807625212000,3.2832119140625,9.75397777557373,-0.05027823522686958,0.32022446393966675
1772594807645475000,3.30347509765625,9.776423454284668,-0.05147533491253853,0.32112228870391846
1772594807665739000,3.323739013671875,9.798569679260254,-0.04399345442652702,0.32860419154167175
1772594807686003000,3.3440029296875,9.814131736755371,-0.04489128291606903,0.3265092670917511
1772594807706266000,3.36426611328125,9.825204849243164,-0.055665191262960434,0.3196259140968323
1772594807726530000,3.384530029296875,9.824906349182129,-0.06374561786651611,0.32620999217033386
1772594807746794000,3.4047939453125,9.844358444213867,-0.06404489278793335,0.3181295394897461
1772594807767057000,3.425056884765625,9.846753120422363,-0.07302315533161163,0.3256114423274994
1772594807787321000,3.445321044921875,9.85962200164795,-0.06584054976701736,0.33518823981285095
1772594807807585000,3.4655849609375,9.87578296661377,-0.06643909960985184,0.3214215636253357
1772594807827848000,3.485847900390625,9.877279281616211,-0.061052143573760986,0.3241150677204132
1772594807848112000,3.506112060546875,9.873987197875977,-0.06254851818084717,0.33099839091300964
1772594807868376000,3.5263759765625,9.882367134094238,-0.06883329898118973,0.3312976658344269
1772594807888639000,3.546638916015625,9.891345024108887,-0.06554127484560013,0.3324947655200958
1772594807908903000,3.56690283203125,9.905111312866211,-0.060453593730926514,0.3274070918560028
1772594807929167000,3.5871669921875,9.905710220336914,-0.05686229094862938,0.32680854201316833
1772594807949430000,3.607429931640625,9.903316497802734,-0.05357026308774948,0.31932663917541504
1772594807969694000,3.62769384765625,9.900322914123535,-0.043095629662275314,0.3166331648826599
1772594807989958000,3.6479580078125,9.901819229125977,-0.039205051958560944,0.3148375153541565
1772594808010221000,3.668220947265625,9.906009674072266,-0.042197804898023605,0.320523738861084
1772594808030485000,3.688485107421875,9.912294387817383,-0.037409402430057526,0.3100491166114807
1772594808050749000,3.7087490234375,9.923966407775879,-0.03711012750864029,0.3034650683403015
1772594808071012000,3.72901220703125,9.92546272277832,-0.04040215536952019,0.3031657934188843
1772594808091276000,3.749276123046875,9.905410766601562,-0.04489128291606903,0.31214404106140137
1772594808111540000,3.7695400390625,9.880271911621094,-0.04578910768032074,0.30795419216156006
1772594808131803000,3.789802978515625,9.861417770385742,-0.050876785069704056,0.3139396905899048
1772594808152067000,3.810067138671875,9.826103210449219,-0.05177461355924606,0.3163338899612427
1772594808172331000,3.8303310546875,9.807249069213867,-0.05297171324491501,0.3148375153541565
1772594808192594000,3.850593994140625,9.779715538024902,-0.03890577703714371,0.31513679027557373
1772594808212858000,3.870858154296875,9.80455493927002,-0.0454898327589035,0.31932663917541504
1772594808233122000,3.8911220703125,9.80455493927002,-0.038007952272892,0.3199251890182495
1772594808253385000,3.911385009765625,9.82879638671875,-0.04010287672281265,0.3283049166202545
1772594808273649000,3.93164892578125,9.833884239196777,-0.03950432687997818,0.32950201630592346
1772594808293913000,3.9519130859375,9.838672637939453,-0.03292027488350868,0.33189621567726135
1772594808314176000,3.972176025390625,9.850045204162598,-0.025438392534852028,0.32680854201316833
1772594808334440000,3.99243994140625,9.85303783416748,-0.029029695317149162,0.3250128924846649
1772594808354704000,4.012703857421875,9.856030464172363,-0.027234043926000595,0.30945056676864624
1772594808374967000,4.032967041015625,9.865906715393066,-0.02693476900458336,0.3124433159828186
1772594808395231000,4.05323095703125,9.870096206665039,-0.029029695317149162,0.30555999279022217
1772594808415495000,4.073494873046875,9.87697982788086,-0.03232172131538391,0.2965817451477051
1772594808435759000,4.093759033203125,9.895833969116211,-0.029628245159983635,0.2902969419956207
1772594808456022000,4.11402197265625,9.899724960327148,-0.022445641458034515,0.28730419278144836
1772594808476286000,4.134285888671875,9.9000244140625,-0.020649990066885948,0.28221651911735535
1772594808496550000,4.1545498046875,9.911396026611328,-0.022445641458034515,0.28131869435310364
1772594808516813000,4.17481298828125,9.910798072814941,-0.027234043926000595,0.28131869435310364
1772594808537077000,4.195076904296875,9.906009674072266,-0.03321954980492592,0.2801215946674347
1772594808557341000,4.2153408203125,9.901520729064941,-0.02843114547431469,0.2849099934101105
1772594808577604000,4.23560400390625,9.909002304077148,-0.029628245159983635,0.27712884545326233
1772594808597868000,4.255867919921875,9.913491249084473,-0.022445641458034515,0.27084407210350037
1772594808618132000,4.276132080078125,9.926060676574707,-0.03172317147254944,0.26904842257499695
1772594808638395000,4.296394775390625,9.9278564453125,-0.039205051958560944,0.2795230448246002
1772594808658659000,4.3166591796875,9.937433242797852,-0.046088382601737976,0.27653029561042786
1772594808678923000,4.336923095703125,9.934141159057617,-0.043095629662275314,0.2810194194316864
1772594808699186000,4.35718603515625,9.936236381530762,-0.04189852997660637,0.2801215946674347
1772594808719450000,4.3774501953125,9.938331604003906,-0.033518824726343155,0.27084407210350037
1772594808739714000,4.397714111328125,9.939528465270996,-0.0293289702385664,0.26725277304649353
1772594808759977000,4.41797705078125,9.932644844055176,-0.0314238965511322,0.27892449498176575
1772594808780241000,4.438240966796875,9.935338973999023,-0.023942016065120697,0.2849099934101105
1772594808800505000,4.458505126953125,9.945813179016113,-0.03531447425484657,0.28640636801719666
1772594808820768000,4.47876806640625,9.947010040283203,-0.03561374917626381,0.2849099934101105
1772594808841032000,4.499031982421875,9.948206901550293,-0.03890577703714371,0.29388827085494995
1772594808861296000,4.519296142578125,9.955689430236816,-0.034416649490594864,0.2849099934101105
1772594808881559000,4.53955908203125,9.95898151397705,-0.035913024097681046,0.2819172441959381
1772594808901823000,4.559822998046875,9.953893661499023,-0.028131870552897453,0.284311443567276
1772594808922087000,4.5800869140625,9.962871551513672,-0.03561374917626381,0.2941875457763672
1772594808942350000,4.60035009765625,9.964367866516113,-0.03232172131538391,0.2890998423099518
1772594808962614000,4.620614013671875,9.969156265258789,-0.04040215536952019,0.2932897210121155
1772594808982878000,4.6408779296875,9.959280967712402,-0.04010287672281265,0.2974795699119568
1772594809003141000,4.66114111328125,9.952696800231934,-0.039205051958560944,0.29478609561920166
1772594809023405000,4.681405029296875,9.927258491516113,-0.042197804898023605,0.292691171169281
1772594809043669000,4.7016689453125,9.906907081604004,-0.04100070521235466,0.28131869435310364
1772594809063932000,4.721931884765625,9.877578735351562,-0.037409402430057526,0.2783259451389313
1772594809084196000,4.742196044921875,9.861717224121094,-0.03501519933342934,0.27473464608192444
1772594809104460000,4.7624599609375,9.833584785461426,-0.028131870552897453,0.28730419278144836
1772594809124723000,4.782722900390625,9.805453300476074,-0.030226796865463257,0.29628247022628784
1772594809144987000,4.80298681640625,9.799766540527344,-0.02753331884741783,0.3067570924758911
1772594809165251000,4.8232509765625,9.775824546813965,-0.029029695317149162,0.30376434326171875
1772594809185514000,4.843513916015625,9.750386238098145,-0.022445641458034515,0.3109469413757324
1772594809205778000,4.86377783203125,9.741408348083496,-0.02454056777060032,0.3124433159828186
1772594809226042000,4.8840419921875,9.731532096862793,-0.022445641458034515,0.3010708689689636
1772594809246305000,4.904304931640625,9.718962669372559,-0.02992752194404602,0.30286651849746704
1772594809266569000,4.92456884765625,9.713874816894531,-0.03172317147254944,0.3016694188117981
1772594809286833000,4.9448330078125,9.740211486816406,-0.03651157766580582,0.3025672435760498
1772594809307096000,4.965095947265625,9.754875183105469,-0.03711012750864029,0.2965817451477051
1772594809327360000,4.985360107421875,9.770736694335938,-0.028131870552897453,0.30137014389038086
1772594809347624000,5.0056240234375,9.781511306762695,-0.026635494083166122,0.3133411407470703
1772594809367887000,5.02588720703125,9.763854026794434,-0.02364274114370346,0.3082534670829773
1772594809388151000,5.046151123046875,9.739912033081055,-0.018555063754320145,0.31034839153289795
1772594809408415000,5.0664150390625,9.730335235595703,-0.009576806798577309,0.3010708689689636
1772594809428678000,5.086677978515625,9.723451614379883,-0.01586158573627472,0.29867666959762573
1772594809448942000,5.106942138671875,9.716269493103027,-0.008978256024420261,0.29239189624786377
1772594809469206000,5.1272060546875,9.704896926879883,-0.016759412363171577,0.2968810200691223
1772594809489469000,5.147468994140625,9.733327865600586,-0.005985504016280174,0.29807811975479126
1772594809509733000,5.167733154296875,9.749189376831055,-0.004788403399288654,0.3010708689689636
1772594809529997000,5.1879970703125,9.765050888061523,-0.005087678786367178,0.3001730442047119
1772594809550260000,5.208260009765625,9.7791166305542,-0.008678981103003025,0.28969839215278625
1772594809570524000,5.22852392578125,9.775226593017578,-0.009277531877160072,0.28640636801719666
1772594809590788000,5.2487880859375,9.76325511932373,-0.0065840547904372215,0.2819172441959381
1772594809611051000,5.269051025390625,9.742904663085938,-0.013766659423708916,0.28401216864585876
1772594809631315000,5.28931494140625,9.728240013122559,-0.01885433867573738,0.2858078181743622
1772594809651579000,5.309578857421875,9.738116264343262,-0.023044191300868988,0.28131869435310364
1772594809671842000,5.329842041015625,9.767146110534668,-0.013766659423708916,0.289399117231369
1772594809692106000,5.35010595703125,9.774328231811523,-0.024839842692017555,0.29299044609069824
1772594809712370000,5.370369873046875,9.792284965515137,-0.020949264988303185,0.29059621691703796
1772594809732634000,5.390634033203125,9.808146476745605,-0.020949264988303185,0.29209262132644653
1772594809752897000,5.41089697265625,9.821015357971191,-0.023942016065120697,0.29568392038345337
1772594809773161000,5.431160888671875,9.838972091674805,-0.02364274114370346,0.3001730442047119
1772594809793425000,5.4514248046875,9.848548889160156,-0.01586158573627472,0.29538464546203613
1772594809813688000,5.47168798828125,9.862015724182129,-0.020649990066885948,0.2974795699119568
1772594809833952000,5.491951904296875,9.873987197875977,-0.020949264988303185,0.3034650683403015
1772594809854216000,5.5122158203125,9.863213539123535,-0.035913024097681046,0.2992752194404602
1772594809874479000,5.53247900390625,9.836577415466309,-0.032620999962091446,0.28730419278144836
1772594809894743000,5.552742919921875,9.843161582946777,-0.0454898327589035,0.29867666959762573
1772594809915007000,5.573007080078125,9.844059944152832,-0.047884032130241394,0.29897594451904297
1772594809935270000,5.593269775390625,9.853935241699219,-0.04339490458369255,0.3007715940475464
1772594809955534000,5.6135341796875,9.873088836669922,-0.04159925505518913,0.31364041566848755
1772594809975798000,5.633798095703125,9.868300437927246,-0.03232172131538391,0.3208230137825012
1772594809996061000,5.65406103515625,9.868300437927246,-0.026635494083166122,0.3139396905899048
1772594810016325000,5.6743251953125,9.884461402893066,-0.027234043926000595,0.3163338899612427
1772594810036589000,5.694589111328125,9.885957717895508,-0.03082534670829773,0.31274259090423584
1772594810056852000,5.71485205078125,9.889249801635742,-0.02513911761343479,0.3133411407470703
1772594810077116000,5.735115966796875,9.896133422851562,-0.02214636653661728,0.31783026456832886
1772594810097380000,5.755380126953125,9.896432876586914,-0.02513911761343479,0.3265092670917511
1772594810117643000,5.77564306640625,9.894637107849121,-0.023942016065120697,0.31543606519699097
1772594810137907000,5.795906982421875,9.89433765411377,-0.012569558806717396,0.3100491166114807
1772594810158171000,5.8161708984375,9.892242431640625,-0.020350715145468712,0.3175309896469116
1772594810178434000,5.83643408203125,9.889848709106445,-0.018555063754320145,0.3241150677204132
1772594810198698000,5.856697998046875,9.88506031036377,-0.014365210197865963,0.32112228870391846
1772594810218962000,5.8769619140625,9.867403030395508,-0.01496376097202301,0.31603461503982544
1772594810239225000,5.89722509765625,9.848249435424805,-0.029628245159983635,0.309151291847229
1772594810259489000,5.917489013671875,9.831789016723633,-0.026336219161748886,0.3139396905899048
1772594810279753000,5.9377529296875,9.812335968017578,-0.026336219161748886,0.31214404106140137
1772594810300016000,5.95801611328125,9.800664901733398,-0.021847089752554893,0.3073556423187256
1772594810320280000,5.978280029296875,9.773730278015137,-0.03321954980492592,0.31214404106140137
1772594810340544000,5.9985439453125,9.759963035583496,-0.0314238965511322,0.30795419216156006
1772594810360807000,6.018806884765625,9.753080368041992,-0.024839842692017555,0.31453824043273926
1772594810381071000,6.039071044921875,9.742006301879883,-0.025737667456269264,0.320523738861084
1772594810401335000,6.0593349609375,9.770438194274902,-0.013168109580874443,0.3130418658256531
1772594810421598000,6.079597900390625,9.799766540527344,-0.017956512048840523,0.31274259090423584
1772594810441862000,6.09986181640625,9.812335968017578,-0.013766659423708916,0.3124433159828186
1772594810462126000,6.1201259765625,9.829395294189453,-0.012569558806717396,0.3043628931045532
1772594810482389000,6.140388916015625,9.809343338012695,-0.020051438361406326,0.30137014389038086
1772594810502653000,6.16065283203125,9.792284965515137,-0.020649990066885948,0.31513679027557373
1772594810522917000,6.180917236328125,9.780313491821289,-0.014365210197865963,0.31842881441116333
1772594810543180000,6.201179931640625,9.76864242553711,-0.023343466222286224,0.3172317147254944
1772594810563444000,6.22144384765625,9.753678321838379,-0.018555063754320145,0.31453824043273926
1772594810583708000,6.2417080078125,9.746794700622559,-0.01735796220600605,0.32172083854675293
1772594810603971000,6.26197119140625,9.73542308807373,-0.029029695317149162,0.3259107172489166
1772594810624235000,6.282235107421875,9.72853946685791,-0.0293289702385664,0.3306991159915924
1772594810644499000,6.3024990234375,9.718962669372559,-0.02603694424033165,0.32112228870391846
1772594810664762000,6.32276220703125,9.70549488067627,-0.01735796220600605,0.33010056614875793
1772594810685026000,6.343026123046875,9.699809074401855,-0.01735796220600605,0.3196259140968323
1772594810705290000,6.3632900390625,9.69502067565918,-0.026336219161748886,0.31214404106140137
1772594810725553000,6.383552978515625,9.713874816894531,-0.023942016065120697,0.3148375153541565
1772594810745817000,6.403817138671875,9.72734260559082,-0.02843114547431469,0.3097498416900635
1772594810766081000,6.4240810546875,9.753678321838379,-0.039205051958560944,0.29478609561920166
1772594810786344000,6.444343994140625,9.765948295593262,-0.03292027488350868,0.29628247022628784
1772594810806608000,6.46460791015625,9.75397777557373,-0.039803601801395416,0.30047231912612915
1772594810826872000,6.4848720703125,9.750086784362793,-0.0454898327589035,0.3049614429473877
1772594810847135000,6.505135009765625,9.742605209350586,-0.039803601801395416,0.31184476613998413
1772594810867399000,6.52539892578125,9.759663581848145,-0.04818331077694893,0.31184476613998413
1772594810887663000,6.5456630859375,9.788095474243164,-0.049380410462617874,0.31453824043273926
1772594810907926000,6.565926025390625,9.797073364257812,-0.04668693244457245,0.3100491166114807
1772594810928190000,6.58618994140625,9.786897659301758,-0.04758475720882416,0.30795419216156006
1772594810948454000,6.606453857421875,9.77791976928711,-0.04489128291606903,0.3175309896469116
1772594810968717000,6.626717041015625,9.794678688049316,-0.046088382601737976,0.309151291847229
1772594810988981000,6.64698095703125,9.808745384216309,-0.046986207365989685,0.30466216802597046
1772594811009245000,6.667244873046875,9.81951904296875,-0.04519055783748627,0.3115454912185669
1772594811029509000,6.687509033203125,9.838373184204102,-0.04010287672281265,0.2992752194404602
1772594811049772000,6.70777197265625,9.84256362915039,-0.0487818606197834,0.30466216802597046
1772594811070036000,6.728035888671875,9.858125686645508,-0.0487818606197834,0.29957449436187744
1772594811090300000,6.7482998046875,9.874286651611328,-0.035913024097681046,0.3007715940475464
1772594811110563000,6.76856298828125,9.881169319152832,-0.039803601801395416,0.30047231912612915
1772594811130827000,6.788826904296875,9.891345024108887,-0.04010287672281265,0.3049614429473877
1772594811151091000,6.809091064453125,9.892242431640625,-0.03082534670829773,0.30526071786880493
1772594811171354000,6.82935400390625,9.894637107849121,-0.04399345442652702,0.31124621629714966
1772594811191618000,6.8496181640625,9.897629737854004,-0.04249707981944084,0.31842881441116333
1772594811211882000,6.869882080078125,9.89553451538086,-0.030226796865463257,0.30526071786880493
1772594811232145000,6.890144775390625,9.866804122924805,-0.024839842692017555,0.29718029499053955
1772594811252409000,6.9104091796875,9.852738380432129,-0.0293289702385664,0.29628247022628784
1772594811272673000,6.930673095703125,9.868599891662598,-0.0293289702385664,0.2944868206977844
1772594811292936000,6.95093603515625,9.877578735351562,-0.037409402430057526,0.30137014389038086
1772594811313200000,6.9712001953125,9.884461402893066,-0.037409402430057526,0.29568392038345337
1772594811333464000,6.991464111328125,9.869498252868652,-0.03950432687997818,0.2965817451477051
1772594811353727000,7.01172705078125,9.84376049041748,-0.04429273307323456,0.28730419278144836
1772594811373991000,7.031990966796875,9.810839653015137,-0.0487818606197834,0.28880056738853455
1772594811394255000,7.052255126953125,9.791387557983398,-0.05147533491253853,0.28221651911735535
1772594811414518000,7.07251806640625,9.771934509277344,-0.04758475720882416,0.29149407148361206
1772594811434782000,7.092781982421875,9.77253246307373,-0.05267243832349777,0.29957449436187744
1772594811455046000,7.1130458984375,9.798270225524902,-0.05267243832349777,0.3025672435760498
1772594811475309000,7.13330908203125,9.819219589233398,-0.058957215398550034,0.29628247022628784
1772594811495573000,7.153572998046875,9.830592155456543,-0.05776011571288109,0.2911947965621948
1772594811515846000,7.173845947265625,9.807547569274902,-0.054168812930583954,0.28730419278144836
1772594811536110000,7.194110107421875,9.78480339050293,-0.04818331077694893,0.29568392038345337
1772594811556374000,7.2143740234375,9.7605619430542,-0.04489128291606903,0.3064578175544739
1772594811576637000,7.234636962890625,9.746794700622559,-0.047884032130241394,0.30855274200439453
1772594811596901000,7.254901123046875,9.74589729309082,-0.05746084079146385,0.29628247022628784
1772594811617165000,7.2751650390625,9.730035781860352,-0.057161565870046616,0.304063618183136
1772594811637428000,7.295427978515625,9.72165584564209,-0.05656301602721214,0.30526071786880493
1772594811657692000,7.31569189453125,9.706991195678711,-0.060453593730926514,0.30226796865463257
1772594811677956000,7.3359560546875,9.706393241882324,-0.061052143573760986,0.30286651849746704
1772594811698219000,7.356218994140625,9.694421768188477,-0.054767362773418427,0.29867666959762573
1772594811718483000,7.37648291015625,9.691129684448242,-0.04967968538403511,0.29568392038345337
1772594811738747000,7.396746826171875,9.685144424438477,-0.0347159244120121,0.30466216802597046
1772594811759010000,7.417010009765625,9.713874816894531,-0.03531447425484657,0.30226796865463257
1772594811779274000,7.43727392578125,9.723451614379883,-0.04040215536952019,0.30196869373321533
1772594811799538000,7.457537841796875,9.740809440612793,-0.04429273307323456,0.3034650683403015
1772594811819802000,7.477802001953125,9.75936508178711,-0.042197804898023605,0.29299044609069824
1772594811840065000,7.49806494140625,9.742006301879883,-0.053270988166332245,0.30196869373321533
1772594811860329000,7.518328857421875,9.741408348083496,-0.05117605999112129,0.30705636739730835
1772594811880593000,7.538593017578125,9.724050521850586,-0.0487818606197834,0.3031657934188843
1772594811900856000,7.55885595703125,9.705794334411621,-0.043095629662275314,0.29538464546203613
1772594811921120000,7.5791201171875,9.717166900634766,-0.038307227194309235,0.30137014389038086
1772594811941384000,7.599384033203125,9.750086784362793,-0.03681085258722305,0.3067570924758911
1772594811961647000,7.619647216796875,9.771036148071289,-0.04010287672281265,0.30885201692581177
1772594811981911000,7.6399111328125,9.783307075500488,-0.03292027488350868,0.3109469413757324
1772594812002175000,7.660175048828125,9.773430824279785,-0.03501519933342934,0.30855274200439453
1772594812022438000,7.68043798828125,9.762657165527344,-0.03651157766580582,0.31603461503982544
1772594812042702000,7.7007021484375,9.742605209350586,-0.03860650211572647,0.3043628931045532
1772594812062966000,7.720966064453125,9.721356391906738,-0.024839842692017555,0.3049614429473877
1772594812083229000,7.74122900390625,9.718363761901855,-0.021847089752554893,0.30137014389038086
1772594812103493000,7.7614931640625,9.717166900634766,-0.02843114547431469,0.3031657934188843
1772594812123757000,7.781757080078125,9.721955299377441,-0.037409402430057526,0.3025672435760498
1772594812144020000,7.80202001953125,9.716867446899414,-0.041299980133771896,0.297778844833374
1772594812164284000,7.822283935546875,9.722554206848145,-0.041299980133771896,0.2944868206977844
1772594812184548000,7.842548095703125,9.717466354370117,-0.03950432687997818,0.289399117231369
1772594812204811000,7.86281103515625,9.711779594421387,-0.03950432687997818,0.28880056738853455
1772594812225075000,7.883074951171875,9.715071678161621,-0.032022446393966675,0.29239189624786377
1772594812245339000,7.9033388671875,9.707889556884766,-0.03232172131538391,0.29897594451904297
1772594812265602000,7.92360205078125,9.702502250671387,-0.021847089752554893,0.3043628931045532
1772594812285866000,7.943865966796875,9.718962669372559,-0.020051438361406326,0.31513679027557373
1772594812306130000,7.9641298828125,9.742305755615234,-0.023044191300868988,0.3157353401184082
1772594812326393000,7.98439306640625,9.75397777557373,-0.025438392534852028,0.3067570924758911
1772594812346657000,8.004656982421874,9.760262489318848,-0.027832595631480217,0.3025672435760498
1772594812366921000,8.0249208984375,9.758466720581055,-0.020051438361406326,0.3001730442047119
1772594812387184000,8.04518408203125,9.774328231811523,-0.024839842692017555,0.2965817451477051
1772594812407448000,8.065447998046874,9.790189743041992,-0.022445641458034515,0.29867666959762573
1772594812427712000,8.0857119140625,9.806350708007812,-0.012868833728134632,0.2959831953048706
1772594812447975000,8.105974853515624,9.809942245483398,-0.02513911761343479,0.2908954918384552
1772594812468239000,8.126239013671874,9.827300071716309,-0.02364274114370346,0.2917933464050293
1772594812488503000,8.1465029296875,9.822511672973633,-0.030226796865463257,0.3049614429473877
1772594812508766000,8.166765869140624,9.800065994262695,-0.044592007994651794,0.30226796865463257
1772594812529030000,8.18702978515625,9.79408073425293,-0.041299980133771896,0.3073556423187256
1772594812549294000,8.207294189453124,9.7791166305542,-0.039205051958560944,0.3025672435760498
1772594812569557000,8.227556884765624,9.76086139678955,-0.03860650211572647,0.2992752194404602
1772594812589821000,8.247821044921874,9.758466720581055,-0.03621229901909828,0.2998737692832947
1772594812610085000,8.268085205078124,9.738714218139648,-0.04519055783748627,0.3010708689689636
1772594812630348000,8.28834814453125,9.738116264343262,-0.05117605999112129,0.30945056676864624
1772594812650612000,8.308612060546874,9.749488830566406,-0.055665191262960434,0.3010708689689636
1772594812670876000,8.3288759765625,9.780912399291992,-0.05057751014828682,0.2974795699119568
1772594812691139000,8.34913916015625,9.7883939743042,-0.04758475720882416,0.2983773946762085
1772594812711403000,8.369403076171874,9.782408714294434,-0.04908113554120064,0.30196869373321533
1772594812731667000,8.3896669921875,9.777022361755371,-0.05027823522686958,0.3139396905899048
1772594812751930000,8.40993017578125,9.749788284301758,-0.04399345442652702,0.3001730442047119
1772594812772194000,8.430194091796874,9.726144790649414,-0.03232172131538391,0.30376434326171875
1772594812792458000,8.4504580078125,9.712079048156738,-0.0454898327589035,0.3073556423187256
1772594812812721000,8.470720947265624,9.743502616882324,-0.043095629662275314,0.2983773946762085
1772594812832985000,8.490985107421874,9.755773544311523,-0.05057751014828682,0.2917933464050293
1772594812853249000,8.5112490234375,9.782109260559082,-0.048482585698366165,0.28969839215278625
1772594812873512000,8.531511962890624,9.797372817993164,-0.05626374110579491,0.28311434388160706
1772594812893776000,8.55177587890625,9.783307075500488,-0.054168812930583954,0.29388827085494995
1772594812914040000,8.5720400390625,9.774927139282227,-0.05446808785200119,0.29807811975479126
1772594812934303000,8.592302978515624,9.762657165527344,-0.06075286865234375,0.28790274262428284
1772594812954567000,8.61256689453125,9.743502616882324,-0.05776011571288109,0.284311443567276
1772594812974831000,8.6328310546875,9.763854026794434,-0.057161565870046616,0.2950853705406189
1772594812995094000,8.653093994140624,9.774328231811523,-0.055665191262960434,0.29538464546203613
1772594813015358000,8.67335791015625,9.793182373046875,-0.057161565870046616,0.2959831953048706
1772594813035622000,8.693621826171874,9.802460670471191,-0.0586579404771328,0.3010708689689636
1772594813055885000,8.713885009765624,9.79527759552002,-0.05746084079146385,0.29897594451904297
1772594813076149000,8.73414892578125,9.785401344299316,-0.054767362773418427,0.3082534670829773
1772594813096413000,8.754412841796874,9.760262489318848,-0.06344634294509888,0.30226796865463257
1772594813116677000,8.774677001953124,9.746496200561523,-0.06224924325942993,0.31214404106140137
1772594813136940000,8.79493994140625,9.72853946685791,-0.05267243832349777,0.31453824043273926
1772594813157204000,8.815203857421874,9.725546836853027,-0.05057751014828682,0.32112228870391846
1772594813177468000,8.835468017578124,9.712079048156738,-0.047884032130241394,0.314238965511322
1772594813197731000,8.85573095703125,9.709685325622559,-0.04339490458369255,0.31184476613998413
1772594813217995000,8.8759951171875,9.706692695617676,-0.04279635474085808,0.30945056676864624
1772594813238259000,8.896259033203124,9.691728591918945,-0.038307227194309235,0.30196869373321533
1772594813258522000,8.916522216796874,9.684247016906738,-0.026336219161748886,0.28969839215278625
1772594813278786000,8.9367861328125,9.681253433227539,-0.02513911761343479,0.29538464546203613
1772594813299050000,8.957050048828124,9.681253433227539,-0.035913024097681046,0.3049614429473877
1772594813319313000,8.97731298828125,9.671976089477539,-0.0347159244120121,0.30945056676864624
1772594813339577000,8.9975771484375,9.664793968200684,-0.03621229901909828,0.3223194181919098
1772594813359841000,9.017841064453124,9.65222454071045,-0.039803601801395416,0.31543606519699097
1772594813380104000,9.03810400390625,9.675867080688477,-0.05117605999112129,0.3223194181919098
1772594813400368000,9.0583681640625,9.692028045654297,-0.05117605999112129,0.30795419216156006
1772594813420632000,9.078632080078124,9.722554206848145,-0.05147533491253853,0.3163338899612427
1772594813440895000,9.09889501953125,9.744400978088379,-0.05357026308774948,0.3250128924846649
1772594813461159000,9.119158935546874,9.765050888061523,-0.04967968538403511,0.3208230137825012
1772594813481423000,9.139423095703124,9.783905029296875,-0.04040215536952019,0.322618693113327
1772594813501686000,9.15968603515625,9.797073364257812,-0.028131870552897453,0.3172317147254944
1772594813522041000,9.180041015625,9.813833236694336,-0.0314238965511322,0.320523738861084
1772594813542305000,9.200304931640625,9.825803756713867,-0.019452888518571854,0.32381579279899597
1772594813562569000,9.22056884765625,9.814730644226074,-0.027234043926000595,0.3157353401184082
1772594813582833000,9.2408330078125,9.798270225524902,-0.030526071786880493,0.3097498416900635
1772594813603096000,9.261095947265625,9.794978141784668,-0.018555063754320145,0.30137014389038086
1772594813623360000,9.281360107421875,9.811738014221191,-0.03082534670829773,0.3031657934188843
1772594813643624000,9.3016240234375,9.82999324798584,-0.025438392534852028,0.30945056676864624
1772594813663887000,9.32188720703125,9.830292701721191,-0.018555063754320145,0.3082534670829773
1772594813684151000,9.342151123046875,9.844657897949219,-0.023343466222286224,0.29628247022628784
1772594813704415000,9.3624150390625,9.850643157958984,-0.038007952272892,0.29538464546203613
1772594813724678000,9.382677978515625,9.862614631652832,-0.041299980133771896,0.2959831953048706
1772594813744942000,9.402942138671875,9.856329917907715,-0.039205051958560944,0.29568392038345337
1772594813765206000,9.4232060546875,9.850643157958984,-0.03082534670829773,0.2959831953048706
1772594813785469000,9.443468994140625,9.850045204162598,-0.038307227194309235,0.2959831953048706
1772594813805733000,9.463733154296875,9.859322547912598,-0.031124621629714966,0.30047231912612915
1772594813825997000,9.4839970703125,9.86231517791748,-0.01825578883290291,0.30795419216156006
1772594813846260000,9.504260009765625,9.861717224121094,-0.01735796220600605,0.3175309896469116
1772594813866524000,9.52452392578125,9.837475776672363,-0.016160860657691956,0.31184476613998413
1772594813886788000,9.5447880859375,9.828496932983398,-0.01496376097202301,0.3031657934188843
1772594813907051000,9.565051025390625,9.82640266418457,-0.017657237127423286,0.31124621629714966
1772594813927315000,9.58531494140625,9.830592155456543,-0.02274491637945175,0.3097498416900635
1772594813947579000,9.605578857421875,9.842264175415039,-0.020649990066885948,0.30705636739730835
1772594813967842000,9.625842041015625,9.861717224121094,-0.02364274114370346,0.29897594451904297
1772594813988106000,9.64610595703125,9.859023094177246,-0.028131870552897453,0.29867666959762573
1772594814008370000,9.666369873046875,9.865906715393066,-0.020051438361406326,0.30196869373321533
1772594814028633000,9.686633056640625,9.87458610534668,-0.03232172131538391,0.30466216802597046
1772594814048897000,9.70689697265625,9.877877235412598,-0.038007952272892,0.29568392038345337
1772594814069161000,9.727160888671875,9.894038200378418,-0.03292027488350868,0.2935889959335327
1772594814089424000,9.747423828125,9.90122127532959,-0.03292027488350868,0.29957449436187744
1772594814109688000,9.76768798828125,9.897629737854004,-0.034416649490594864,0.3001730442047119
1772594814129952000,9.787951904296875,9.902118682861328,-0.03621229901909828,0.3049614429473877
