time,seconds_elapsed,z,y,x
1772408825485473300,0.187473388671875,0.013938999734818935,0.34411901235580444,-0.43730801343917847
1772408825505532200,0.2075322265625,-0.09444800019264221,0.1560949981212616,-0.9354469776153564
1772408825525590800,0.2275908203125,0.179640993475914,0.14567600190639496,-1.273157000541687
1772408825545649700,0.247649658203125,-0.26828598976135254,0.1893409937620163,-1.0897259712219238
1772408825565708300,0.267708251953125,-1.4018290042877197,0.41627299785614014,-0.5957800149917603
1772408825585767200,0.28776708984375,-1.86866295337677,0.5146179795265198,-0.3790239989757538
1772408825605825800,0.30782568359375,-0.5373309850692749,0.5788940191268921,-1.3816189765930176
1772408825625884400,0.327884521484375,-0.7362639904022217,0.4567149877548218,-0.8908950090408325
1772408825645943000,0.347943115234375,-1.368211030960083,0.5173720121383667,-0.4327160120010376
1772408825666002000,0.368001953125,-1.6545690298080444,0.689096987247467,0.35462599992752075
1772408825686060500,0.388060546875,-1.5380549430847168,0.6568779945373535,0.7685009837150574
1772408825706119400,0.408119384765625,-0.7648440003395081,-0.2616960108280182,0.8236010074615479
1772408825726177800,0.428177734375,0.8321239948272705,-2.193356990814209,1.267680048942566
1772408825746236700,0.448236572265625,2.9128990173339844,-4.580286026000977,1.7229440212249756
1772408825766295600,0.468295654296875,4.387119770050049,-6.225028038024902,2.1175549030303955
1772408825786354200,0.488354248046875,4.356095790863037,-7.00482177734375,2.550044059753418
1772408825806413000,0.5084130859375,3.6592769622802734,-8.704657554626465,3.0400350093841553
1772408825826471700,0.5284716796875,3.2554209232330322,-7.298925876617432,1.721627950668335
1772408825846530600,0.548530517578125,1.6979379653930664,-3.073539972305298,0.4061020016670227
1772408825866589000,0.5685888671875,-0.9032490253448486,1.4219659566879272,-0.35111701488494873
1772408825886647800,0.588647705078125,-3.652998924255371,5.1767730712890625,-0.8024939894676208
1772408825906706400,0.60870654296875,-5.326398849487305,7.453417778015137,-1.69479501247406
1772408825926765300,0.628765380859375,-5.607519149780273,8.289935111999512,-2.285435914993286
1772408825946824000,0.648823974609375,-5.4532151222229,7.9183478355407715,-2.453948974609375
1772408825966882600,0.668882568359375,-4.0217719078063965,7.106678009033203,-2.32555890083313
1772408825986941200,0.688941162109375,-2.7022171020507812,6.1485419273376465,-2.2412469387054443
1772408826007000000,0.709,-1.8249739408493042,4.980433940887451,-1.9537969827651978
1772408826027058700,0.72905859375,-1.3023790121078491,3.852346897125244,-1.6398379802703857
1772408826047117600,0.74911767578125,-1.0979030132293701,2.2690770626068115,-1.3526699542999268
1772408826067176200,0.76917626953125,-0.5735219717025757,1.2560620307922363,-0.918936014175415
1772408826087235000,0.789235107421875,-0.19241799414157867,0.16884900629520416,-0.2639490067958832
1772408826107293700,0.809293701171875,0.19966499507427216,-1.6785199642181396,0.41523998975753784
1772408826127352600,0.8293525390625,1.8421319723129272,-5.662015914916992,1.7817920446395874
1772408826147411200,0.8494111328125,3.7489049434661865,-10.141613006591797,4.435033798217773
1772408826167469800,0.8694697265625,6.791123867034912,-12.694890022277832,4.7104268074035645
1772408826187528400,0.889528564453125,7.314499855041504,-12.075112342834473,4.063541889190674
1772408826207587300,0.90958740234375,4.590798854827881,-12.341689109802246,5.42443323135376
1772408826227646200,0.929646240234375,2.3798389434814453,-9.999752044677734,3.9299468994140625
1772408826247704600,0.94970458984375,4.324670791625977,-5.347002029418945,0.4719569981098175
1772408826267763500,0.969763427734375,2.274137020111084,0.9207990169525146,-2.068834066390991
1772408826287822000,0.989822021484375,-2.075890064239502,6.934237957000732,-2.6798670291900635
1772408826307881000,1.009880859375,-5.497511863708496,10.257792472839355,-2.3902928829193115
1772408826327939600,1.029939697265625,-6.338009834289551,10.961433410644531,-1.957034945487976
1772408826347998500,1.04999853515625,-6.6464080810546875,10.100346565246582,-1.7336280345916748
1772408826368057000,1.07005712890625,-6.207526206970215,8.553077697753906,-1.8525019884109497
1772408826388116000,1.090115966796875,-4.847620964050293,7.036061763763428,-2.118001937866211
1772408826408174600,1.110174560546875,-3.26529598236084,5.726449012756348,-1.667201042175293
1772408826428233200,1.130233154296875,-2.5586369037628174,4.109959125518799,-0.6465610265731812
1772408826448291800,1.150291748046875,-1.36850905418396,2.743967056274414,-0.7412480115890503
1772408826468350700,1.170350830078125,0.1451919972896576,1.4887739419937134,-1.8937989473342896
1772408826488409300,1.190409423828125,0.7369530200958252,0.6070190072059631,-1.6086390018463135
1772408826508468200,1.21046826171875,1.1431629657745361,0.36241498589515686,-0.7565109729766846
1772408826528526800,1.23052685546875,1.4473299980163574,-0.8316670060157776,-0.28920799493789673
1772408826548585500,1.25058544921875,1.983464002609253,-3.137334108352661,0.05263200029730797
1772408826568644000,1.27064404296875,3.3291709423065186,-7.581867218017578,1.7293059825897217
1772408826588703000,1.290702880859375,5.295337200164795,-12.181493759155273,3.6642448902130127
1772408826608761900,1.310761962890625,8.073068618774414,-13.935596466064453,4.128995895385742
1772408826628820500,1.330820556640625,8.38725471496582,-14.165276527404785,4.7263970375061035
1772408826648879400,1.35087939453125,6.58340311050415,-11.597021102905273,4.281116962432861
1772408826668938000,1.37093798828125,4.408322811126709,-7.435216903686523,2.104893922805786
1772408826688996900,1.390996826171875,1.9538580179214478,-0.6961719989776611,-1.0856839418411255
1772408826709055500,1.411055419921875,-0.5705119967460632,6.196660995483398,-2.4541471004486084
1772408826729114000,1.431114013671875,-3.6972100734710693,10.378129005432129,-2.6609179973602295
1772408826749173000,1.451173095703125,-6.627367973327637,11.259303092956543,-2.270334005355835
1772408826769231600,1.471231689453125,-8.05549430847168,10.675442695617676,-2.2298669815063477
1772408826789290200,1.491290283203125,-8.767595291137695,9.373154640197754,-2.2342939376831055
1772408826809349000,1.51134912109375,-8.33167552947998,7.7329230308532715,-1.917834997177124
1772408826829407700,1.53140771484375,-6.523740768432617,5.873538970947266,-1.5094679594039917
1772408826849466600,1.551466552734375,-3.3421928882598877,3.7932310104370117,-0.8875740170478821
1772408826869525500,1.571525390625,-0.5169540047645569,2.0961849689483643,-0.7308589816093445
1772408826889583900,1.591583984375,1.0320359468460083,1.0633469820022583,-0.8486869931221008
1772408826909642800,1.611642822265625,2.1048290729522705,0.4442780017852783,-0.8749489784240723
1772408826929701400,1.631701416015625,2.532663106918335,0.14662200212478638,-0.9735590219497681
1772408826949760300,1.65176025390625,1.8877300024032593,-0.22030100226402283,-0.9052469730377197
1772408826969819000,1.67181884765625,1.6061840057373047,-1.3058409690856934,-0.1881980001926422
1772408826989877800,1.691877685546875,1.6081470251083374,-4.006272792816162,1.3302409648895264
1772408827009936400,1.711936279296875,1.982517957687378,-8.215417861938477,3.358592987060547
1772408827029995300,1.731995361328125,3.843614101409912,-12.192334175109863,4.479674816131592
1772408827050054000,1.752053955078125,7.097290992736816,-14.425067901611328,4.997338771820068
1772408827070112500,1.772112548828125,9.617833137512207,-14.133654594421387,4.6258721351623535
1772408827090171100,1.792171142578125,6.872665882110596,-10.743722915649414,3.038296937942505
1772408827110230000,1.81222998046875,2.3549320697784424,-5.179777145385742,1.1530380249023438
1772408827130289000,1.832288818359375,0.7559459805488586,1.6001770496368408,-1.3239690065383911
1772408827150347500,1.852347412109375,-0.8360430002212524,7.547342777252197,-2.7735750675201416
1772408827170406400,1.872406494140625,-3.081634044647217,11.053874969482422,-2.7092599868774414
1772408827190465000,1.892465087890625,-5.127707004547119,12.129499435424805,-1.5522079467773438
1772408827210524000,1.91252392578125,-7.059765815734863,11.145999908447266,-1.1769659519195557
1772408827230582500,1.93258251953125,-7.728612899780273,9.242399215698242,-1.9871729612350464
1772408827250641400,1.952641357421875,-6.35168981552124,7.2427191734313965,-1.762537956237793
1772408827270700000,1.972699951171875,-4.533351898193359,5.341375827789307,-1.0556299686431885
1772408827290758700,1.992758544921875,-3.037081003189087,3.848299980163574,-0.8557040095329285
1772408827310817500,2.012817626953125,-1.8648649454116821,2.3562400341033936,-1.347762942314148
1772408827330876200,2.032876220703125,-0.9614920020103455,1.0465919971466064,-2.4206109046936035
1772408827350935000,2.05293505859375,-0.07399299740791321,0.2764729857444763,-3.082887887954712
1772408827370993700,2.07299365234375,0.30240398645401,-0.12522000074386597,-2.7135109901428223
1772408827391052500,2.093052490234375,0.027522999793291092,-0.38417598605155945,-1.7340079545974731
1772408827411111200,2.113111083984375,-0.24838000535964966,-1.4353410005569458,-0.41520699858665466
1772408827431170000,2.133170166015625,0.8244950175285339,-4.806673049926758,1.2310340404510498
1772408827451228700,2.153228759765625,3.890795946121216,-9.798138618469238,3.3080270290374756
1772408827471287600,2.17328759765625,9.055837631225586,-14.965710639953613,5.620821952819824
1772408827491346200,2.19334619140625,12.759069442749023,-16.850967407226562,6.0710577964782715
1772408827511404800,2.21340478515625,9.21125602722168,-14.89437484741211,4.876045227050781
1772408827531463700,2.233463623046875,4.233804225921631,-10.453899383544922,3.485635995864868
1772408827551522600,2.2535224609375,1.6422430276870728,-3.942318916320801,2.428508996963501
1772408827571581200,2.273581298828125,-0.017403999343514442,3.2877449989318848,1.1684080362319946
1772408827591640000,2.29364013671875,-2.0579240322113037,8.437397003173828,-1.4396729469299316
1772408827611698700,2.31369873046875,-4.571138858795166,11.739518165588379,-3.1533379554748535
1772408827631757600,2.333757568359375,-6.1945109367370605,12.857213973999023,-2.6074700355529785
1772408827651816200,2.353816162109375,-6.65880823135376,12.082571029663086,-1.9499759674072266
1772408827671875000,2.373875,-6.415846824645996,10.194856643676758,-2.021580934524536
1772408827691933400,2.393933349609375,-5.795076847076416,7.8438849449157715,-2.3028650283813477
1772408827711992300,2.413992431640625,-4.6728620529174805,5.6023077964782715,-1.8806920051574707
1772408827732051000,2.434051025390625,-2.866288900375366,3.6202468872070312,-1.5021530389785767
1772408827752109800,2.45410986328125,-1.0186309814453125,1.9633970260620117,-1.7057230472564697
1772408827772168400,2.47416845703125,0.7554939985275269,0.9923170208930969,-1.9965779781341553
1772408827792227300,2.494227294921875,1.7707949876785278,0.5370540022850037,-2.19726300239563
1772408827812286000,2.514285888671875,1.9094359874725342,0.2552430033683777,-2.404210090637207
1772408827832344800,2.5343447265625,1.5907490253448486,-0.11260499805212021,-2.0073680877685547
1772408827852403500,2.554403564453125,0.7821990251541138,-0.9556840062141418,-1.165094017982483
1772408827872462000,2.574462158203125,0.635358989238739,-2.98134708404541,-0.05207499861717224
1772408827892521000,2.59452099609375,1.743487000465393,-6.609877109527588,1.6759389638900757
1772408827912579600,2.61457958984375,3.493989944458008,-11.959102630615234,5.17595100402832
1772408827932638500,2.634638427734375,7.294392108917236,-17.525680541992188,7.444760799407959
1772408827952697000,2.654697021484375,12.397913932800293,-18.707746505737305,5.921408176422119
1772408827972756000,2.674755859375,10.479131698608398,-13.174997329711914,3.9875268936157227
1772408827992814600,2.694814697265625,3.4337050914764404,-6.680797100067139,3.581221103668213
1772408828012873500,2.71487353515625,-2.4930360317230225,-0.6974369883537292,0.0033770001027733088
1772408828032932000,2.73493212890625,-4.137628078460693,5.18044900894165,-3.098098039627075
1772408828052991000,2.754990966796875,-4.254103183746338,9.874759674072266,-3.0072779655456543
1772408828073049300,2.77504931640625,-5.650483131408691,12.230207443237305,-2.246622085571289
1772408828093108200,2.795108154296875,-6.678785800933838,12.16976547241211,-2.0524981021881104
1772408828113167000,2.8151669921875,-6.920629024505615,11.015812873840332,-2.158798933029175
1772408828133225700,2.835225830078125,-6.892502784729004,9.245450019836426,-1.8590389490127563
1772408828153284600,2.85528466796875,-5.9204020500183105,7.032360076904297,-1.5392309427261353
1772408828173343200,2.87534326171875,-3.9011220932006836,4.881087779998779,-1.2465850114822388
1772408828193401900,2.89540185546875,-1.7704969644546509,3.1976699829101562,-1.1660679578781128
1772408828213460700,2.915460693359375,-0.08039800077676773,2.0181360244750977,-1.2184540033340454
1772408828233519600,2.93551953125,0.8300809860229492,0.9401090145111084,-1.4395630359649658
1772408828253578200,2.955578125,1.5376650094985962,0.2160869985818863,-1.4868500232696533
1772408828273636900,2.975636962890625,2.0197319984436035,-0.2207300066947937,-1.2182799577713013
1772408828293695700,2.99569580078125,1.9125850200653076,-0.6709840297698975,-0.9458240270614624
1772408828313754400,3.01575439453125,1.9068679809570312,-1.687986969947815,-0.5350589752197266
1772408828333813000,3.03581298828125,2.0334949493408203,-3.6583900451660156,0.3919520080089569
1772408828353872000,3.055871826171875,2.0099949836730957,-6.92191219329834,2.05436110496521
1772408828373930500,3.075930419921875,3.1823959350585938,-11.025529861450195,4.329089164733887
1772408828393989400,3.0959892578125,5.809116840362549,-14.179622650146484,5.33847188949585
1772408828414048000,3.116048095703125,6.835293769836426,-15.735699653625488,5.78197717666626
1772408828434106600,3.136106689453125,5.52903413772583,-13.218158721923828,4.907182216644287
1772408828454165500,3.15616552734375,3.000027894973755,-8.157726287841797,3.435344934463501
1772408828474224000,3.17622412109375,1.9480220079421997,-2.095781087875366,0.5090759992599487
1772408828494283000,3.196282958984375,1.6352180242538452,4.341774940490723,-2.2223379611968994
1772408828514341600,3.216341552734375,-1.0190249681472778,9.387821197509766,-3.2738709449768066
1772408828534400500,3.236400390625,-4.7760210037231445,11.65505599975586,-3.4214959144592285
1772408828554459400,3.25645947265625,-6.964016914367676,11.286444664001465,-3.0627970695495605
1772408828574518000,3.27651806640625,-7.688813209533691,9.91235637664795,-2.7014379501342773
1772408828594577000,3.296576904296875,-7.344649791717529,8.414685249328613,-2.0291500091552734
1772408828614635300,3.31663525390625,-6.634119987487793,7.097348213195801,-1.1113200187683105
1772408828634694100,3.336694091796875,-5.6328959465026855,5.7106781005859375,-0.20745599269866943
1772408828654752800,3.356752685546875,-3.7303171157836914,3.7845420837402344,-0.3787649869918823
1772408828674811600,3.376811767578125,-1.2146530151367188,2.221234083175659,-1.1206109523773193
1772408828694870300,3.396870361328125,0.732276976108551,1.2945870161056519,-1.4404890537261963
1772408828714929200,3.41692919921875,1.8266210556030273,0.7636690139770508,-1.5907909870147705
1772408828734987500,3.436987548828125,2.1932969093322754,0.3821350038051605,-1.5526330471038818
1772408828755046400,3.45704638671875,2.022636890411377,-0.42069101333618164,-1.1637059450149536
1772408828775105300,3.477105224609375,1.8653099536895752,-2.029352903366089,-0.43656501173973083
1772408828795164000,3.497163818359375,2.532248020172119,-4.954681873321533,1.1635470390319824
1772408828815222500,3.517222412109375,4.11939811706543,-10.059745788574219,3.238837957382202
1772408828835281400,3.537281494140625,7.231517791748047,-14.713397026062012,3.3654699325561523
1772408828855340000,3.557340087890625,10.248414993286133,-14.904317855834961,3.448375940322876
1772408828875398700,3.577398681640625,9.121931076049805,-13.76025390625,4.4467010498046875
1772408828895457300,3.597457275390625,6.073544979095459,-10.133003234863281,2.94215989112854
1772408828915516200,3.61751611328125,3.9260358810424805,-5.103202819824219,0.12412799894809723
1772408828935575000,3.637574951171875,1.43202805519104,1.3918379545211792,-3.118295907974243
1772408828955633700,3.657633544921875,-1.1927770376205444,7.514269828796387,-3.831437110900879
1772408828975692300,3.6776923828125,-4.9598212242126465,10.841815948486328,-2.2667489051818848
1772408828995751200,3.697751220703125,-8.926257133483887,11.360651969909668,-0.6333990097045898
1772408829015810000,3.71781005859375,-12.021005630493164,10.773321151733398,0.09647999703884125
1772408829035868400,3.737868408203125,-11.169604301452637,9.361857414245605,-0.6316149830818176
1772408829055927300,3.75792724609375,-7.234883785247803,7.560685157775879,-0.7788919806480408
1772408829075986000,3.77798583984375,-3.129507064819336,5.864548206329346,-0.2823129892349243
1772408829096044800,3.798044921875,-0.9156050086021423,4.283638954162598,-0.1986510008573532
1772408829116103400,3.818103515625,-0.18768399953842163,2.702910900115967,-0.9789199829101562
1772408829136162300,3.838162353515625,0.38025200366973877,1.39192795753479,-1.3615360260009766
1772408829156221000,3.858220947265625,0.8026009798049927,0.8143429756164551,-1.4356290102005005
1772408829176279600,3.878279541015625,0.8236809968948364,0.6450740098953247,-1.3213030099868774
1772408829196338400,3.89833837890625,0.6549450159072876,0.48965901136398315,-1.1066420078277588
1772408829216397000,3.91839697265625,0.5455560088157654,0.07172700017690659,-0.9501140117645264
1772408829236455700,3.93845556640625,0.6468449831008911,-1.4882169961929321,-0.5152909755706787
1772408829256514600,3.9585146484375,1.4790749549865723,-5.000174045562744,1.3325660228729248
1772408829276573400,3.978573486328125,3.4320600032806396,-10.010539054870605,3.218852996826172
1772408829296631800,3.9986318359375,6.993648052215576,-14.906030654907227,3.370281934738159
1772408829316690700,4.018690673828125,9.967718124389648,-16.63442611694336,3.192225933074951
1772408829336749300,4.038749267578125,8.618176460266113,-15.766738891601562,3.1553800106048584
1772408829356808200,4.05880810546875,6.243340969085693,-11.36458969116211,1.1947050094604492
1772408829376866800,4.07886669921875,3.4738729000091553,-5.110073089599609,-1.0802359580993652
1772408829396925700,4.09892578125,0.6006979942321777,2.3839409351348877,-2.4561879634857178
1772408829416984300,4.118984375,-2.074640989303589,8.655153274536133,-2.1601510047912598
1772408829437043200,4.139043212890625,-4.631711959838867,12.497722625732422,-1.427320957183838
1772408829457101600,4.1591015625,-6.722168922424316,13.295778274536133,-0.8258559703826904
1772408829477160400,4.179160400390625,-7.428135871887207,11.998222351074219,-0.16628499329090118
1772408829497219300,4.19921923828125,-6.732108116149902,10.100977897644043,0.12377099692821503
1772408829517278000,4.21927783203125,-5.933685779571533,7.992782115936279,0.07581699639558792
1772408829537336600,4.239336669921875,-4.888548851013184,5.832625865936279,-0.13854500651359558
1772408829557395500,4.2593955078125,-3.3476390838623047,3.6909000873565674,-0.5012360215187073
1772408829577454300,4.279454345703125,-1.4461109638214111,1.7655199766159058,-1.1617889404296875
1772408829597512700,4.2995126953125,0.3127099871635437,0.5708159804344177,-1.7894309759140015
1772408829617571600,4.319571533203125,1.6509679555892944,0.17105300724506378,-2.1379449367523193
1772408829637630200,4.339630126953125,2.1711740493774414,-0.0871570035815239,-1.8671560287475586
1772408829657689000,4.359689208984375,2.148138999938965,-0.29612600803375244,-1.1937240362167358
1772408829677747700,4.379747802734375,1.3417119979858398,-0.9937000274658203,-0.33017900586128235
1772408829697806300,4.399806396484375,0.896569013595581,-3.1621599197387695,1.1702560186386108
1772408829717865000,4.419864990234375,-0.07714399695396423,-6.237728118896484,4.317005157470703
1772408829737923800,4.439923828125,-0.1209150031208992,-10.462182998657227,5.60640287399292
1772408829757982500,4.459982421875,4.566467761993408,-13.724946975708008,5.494722843170166
1772408829778041300,4.480041259765625,8.459574699401855,-17.507957458496094,5.163777828216553
1772408829798099700,4.500099609375,8.247658729553223,-15.561565399169922,1.6902220249176025
1772408829818158600,4.52015869140625,5.9933271408081055,-9.365253448486328,-0.7758209705352783
1772408829838217200,4.54021728515625,3.1986610889434814,-1.885802984237671,-2.173456907272339
1772408829858276000,4.560276123046875,0.1053289994597435,5.372957229614258,-2.932365894317627
1772408829878334700,4.580334716796875,-2.6237359046936035,10.550365447998047,-2.221092939376831
1772408829898393600,4.6003935546875,-4.842188835144043,13.01389217376709,-1.2960740327835083
1772408829918452200,4.6204521484375,-6.587350845336914,12.961514472961426,-0.5392590165138245
1772408829938510800,4.6405107421875,-7.795479774475098,11.671610832214355,-0.185807004570961
1772408829958569500,4.660569580078125,-7.626783847808838,9.739688873291016,-0.36304599046707153
1772408829978628400,4.68062841796875,-5.9406280517578125,7.374151229858398,-0.524836003780365
1772408829998687000,4.70068701171875,-3.944502115249634,4.945720195770264,-0.4926689863204956
1772408830018745900,4.720745849609375,-1.9644010066986084,2.7285759449005127,-0.9645349979400635
1772408830038804500,4.740804443359375,-0.23312099277973175,1.2844610214233398,-1.7372280359268188
1772408830058863000,4.760863037109375,1.2751020193099976,0.553167998790741,-2.1361820697784424
1772408830078922000,4.780921875,2.3360819816589355,0.35293498635292053,-2.155345916748047
1772408830098980600,4.800980712890625,2.6304659843444824,0.13834799826145172,-1.590675950050354
1772408830119039500,4.82103955078125,2.284372091293335,-0.5117210149765015,-0.871740996837616
1772408830139097900,4.841097900390625,1.3202979564666748,-2.232577085494995,-0.02539299987256527
1772408830159156700,4.86115673828125,1.1042380332946777,-5.49406099319458,2.0652849674224854
1772408830179215600,4.881215576171875,1.5193899869918823,-10.220048904418945,5.442628860473633
1772408830199274200,4.901274169921875,3.2115120887756348,-14.705639839172363,7.028501987457275
1772408830219333000,4.9213330078125,6.489209175109863,-17.927711486816406,7.128402233123779
1772408830239391700,4.941391845703125,7.248968124389648,-16.90937042236328,3.597121000289917
1772408830259450400,4.961450439453125,4.628774166107178,-10.556295394897461,0.9088969826698303
1772408830279509000,4.981509033203125,1.3302199840545654,-1.8354350328445435,-1.0272819995880127
1772408830299567900,5.00156787109375,-0.28862300515174866,6.091650009155273,-2.9498260021209717
1772408830319626500,5.02162646484375,-1.714898943901062,11.24612045288086,-4.250259876251221
1772408830339685400,5.041685302734375,-3.170319080352783,13.052895545959473,-4.191408157348633
1772408830359744000,5.061743896484375,-4.5458550453186035,12.408717155456543,-3.2243258953094482
1772408830379802600,5.081802734375,-5.518284797668457,10.95577335357666,-1.86906099319458
1772408830399861500,5.101861572265625,-5.813027858734131,9.161418914794922,-0.8904489874839783
1772408830419920100,5.121920166015625,-5.290421962738037,6.750734806060791,-0.5339589715003967
1772408830439979000,5.14197900390625,-3.803536891937256,4.55338716506958,-0.13756699860095978
1772408830460037600,5.16203759765625,-1.7404299974441528,2.838710069656372,-0.45885398983955383
1772408830480096300,5.18209619140625,-0.021144000813364983,1.592568039894104,-1.376682996749878
1772408830500155100,5.202155029296875,1.0382839441299438,0.9828540086746216,-1.9477460384368896
1772408830520213800,5.2222138671875,1.3722269535064697,0.7886829972267151,-1.76699697971344
1772408830540272600,5.242272705078125,1.1137820482254028,0.7645469903945923,-1.2351980209350586
1772408830560331300,5.262331298828125,0.6646249890327454,0.2660369873046875,-0.9657580256462097
1772408830580390000,5.282389892578125,-0.029099000617861748,-0.7447689771652222,-0.41260600090026855
1772408830600448500,5.302448486328125,-0.2128790020942688,-3.4134159088134766,0.6395140290260315
1772408830620507400,5.32250732421875,1.001695990562439,-7.3987321853637695,1.6932109594345093
1772408830640566000,5.34256591796875,3.327756881713867,-11.7949857711792,4.67936897277832
1772408830660625000,5.362625,5.477405071258545,-15.402388572692871,7.949894905090332
1772408830680683500,5.38268359375,6.460323810577393,-15.662711143493652,8.29671573638916
1772408830700742100,5.4027421875,6.6314592361450195,-13.07576847076416,6.993372917175293
1772408830720800800,5.42280078125,3.9739670753479004,-8.847814559936523,4.473897933959961
1772408830740859600,5.442859619140625,1.0607730150222778,-3.117449998855591,0.11831799894571304
1772408830760918000,5.46291796875,-0.3273810148239136,3.7980380058288574,-3.5941450595855713
1772408830780977000,5.482976806640625,-1.5275039672851562,9.323230743408203,-4.831315994262695
1772408830801035500,5.503035400390625,-3.3964040279388428,12.112184524536133,-5.2418532371521
1772408830821094400,5.523094482421875,-5.365922927856445,12.524147987365723,-4.764681816101074
1772408830841152800,5.54315283203125,-6.19753885269165,11.714517593383789,-3.384545087814331
1772408830861211600,5.563211669921875,-5.84683084487915,10.248414039611816,-1.828436017036438
1772408830881270300,5.583270263671875,-4.710264205932617,8.308330535888672,-0.6715490221977234
1772408830901329200,5.6033291015625,-3.507411003112793,5.905065059661865,-0.20363900065422058
1772408830921387500,5.623387451171875,-1.9251290559768677,3.425652027130127,-0.1781110018491745
1772408830941446400,5.6434462890625,-0.322503000497818,1.6389210224151611,-0.5696889758110046
1772408830961505300,5.66350537109375,0.8987969756126404,0.7655370235443115,-1.0341509580612183
1772408830981564000,5.68356396484375,1.6942369937896729,0.46842899918556213,-1.516921043395996
1772408831001622500,5.70362255859375,1.8353899717330933,0.2771430015563965,-1.8287359476089478
1772408831021681200,5.72368115234375,1.3483120203018188,-0.12548400461673737,-1.7197890281677246
1772408831041739800,5.74373974609375,1.0690490007400513,-1.4819879531860352,-0.6246309876441956
1772408831061798700,5.763798583984375,1.7552399635314941,-5.111989974975586,1.258694052696228
1772408831081857300,5.783857177734375,3.947391986846924,-10.322392463684082,3.772555112838745
1772408831101916000,5.803916015625,7.8659138679504395,-13.34831428527832,6.011643886566162
1772408831121974800,5.823974853515625,9.719931602478027,-13.343450546264648,7.502114772796631
1772408831142033400,5.844033447265625,6.281545162200928,-13.18756103515625,8.489692687988281
1772408831162092300,5.86409228515625,5.140436172485352,-9.98284912109375,6.031753063201904
1772408831182150700,5.884150634765625,4.453149795532227,-5.575078964233398,1.094202995300293
1772408831202209500,5.90420947265625,-0.3470799922943115,1.6159379482269287,-3.3750369548797607
1772408831222268400,5.924268310546875,-4.223264217376709,8.568750381469727,-4.756828784942627
1772408831242327000,5.9443271484375,-6.094611167907715,12.007000923156738,-4.849462985992432
1772408831262385700,5.9643857421875,-8.0156888961792,12.246400833129883,-5.044370174407959
1772408831282444300,5.9844443359375,-8.713351249694824,10.569120407104492,-4.895496845245361
1772408831302503000,6.0045029296875,-7.573880195617676,8.140896797180176,-4.011597156524658
1772408831322561500,6.0245615234375,-6.074304103851318,5.777516841888428,-2.8916780948638916
1772408831342620400,6.044620361328125,-4.428243160247803,3.595613956451416,-2.402941942214966
1772408831362679000,6.064678955078125,-1.985795021057129,2.001291036605835,-2.1887528896331787
1772408831382737700,6.084737548828125,0.2801640033721924,1.2394319772720337,-1.9838030338287354
1772408831402796300,6.10479638671875,1.180130958557129,0.9803460240364075,-1.9150420427322388
1772408831422855200,6.124855224609375,1.3233050107955933,0.937076985836029,-1.4112340211868286
1772408831442913800,6.144913818359375,0.9394429922103882,1.225661039352417,-0.378587007522583
1772408831462972700,6.16497265625,0.5299550294876099,1.2645289897918701,0.23152999579906464
1772408831483031300,6.18503125,0.6479640007019043,0.7012230157852173,0.44362398982048035
1772408831503090000,6.20508984375,1.1463710069656372,-0.8022210001945496,1.8372989892959595
1772408831523148500,6.2251484375,1.9762970209121704,-3.1145761013031006,3.289038896560669
1772408831543207200,6.245207275390625,4.2162370681762695,-6.992461204528809,4.221631050109863
1772408831563266000,6.26526611328125,7.319389820098877,-11.437969207763672,5.012505054473877
1772408831583324700,6.28532470703125,10.842711448669434,-13.308774948120117,4.458804130554199
1772408831603383300,6.30538330078125,11.321369171142578,-12.740620613098145,3.511043071746826
1772408831623442000,6.32544189453125,7.669896125793457,-8.406896591186523,1.9160339832305908
1772408831643500500,6.34550048828125,2.0335159301757812,-4.295116901397705,1.8896269798278809
1772408831663559400,6.365559326171875,-0.7675859928131104,-0.5056930184364319,0.8677020072937012
1772408831683618000,6.3856181640625,-2.119668960571289,3.4242451190948486,-1.0754380226135254
1772408831703676700,6.4056767578125,-4.292535781860352,6.792195796966553,-2.294750928878784
1772408831723735300,6.4257353515625,-6.843628883361816,8.601757049560547,-2.6446011066436768
1772408831743794000,6.4457939453125,-7.671702861785889,8.766205787658691,-2.3356809616088867
1772408831763852500,6.4658525390625,-6.900561809539795,8.351365089416504,-2.071743965148926
1772408831783911400,6.485911376953125,-5.388449192047119,7.6114912033081055,-2.4101951122283936
1772408831803970000,6.505969970703125,-3.9675590991973877,6.277193069458008,-2.5521559715270996
1772408831824029000,6.52602880859375,-2.33644700050354,4.925754070281982,-2.2889249324798584
1772408831844087300,6.54608740234375,-1.1139580011367798,3.492603063583374,-2.0591399669647217
1772408831864146200,6.566146240234375,-0.8911659717559814,2.3476829528808594,-1.9041119813919067
1772408831884204800,6.586204833984375,-0.6673330068588257,1.8149460554122925,-1.25688898563385
1772408831904263400,6.606263427734375,0.310932993888855,1.0975569486618042,-0.6743109822273254
1772408831924322000,6.626322021484375,0.515146017074585,0.38764500617980957,-0.531449019908905
1772408831944380700,6.646380615234375,1.1417169570922852,-1.1674829721450806,0.4060400128364563
1772408831964439600,6.666439453125,2.35577392578125,-4.2515869140625,2.14083194732666
1772408831984498200,6.686498291015625,4.26301908493042,-7.4076690673828125,3.2598659992218018
1772408832004556800,6.706556884765625,7.630415916442871,-9.994935989379883,3.4526920318603516
1772408832024615400,6.726615478515625,10.081932067871094,-10.556748390197754,3.9837539196014404
1772408832044674300,6.74667431640625,8.749545097351074,-9.48539924621582,4.5550031661987305
1772408832064733000,6.76673291015625,5.775636196136475,-5.3683180809021,2.3472020626068115
1772408832084791600,6.78679150390625,2.5733089447021484,-0.8618549704551697,1.0065619945526123
1772408832104850200,6.80685009765625,-0.902953028678894,2.9033150672912598,-0.5051500201225281
1772408832124908800,6.82690869140625,-4.529561996459961,4.854651927947998,-1.3441200256347656
1772408832144967700,6.8469677734375,-6.29164981842041,5.550121784210205,-2.10809588432312
1772408832165026300,6.8670263671875,-5.89971923828125,5.574497222900391,-1.7648769617080688
1772408832185085000,6.8870849609375,-4.788576126098633,5.127597808837891,-1.6383010149002075
1772408832205143800,6.907143798828125,-3.7732601165771484,3.8876779079437256,-2.0498409271240234
1772408832225202400,6.927202392578125,-2.3538079261779785,2.830142021179199,-1.659072995185852
1772408832245261300,6.94726123046875,-1.1054459810256958,2.0577139854431152,-1.294458031654358
1772408832265319700,6.967319580078125,-0.4403569996356964,1.1613709926605225,-0.9779660105705261
1772408832285378300,6.98737841796875,-0.9626860022544861,0.7186970114707947,-0.17757299542427063
1772408832305437200,7.007437255859375,-1.2645479440689087,0.11095699667930603,0.19314099848270416
1772408832325495800,7.027495849609375,-0.6212390065193176,-0.8920329809188843,0.28491300344467163
1772408832345554400,7.047554443359375,-0.10019099712371826,-1.285627007484436,0.6151300072669983
1772408832365613300,7.06761328125,0.45264700055122375,-1.2989020347595215,0.8193039894104004
1772408832385672000,7.087671875,0.9765170216560364,-1.2935210466384888,0.6650429964065552
1772408832405730600,7.10773046875,0.961214005947113,-0.7420160174369812,0.7432349920272827
1772408832425789400,7.12778955078125,0.9161710143089294,-0.27201300859451294,0.8529880046844482
1772408832445847800,7.147847900390625,1.1761369705200195,-0.3152109980583191,0.2511900067329407
1772408832465906700,7.16790673828125,0.7777090072631836,-0.3017680048942566,0.04015199840068817
1772408832485965300,7.18796533203125,0.1645669937133789,0.05538399890065193,0.2521210014820099
1772408832506024000,7.20802392578125,-0.3763450086116791,0.4579069912433624,-0.05270199850201607
1772408832526082600,7.22808251953125,-1.0690759420394897,0.8527259826660156,-0.3101620078086853
1772408832546141400,7.248141357421875,-1.958461046218872,1.3637809753417969,-0.49532899260520935
1772408832566199800,7.26819970703125,-2.3195691108703613,1.6542240381240845,-0.7274630069732666
1772408832586258700,7.2882587890625,-2.0396549701690674,1.6993789672851562,-0.7395709753036499
1772408832606317300,7.3083173828125,-0.6717240214347839,0.9531030058860779,-0.2812559902667999
1772408832626376000,7.3283759765625,0.1442199945449829,-0.29111599922180176,0.7541940212249756
1772408832646434600,7.3484345703125,0.4585759937763214,-3.040893077850342,2.9209558963775635
1772408832666493400,7.368493408203125,2.795660972595215,-6.263114929199219,4.587164878845215
1772408832686552000,7.388552001953125,5.695728778839111,-6.811291217803955,5.245731830596924
1772408832706610700,7.408610595703125,5.919783115386963,-5.540233135223389,5.780584812164307
1772408832726669300,7.42866943359375,4.255026817321777,-3.788986921310425,5.059668064117432
1772408832746728200,7.448728271484375,3.1192209720611572,-1.0887889862060547,1.1837340593338013
1772408832766786600,7.46878662109375,0.7025769948959351,2.5345680713653564,-2.925812005996704
1772408832786845200,7.48884521484375,-2.66353702545166,5.727654933929443,-5.845449924468994
1772408832806904000,7.508904052734375,-5.522830009460449,8.019723892211914,-6.543560028076172
1772408832826962700,7.528962646484375,-6.305463790893555,8.80617904663086,-5.453248023986816
1772408832847021300,7.549021240234375,-5.527571201324463,7.1081438064575195,-4.169797897338867
1772408832867080000,7.569079833984375,-3.2972569465637207,4.561714172363281,-3.2054390907287598
1772408832887138600,7.589138671875,-1.3258049488067627,2.7573719024658203,-2.160351037979126
1772408832907197200,7.609197265625,-0.10624399781227112,1.663496971130371,-1.3450809717178345
1772408832927256000,7.629256103515625,0.4718039929866791,0.9651970267295837,-0.5416640043258667
1772408832947314400,7.649314453125,0.3070429861545563,0.040157999843358994,-0.2533310055732727
1772408832967373300,7.669373291015625,-0.145565003156662,-1.0182729959487915,-0.35546499490737915
1772408832987432000,7.689431884765625,0.03154800087213516,-2.6554179191589355,1.0388269424438477
1772408833007490600,7.709490478515625,1.0860379934310913,-4.961134910583496,3.539062023162842
1772408833027549200,7.729549072265625,2.822429895401001,-7.479308128356934,5.75285005569458
1772408833047608000,7.749608154296875,5.343544006347656,-10.457846641540527,8.170280456542969
1772408833067666700,7.769666748046875,7.206035137176514,-12.630277633666992,10.830623626708984
1772408833087725300,7.789725341796875,7.940027236938477,-11.299421310424805,10.171699523925781
1772408833107784000,7.809783935546875,6.0672221183776855,-7.227537155151367,6.182158946990967
1772408833127842800,7.8298427734375,2.2137770652770996,-1.6580289602279663,1.1513270139694214
1772408833147901400,7.8499013671875,-1.561777949333191,4.0575761795043945,-3.283737897872925
1772408833167960000,7.8699599609375,-5.043022155761719,7.823660850524902,-6.028590202331543
1772408833188018700,7.890018798828125,-8.041617393493652,9.017328262329102,-6.688471794128418
1772408833208077600,7.91007763671875,-10.016493797302246,8.507463455200195,-6.645176887512207
1772408833228136000,7.930135986328125,-9.520395278930664,7.289169788360596,-6.070541858673096
1772408833248194600,7.950194580078125,-6.614716053009033,5.857736110687256,-4.891633033752441
1772408833268253400,7.97025341796875,-3.703773021697998,4.207788944244385,-3.9781060218811035
1772408833288312000,7.99031201171875,-1.6398179531097412,3.023030996322632,-2.9240849018096924
1772408833308370700,8.01037060546875,0.0761450007557869,2.4832239151000977,-1.4312679767608643
1772408833328429600,8.0304296875,0.7929159998893738,1.932979941368103,-0.905813992023468
1772408833348488200,8.05048828125,0.35273298621177673,1.2535829544067383,-1.4326510429382324
1772408833368546800,8.070546875,-0.057013001292943954,1.0892670154571533,-1.6309210062026978
1772408833388605400,8.09060546875,-0.08161000162363052,0.9074130058288574,-1.2415369749069214
1772408833408664300,8.110664306640626,-0.49088799953460693,0.6187310218811035,-0.9972289800643921
1772408833428723000,8.130722900390625,-0.16871100664138794,-0.3562150001525879,-0.09698300063610077
1772408833448781600,8.150781494140626,0.9626309871673584,-2.4761719703674316,2.0848119258880615
1772408833468840200,8.170840087890625,2.627703905105591,-5.4961371421813965,4.639050006866455
1772408833488898800,8.19089892578125,6.02696418762207,-8.154509544372559,7.335239887237549
1772408833508957700,8.210957763671875,8.868770599365234,-9.542008399963379,10.275392532348633
1772408833529016300,8.231016357421876,9.430216789245605,-10.680807113647461,11.365114212036133
1772408833549075000,8.251074951171875,10.080172538757324,-10.732645034790039,8.308891296386719
1772408833569133800,8.2711337890625,9.86413860321045,-9.031717300415039,3.5575129985809326
1772408833589192400,8.2911923828125,6.531311988830566,-3.697374105453491,-0.7547889947891235
1772408833609251000,8.3112509765625,1.754647970199585,2.5276999473571777,-3.5590310096740723
1772408833629310000,8.33131005859375,-3.2066810131073,6.785359859466553,-5.864025115966797
1772408833649368600,8.35136865234375,-7.353344917297363,8.785887718200684,-6.857619762420654
1772408833669427200,8.37142724609375,-9.57227611541748,9.31511116027832,-6.098896026611328
1772408833689486000,8.391486083984375,-9.844221115112305,9.08008861541748,-5.28391695022583
1772408833709544700,8.411544677734375,-8.264176368713379,8.001670837402344,-4.359132766723633
1772408833729603300,8.431603271484375,-5.260941028594971,6.086935997009277,-3.2457070350646973
1772408833749662000,8.451661865234374,-2.466352939605713,3.546349048614502,-2.525365114212036
1772408833769720800,8.471720947265625,-1.004281997680664,1.7618789672851562,-2.535491943359375
1772408833789779500,8.491779541015624,-0.02742600068449974,0.8719030022621155,-2.578794002532959
1772408833809838300,8.51183837890625,0.3780589997768402,0.6367220282554626,-2.533435106277466
1772408833829896700,8.531896728515624,0.10164699703454971,0.5581780076026917,-2.2067480087280273
1772408833849955600,8.55195556640625,-0.468282014131546,0.6001420021057129,-1.5965980291366577
1772408833870014500,8.572014404296874,-0.7538250088691711,0.5281140208244324,-1.070878028869629
1772408833890073000,8.592072998046875,-1.2198599576950073,0.5176910161972046,-0.6159030199050903
1772408833910131700,8.612131591796874,-1.2710880041122437,0.35895299911499023,0.036077000200748444
1772408833930190600,8.632190673828125,-0.5224699974060059,-0.49523699283599854,1.4368619918823242
1772408833950249200,8.652249267578124,0.6388229727745056,-2.616189956665039,4.148688793182373
1772408833970307800,8.672307861328125,3.001457929611206,-6.277751922607422,6.622951030731201
1772408833990366700,8.69236669921875,5.43476676940918,-8.08700180053711,8.642361640930176
1772408834010425300,8.71242529296875,7.1158127784729,-9.892801284790039,10.70828914642334
1772408834030484200,8.732484130859374,7.830249786376953,-12.511040687561035,12.528230667114258
1772408834050542600,8.75254248046875,8.089799880981445,-12.712830543518066,10.259384155273438
1772408834070601500,8.7726015625,6.193439960479736,-8.362265586853027,4.934707164764404
1772408834090660000,8.79266015625,2.2907519340515137,-1.2234129905700684,-0.287432998418808
1772408834110719000,8.812718994140624,-2.384998083114624,5.577269077301025,-3.5475471019744873
1772408834130777600,8.832777587890625,-6.654397964477539,9.217815399169922,-6.477237224578857
1772408834150836500,8.85283642578125,-9.193918228149414,10.635052680969238,-7.792190074920654
1772408834170894800,8.872894775390625,-9.331134796142578,10.270442008972168,-7.3041510581970215
1772408834190953700,8.89295361328125,-7.672107219696045,8.758753776550293,-5.870521068572998
1772408834211012400,8.913012451171875,-5.00968599319458,6.483802795410156,-4.548417091369629
1772408834231071200,8.9330712890625,-2.2949490547180176,4.210241794586182,-3.597132921218872
1772408834251130000,8.953130126953125,-0.09195899963378906,2.186594009399414,-3.280107021331787
1772408834271188700,8.973188720703124,1.0144319534301758,1.310075044631958,-3.380084991455078
1772408834291247400,8.993247314453125,1.248345971107483,1.2592600584030151,-2.771267890930176
1772408834311306000,9.013305908203124,0.9290760159492493,1.2866079807281494,-2.3818140029907227
1772408834331364600,9.033364501953125,0.41766101121902466,1.0772860050201416,-2.0142509937286377
1772408834351423500,9.053423583984374,-0.5522699952125549,0.9002289772033691,-1.6730010509490967
1772408834371482400,9.073482421875,-1.2386159896850586,0.9193829894065857,-1.2040009498596191
1772408834391541000,9.093541015625,-1.0524929761886597,0.34110599756240845,-0.7968000173568726
1772408834411600000,9.113599853515625,-1.061993956565857,-0.2751139998435974,-0.5726400017738342
1772408834431658500,9.133658447265624,-0.8247950077056885,-0.8688910007476807,0.489886999130249
1772408834451717400,9.15371728515625,0.7649629712104797,-2.5927131175994873,4.063910007476807
1772408834471776000,9.17377587890625,4.149570941925049,-5.177370071411133,7.386328220367432
1772408834491834600,9.193834716796875,8.089256286621094,-7.972296237945557,9.351462364196777
1772408834511893500,9.2138935546875,10.125805854797363,-9.783437728881836,10.785170555114746
1772408834531952000,9.2339521484375,9.092644691467285,-9.612350463867188,10.606535911560059
1772408834552011000,9.254010986328124,6.610116004943848,-9.032279968261719,8.922028541564941
1772408834572069600,9.274069580078125,3.278491973876953,-7.694623947143555,6.725624084472656
1772408834592128500,9.29412841796875,0.820393979549408,-4.625298976898193,2.597299098968506
1772408834612187100,9.314187255859375,-1.065284013748169,-0.43303799629211426,-1.6069589853286743
1772408834632245800,9.334245849609376,-3.378627061843872,3.9015679359436035,-4.315967082977295
1772408834652304600,9.3543046875,-5.767702102661133,6.946855068206787,-6.01517391204834
1772408834672363300,9.37436328125,-7.059762001037598,8.16788387298584,-7.428938865661621
1772408834692422100,9.394422119140625,-7.486208915710449,8.224706649780273,-7.440751075744629
1772408834712480800,9.414480712890626,-7.088167190551758,7.681365966796875,-7.263000965118408
1772408834732539600,9.43453955078125,-5.32413387298584,6.261892795562744,-6.1800007820129395
1772408834752598300,9.454598388671876,-2.6881070137023926,4.317513942718506,-4.9056010246276855
1772408834772657200,9.4746572265625,-1.1208850145339966,2.640410900115967,-3.8844799995422363
1772408834792715800,9.4947158203125,-0.24950799345970154,2.031528949737549,-2.585983991622925
1772408834812774400,9.5147744140625,0.27559301257133484,1.7956229448318481,-1.6575870513916016
1772408834832833000,9.5348330078125,0.19327400624752045,1.5708980560302734,-1.2972700595855713
1772408834852892000,9.554891845703125,-0.32778000831604004,1.0751179456710815,-1.6738159656524658
1772408834872950800,9.57495068359375,-1.034224033355713,0.7176949977874756,-1.704651951789856
1772408834893009400,9.595009521484375,-1.5465790033340454,0.5821560025215149,-1.4789220094680786
1772408834913068300,9.615068359375,-1.0940630435943604,0.35052400827407837,-0.9911370277404785
1772408834933127000,9.635126953125,-0.4088500142097473,-0.06518000364303589,-0.3833099901676178
1772408834953185800,9.655185791015626,-0.3038800060749054,-0.2433439940214157,0.4557510018348694
1772408834973244200,9.675244140625,0.4832949936389923,-0.9978749752044678,2.0998010635375977
1772408834993303000,9.695302978515626,3.156235933303833,-2.9870998859405518,4.587841033935547
1772408835013362000,9.71536181640625,6.569788932800293,-4.925680160522461,8.378273010253906
1772408835033420500,9.735420654296876,9.23823070526123,-7.77894401550293,10.86021900177002
1772408835053479400,9.7554794921875,11.42818546295166,-10.134355545043945,12.184174537658691
1772408835073538000,9.7755380859375,10.76254653930664,-9.889083862304688,11.974539756774902
1772408835093597000,9.795596923828125,6.748437881469727,-7.899267196655273,9.524431228637695
1772408835113655800,9.81565576171875,2.8299500942230225,-5.701014041900635,4.8515448570251465
1772408835133714400,9.83571435546875,-0.14563900232315063,-2.1472110748291016,-1.2307640314102173
1772408835153773000,9.85577294921875,-3.430111885070801,3.1510300636291504,-5.089410781860352
1772408835173832000,9.87583203125,-5.568889141082764,7.131224155426025,-6.507528781890869
1772408835193890600,9.895890625,-6.157511234283447,8.483379364013672,-8.063623428344727
1772408835213949400,9.915949462890625,-6.416409015655518,8.182703971862793,-8.63809871673584
1772408835234008000,9.936008056640626,-5.734726905822754,7.12056303024292,-7.9256792068481445
1772408835254067000,9.95606689453125,-4.917381763458252,5.671649932861328,-6.138143062591553
1772408835274125600,9.97612548828125,-4.4979047775268555,3.949320077896118,-4.439314842224121
1772408835294184400,9.996184326171875,-2.6911239624023438,2.560256004333496,-2.984251022338867
1772408835314243000,10.0162431640625,-0.013698999769985676,1.3410049676895142,-2.4586009979248047
