time,seconds_elapsed,z,y,x
1772408825505532200,0.2075322265625,7.812000274658203,-5.296950340270996,3.088050127029419
1772408825525590800,0.2275908203125,8.131050109863281,-5.271000385284424,2.431950092315674
1772408825545649700,0.247649658203125,7.615950584411621,-5.17995023727417,2.3430001735687256
1772408825565708300,0.267708251953125,6.13200044631958,-4.849050045013428,2.688000202178955
1772408825585767200,0.28776708984375,5.19795036315918,-4.621950149536133,2.809950113296509
1772408825605825800,0.30782568359375,6.3949503898620605,-4.413000106811523,1.4620500802993774
1772408825625884400,0.327884521484375,6.01200008392334,-4.420950412750244,1.7299500703811646
1772408825645943000,0.347943115234375,5.038050174713135,-4.23105001449585,2.080049991607666
1772408825666002000,0.368001953125,4.338000297546387,-3.8869502544403076,2.956050157546997
1772408825686060500,0.388060546875,4.069950103759766,-3.7549502849578857,3.5620501041412354
1772408825706119400,0.408119384765625,4.651950359344482,-4.738950252532959,3.8230502605438232
1772408825726177800,0.428177734375,6.457050323486328,-7.219050407409668,4.584000110626221
1772408825746236700,0.448236572265625,9.265950202941895,-10.750950813293457,5.47005033493042
1772408825766295600,0.468295654296875,11.836950302124023,-13.951951026916504,6.394050121307373
1772408825786354200,0.488354248046875,12.895051002502441,-16.483051300048828,7.464000225067139
1772408825806413000,0.5084130859375,13.113000869750977,-20.359050750732422,8.713950157165527
1772408825826471700,0.5284716796875,13.522950172424316,-20.77800178527832,7.8259501457214355
1772408825846530600,0.548530517578125,12.390000343322754,-17.320951461791992,6.612000465393066
1772408825866589000,0.5685888671875,9.562950134277344,-12.469950675964355,5.767050266265869
1772408825886647800,0.588647705078125,5.8999505043029785,-7.420950412750244,5.115000247955322
1772408825906706400,0.60870654296875,2.8950002193450928,-3.2809500694274902,3.7990500926971436
1772408825926765300,0.628765380859375,1.2120000123977661,-0.3720000088214874,2.63700008392334
1772408825946824000,0.648823974609375,0.003000000026077032,1.2360000610351562,1.8550500869750977
1772408825966882600,0.668882568359375,0.42900002002716064,2.2009501457214355,1.4020500183105469
1772408825986941200,0.688941162109375,1.072950005531311,2.7799501419067383,0.9259500503540039
1772408826007000000,0.709,1.4940000772476196,2.8570501804351807,0.7249500155448914
1772408826027058700,0.72905859375,1.6909500360488892,2.6920502185821533,0.6289500594139099
1772408826047117600,0.74911767578125,1.6210501194000244,1.675950050354004,0.5779500007629395
1772408826067176200,0.76917626953125,2.0020501613616943,0.9769500494003296,0.781950056552887
1772408826087235000,0.789235107421875,2.335050106048584,-0.06795000284910202,1.371000051498413
1772408826107293700,0.809293701171875,2.7769501209259033,-2.335050106048584,2.1540000438690186
1772408826127352600,0.8293525390625,4.879950046539307,-7.734000205993652,3.9660000801086426
1772408826147411200,0.8494111328125,7.723950386047363,-14.749051094055176,7.728000164031982
1772408826167469800,0.8694697265625,12.463950157165527,-20.476051330566406,9.181050300598145
1772408826187528400,0.889528564453125,14.815950393676758,-22.875001907348633,9.550050735473633
1772408826207587300,0.90958740234375,13.240050315856934,-26.22705078125,12.267000198364258
1772408826227646200,0.929646240234375,11.623950958251953,-26.38500213623047,11.755050659179688
1772408826247704600,0.94970458984375,14.65005111694336,-23.068950653076172,8.414999961853027
1772408826267763500,0.969763427734375,13.168050765991211,-16.570951461791992,5.356950283050537
1772408826287822000,0.989822021484375,8.299050331115723,-8.824049949645996,4.0759501457214355
1772408826307881000,1.009880859375,3.5029501914978027,-2.9359500408172607,3.7680001258850098
1772408826327939600,1.029939697265625,1.0780500173568726,0.5080500245094299,3.712050199508667
1772408826347998500,1.04999853515625,-0.89205002784729,2.1720001697540283,3.5020501613616943
1772408826368057000,1.07005712890625,-2.0050501823425293,2.763000249862671,2.9200501441955566
1772408826388116000,1.090115966796875,-1.8570001125335693,3.0049500465393066,2.1250500679016113
1772408826408174600,1.110174560546875,-1.0909500122070312,3.1270501613616943,2.158950090408325
1772408826428233200,1.130233154296875,-1.024049997329712,2.5380001068115234,3.0180001258850098
1772408826448291800,1.150291748046875,-0.17595000565052032,1.8580501079559326,2.737950086593628
1772408826468350700,1.170350830078125,1.374000072479248,0.9750000238418579,1.1119500398635864
1772408826488409300,1.190409423828125,2.1499500274658203,0.24495001137256622,0.9949500560760498
1772408826508468200,1.21046826171875,2.842050075531006,0.09105000644922256,1.6579500436782837
1772408826528526800,1.23052685546875,3.5080502033233643,-1.311000108718872,2.0530500411987305
1772408826548585500,1.25058544921875,4.540050029754639,-4.401000022888184,2.4079501628875732
1772408826568644000,1.27064404296875,6.718050479888916,-10.741050720214844,4.5169501304626465
1772408826588703000,1.290702880859375,10.008000373840332,-18.385950088500977,7.368000507354736
1772408826608761900,1.310761962890625,14.803950309753418,-23.623950958251953,8.86500072479248
1772408826628820500,1.330820556640625,17.215051651000977,-27.39495086669922,10.644000053405762
1772408826648879400,1.35087939453125,17.05695152282715,-27.726001739501953,11.269050598144531
1772408826668938000,1.37093798828125,15.984001159667969,-25.423051834106445,9.619050025939941
1772408826688996900,1.390996826171875,14.017951011657715,-18.858001708984375,6.157050132751465
1772408826709055500,1.411055419921875,11.350950241088867,-10.416000366210938,4.174950122833252
1772408826729114000,1.431114013671875,7.300050258636475,-3.640050172805786,3.3030002117156982
1772408826749173000,1.451173095703125,2.713050127029419,0.05595000088214874,3.126000165939331
1772408826769231600,1.471231689453125,-0.7290000319480896,2.1409502029418945,2.608950138092041
1772408826789290200,1.491290283203125,-3.633000135421753,3.181950092315674,2.0460000038146973
1772408826809349000,1.51134912109375,-5.28000020980835,3.475050210952759,1.8829500675201416
1772408826829407700,1.53140771484375,-5.103000164031982,3.0840001106262207,1.9140000343322754
1772408826849466600,1.551466552734375,-2.757000207901001,1.9519500732421875,2.3140501976013184
1772408826869525500,1.571525390625,-0.06105000153183937,0.778950035572052,2.287950038909912
1772408826889583900,1.591583984375,1.746000051498413,0.012000000104308128,1.9579501152038574
1772408826909642800,1.611642822265625,3.3450002670288086,-0.49605002999305725,1.7130000591278076
1772408826929701400,1.631701416015625,4.40595006942749,-0.7570500373840332,1.371000051498413
1772408826949760300,1.65176025390625,4.2330002784729,-1.1790000200271606,1.2130500078201294
1772408826969819000,1.67181884765625,4.353000164031982,-2.5909500122070312,1.8829500675201416
1772408826989877800,1.691877685546875,4.756950378417969,-6.29295015335083,3.733950138092041
1772408827009936400,1.711936279296875,5.626950263977051,-12.556050300598145,6.601950168609619
1772408827029995300,1.731995361328125,8.449049949645996,-19.58100128173828,8.842950820922852
1772408827050054000,1.752053955078125,13.47705078125,-25.42005157470703,10.609950065612793
1772408827070112500,1.772112548828125,18.402000427246094,-28.66200065612793,11.395051002502441
1772408827090171100,1.792171142578125,17.374950408935547,-27.958051681518555,10.56705093383789
1772408827110230000,1.81222998046875,13.446001052856445,-23.689050674438477,8.970000267028809
1772408827130289000,1.832288818359375,12.03600025177002,-16.509000778198242,6.1620001792907715
1772408827150347500,1.852347412109375,10.234950065612793,-8.67495059967041,4.01894998550415
1772408827170406400,1.872406494140625,7.219050407409668,-2.4049501419067383,3.406050205230713
1772408827190465000,1.892465087890625,3.891000270843506,1.702950119972229,4.174950122833252
1772408827210524000,1.91252392578125,0.19395001232624054,3.5059502124786377,4.255949974060059
1772408827230582500,1.93258251953125,-2.407050132751465,3.9130501747131348,2.949000120162964
1772408827250641400,1.952641357421875,-2.617950201034546,3.724050283432007,2.7330000400543213
1772408827270700000,1.972699951171875,-1.9330500364303589,3.1579501628875732,3.175950050354004
1772408827290758700,1.992758544921875,-1.1959500312805176,2.6269500255584717,3.1620001792907715
1772408827310817500,2.012817626953125,-0.4900500178337097,1.7239500284194946,2.3329501152038574
1772408827330876200,2.032876220703125,0.17295001447200775,0.6760500073432922,0.6550500392913818
1772408827350935000,2.05293505859375,1.0420500040054321,-0.025050001218914986,-0.7780500650405884
1772408827370993700,2.07299365234375,1.4940000772476196,-0.45795002579689026,-1.0870500802993774
1772408827391052500,2.093052490234375,1.225950002670288,-0.8130000233650208,-0.5410500168800354
1772408827411111200,2.113111083984375,0.8880000710487366,-2.2230000495910645,0.6739500164985657
1772408827431170000,2.133170166015625,2.1670501232147217,-6.796050548553467,2.628000020980835
1772408827451228700,2.153228759765625,6.2059502601623535,-14.236950874328613,5.5320000648498535
1772408827471287600,2.17328759765625,13.635000228881836,-23.14605140686035,9.25005054473877
1772408827491346200,2.19334619140625,20.527950286865234,-29.244001388549805,11.218050956726074
1772408827511404800,2.21340478515625,19.28295135498047,-31.011001586914062,11.242050170898438
1772408827531463700,2.233463623046875,15.36405086517334,-29.184001922607422,10.723050117492676
1772408827551522600,2.2535224609375,13.183050155639648,-23.658000946044922,10.273050308227539
1772408827571581200,2.273581298828125,11.518950462341309,-15.606000900268555,9.304950714111328
1772408827591640000,2.29364013671875,8.964000701904297,-8.347050666809082,6.337050437927246
1772408827611698700,2.31369873046875,5.308050155639648,-2.1100502014160156,3.835050106048584
1772408827631757600,2.333757568359375,2.136000156402588,2.221950054168701,3.7290000915527344
1772408827651816200,2.353816162109375,0.0070500001311302185,4.468050003051758,3.8989500999450684
1772408827671875000,2.373875,-1.3540500402450562,5.128950119018555,3.322050094604492
1772408827691933400,2.393933349609375,-2.1820499897003174,4.738950252532959,2.4649500846862793
1772408827711992300,2.413992431640625,-2.227950096130371,3.89805006980896,2.416950225830078
1772408827732051000,2.434051025390625,-1.1380500793457031,2.8210501670837402,2.419950008392334
1772408827752109800,2.45410986328125,0.4549500346183777,1.6549500226974487,1.7899501323699951
1772408827772168400,2.47416845703125,2.4180002212524414,0.931950032711029,1.0000500679016113
1772408827792227300,2.494227294921875,3.876000165939331,0.6109500527381897,0.25005000829696655
1772408827812286000,2.514285888671875,4.4920501708984375,0.3930000066757202,-0.5580000281333923
1772408827832344800,2.5343447265625,4.570950031280518,-0.003000000026077032,-0.6630000472068787
1772408827852403500,2.554403564453125,3.95805025100708,-1.0849500894546509,-0.11205000430345535
1772408827872462000,2.574462158203125,3.970050096511841,-3.8560502529144287,0.9880500435829163
1772408827892521000,2.59452099609375,5.514000415802002,-9.136950492858887,3.135000228881836
1772408827912579600,2.61457958984375,8.13794994354248,-17.476051330566406,7.929000377655029
1772408827932638500,2.634638427734375,13.76205062866211,-27.42405128479004,12.058950424194336
1772408827952697000,2.654697021484375,21.964950561523438,-33.283050537109375,12.016050338745117
1772408827972756000,2.674755859375,22.666051864624023,-31.04400062561035,11.079000473022461
1772408827992814600,2.694814697265625,16.479000091552734,-26.220001220703125,11.568000793457031
1772408828012873500,2.71487353515625,9.928950309753418,-20.410951614379883,7.990950584411621
1772408828032932000,2.73493212890625,7.249950408935547,-13.237950325012207,4.114950180053711
1772408828052991000,2.754990966796875,6.070050239562988,-6.075000286102295,3.454050064086914
1772408828073049300,2.77504931640625,3.261000156402588,-0.6619500517845154,3.6529502868652344
1772408828093108200,2.795108154296875,0.5629500150680542,2.320050001144409,3.334050178527832
1772408828113167000,2.8151669921875,-1.4089500904083252,3.919950246810913,2.688000202178955
1772408828133225700,2.835225830078125,-3.103950262069702,4.461000442504883,2.5230000019073486
1772408828153284600,2.85528466796875,-3.6120002269744873,4.006050109863281,2.458050012588501
1772408828173343200,2.87534326171875,-2.568000078201294,3.075000047683716,2.439000129699707
1772408828193401900,2.89540185546875,-0.8800500631332397,2.1910500526428223,2.227950096130371
1772408828213460700,2.915460693359375,0.7900500297546387,1.516050100326538,1.8709501028060913
1772408828233519600,2.93551953125,1.908000111579895,0.673050045967102,1.290000081062317
1772408828253578200,2.955578125,3.000000238418579,0.003000000026077032,0.8710500597953796
1772408828273636900,2.975636962890625,3.9870002269744873,-0.48900002241134644,0.8350500464439392
1772408828293695700,2.99569580078125,4.357950210571289,-1.1069999933242798,0.8710500597953796
1772408828313754400,3.01575439453125,4.82895040512085,-2.545950174331665,1.1479500532150269
1772408828333813000,3.03581298828125,5.46405029296875,-5.4310503005981445,2.1730501651763916
1772408828353872000,3.055871826171875,5.943000316619873,-10.425000190734863,4.348950386047363
1772408828373930500,3.075930419921875,7.9110002517700195,-17.284950256347656,7.7059502601623535
1772408828393989400,3.0959892578125,11.989950180053711,-23.983951568603516,10.050000190734863
1772408828414048000,3.116048095703125,14.725050926208496,-29.47395133972168,11.938950538635254
1772408828434106600,3.136106689453125,14.80095100402832,-30.261001586914062,12.291000366210938
1772408828454165500,3.15616552734375,13.021950721740723,-27.240001678466797,11.677950859069824
1772408828474224000,3.17622412109375,12.457050323486328,-21.702001571655273,8.878950119018555
1772408828494283000,3.196282958984375,12.553050994873047,-14.17905044555664,5.592000484466553
1772408828514341600,3.216341552734375,9.643950462341309,-6.7860002517700195,3.7219502925872803
1772408828534400500,3.236400390625,4.693050384521484,-1.6050000190734863,2.719050168991089
1772408828554459400,3.25645947265625,0.7639500498771667,0.8479500412940979,2.311950206756592
1772408828574518000,3.27651806640625,-1.8829500675201416,1.9519500732421875,1.998000144958496
1772408828594577000,3.296576904296875,-3.375000238418579,2.557950019836426,2.1630001068115234
1772408828614635300,3.31663525390625,-4.323000431060791,3.015000104904175,2.8030500411987305
1772408828634694100,3.336694091796875,-4.729950428009033,3.055950164794922,3.655050277709961
1772408828654752800,3.356752685546875,-3.7600502967834473,2.076000213623047,3.3889501094818115
1772408828674811600,3.376811767578125,-1.5480000972747803,1.068000078201294,2.367000102996826
1772408828694870300,3.396870361328125,0.5820000171661377,0.4650000333786011,1.6870501041412354
1772408828714929200,3.41692919921875,2.133000135421753,0.12495000660419464,1.1389501094818115
1772408828734987500,3.436987548828125,3.0480000972747803,-0.16095000505447388,0.7890000343322754
1772408828755046400,3.45704638671875,3.3829500675201416,-1.0690500736236572,0.8869500160217285
1772408828775105300,3.477105224609375,3.6919500827789307,-3.184950113296509,1.5049500465393066
1772408828795164000,3.497163818359375,4.992000102996826,-7.348950386047363,3.3960001468658447
1772408828815222500,3.517222412109375,7.609050273895264,-14.968950271606445,6.28095006942749
1772408828835281400,3.537281494140625,12.529050827026367,-23.301000595092773,7.249050140380859
1772408828855340000,3.557340087890625,18.108001708984375,-27.21795082092285,8.194050788879395
1772408828875398700,3.577398681640625,19.261951446533203,-29.514001846313477,10.303950309753418
1772408828895457300,3.597457275390625,17.731950759887695,-28.42005157470703,9.535050392150879
1772408828915516200,3.61751611328125,16.56599998474121,-24.666000366210938,6.748050212860107
1772408828935575000,3.637574951171875,14.430000305175781,-17.822999954223633,2.725950241088867
1772408828955633700,3.657633544921875,11.506950378417969,-9.822000503540039,1.0549499988555908
1772408828975692300,3.6776923828125,6.499950408935547,-3.784050226211548,2.0530500411987305
1772408828995751200,3.697751220703125,0.30195000767707825,-0.4249500334262848,3.5280001163482666
1772408829015810000,3.71781005859375,-5.797950267791748,1.6810500621795654,4.282050132751465
1772408829035868400,3.737868408203125,-7.738950252532959,2.6100001335144043,3.3960001468658447
1772408829055927300,3.75792724609375,-5.613000392913818,2.6989500522613525,3.05400013923645
1772408829075986000,3.77798583984375,-2.2900500297546387,2.4690001010894775,3.4800002574920654
1772408829096044800,3.798044921875,-0.3049500286579132,1.9590001106262207,3.514050245285034
1772408829116103400,3.818103515625,0.37605002522468567,1.054050087928772,2.48895001411438
1772408829136162300,3.838162353515625,1.0390501022338867,0.09105000644922256,1.765950083732605
1772408829156221000,3.858220947265625,1.662000060081482,-0.283050000667572,1.333050012588501
1772408829176279600,3.878279541015625,1.8889501094818115,-0.29100000858306885,1.117050051689148
1772408829196338400,3.89833837890625,1.8840000629425049,-0.3240000009536743,1.0549499988555908
1772408829216397000,3.91839697265625,1.91100013256073,-0.7240500450134277,0.9739500284194946
1772408829236455700,3.93845556640625,2.1739501953125,-2.656050205230713,1.2799500226974487
1772408829256514600,3.9585146484375,3.3760502338409424,-7.41795015335083,3.4609501361846924
1772408829276573400,3.978573486328125,6.1870503425598145,-14.931000709533691,6.151950359344482
1772408829296631800,3.9986318359375,11.497050285339355,-23.553001403808594,7.146000385284424
1772408829316690700,4.018690673828125,16.963050842285156,-29.440052032470703,7.7659502029418945
1772408829336749300,4.038749267578125,17.7679500579834,-32.513999938964844,8.518050193786621
1772408829356808200,4.05880810546875,16.954050064086914,-30.952951431274414,6.856050491333008
1772408829376866800,4.07886669921875,15.052950859069824,-25.9759521484375,4.311000347137451
1772408829396925700,4.09892578125,12.330000877380371,-17.886001586914062,2.3209500312805176
1772408829416984300,4.118984375,9.1360502243042,-9.451050758361816,2.07705020904541
1772408829437043200,4.139043212890625,5.4210004806518555,-2.4840002059936523,2.4529500007629395
1772408829457101600,4.1591015625,1.6500000953674316,1.6380001306533813,2.848050117492676
1772408829477160400,4.179160400390625,-0.9130500555038452,3.340050220489502,3.466050148010254
1772408829497219300,4.19921923828125,-1.9000500440597534,3.9679501056671143,3.787050247192383
1772408829517278000,4.21927783203125,-2.5849502086639404,3.8580002784729004,3.7579500675201416
1772408829537336600,4.239336669921875,-2.7619500160217285,3.1560001373291016,3.5089502334594727
1772408829557395500,4.2593955078125,-2.058000087738037,1.9369500875473022,3.0210001468658447
1772408829577454300,4.279454345703125,-0.5179499983787537,0.453000009059906,2.070000171661377
1772408829597512700,4.2995126953125,1.3189500570297241,-0.5989500284194946,0.9949500560760498
1772408829617571600,4.319571533203125,3.0700502395629883,-0.9559500217437744,0.11205000430345535
1772408829637630200,4.339630126953125,4.132950305938721,-1.2360000610351562,-0.08400000631809235
1772408829657689000,4.359689208984375,4.647000312805176,-1.519050121307373,0.29100000858306885
1772408829677747700,4.379747802734375,4.176000118255615,-2.4649500846862793,1.0720500946044922
1772408829697806300,4.399806396484375,3.955050230026245,-5.424000263214111,2.8650002479553223
1772408829717865000,4.419864990234375,2.962050199508667,-10.059000015258789,7.0909504890441895
1772408829737923800,4.439923828125,2.8879501819610596,-16.89900016784668,9.781949996948242
1772408829757982500,4.459982421875,8.716950416564941,-23.59305191040039,11.044050216674805
1772408829778041300,4.480041259765625,14.725050926208496,-31.7530517578125,12.004050254821777
1772408829798099700,4.500099609375,16.575000762939453,-33.697052001953125,8.95305061340332
1772408829818158600,4.52015869140625,15.819001197814941,-29.842050552368164,6.29295015335083
1772408829838217200,4.54021728515625,13.824000358581543,-22.83405113220215,4.351950168609619
1772408829858276000,4.560276123046875,10.756950378417969,-14.232000350952148,2.8600502014160156
1772408829878334700,4.580334716796875,7.3720502853393555,-6.4170002937316895,3.016050100326538
1772408829898393600,4.6003935546875,3.9430501461029053,-0.7000500559806824,3.616950273513794
1772408829918452200,4.6204521484375,0.5509500503540039,2.4880502223968506,4.23900032043457
1772408829938510800,4.6405107421875,-2.605950117111206,4.116000175476074,4.546050071716309
1772408829958569500,4.660569580078125,-4.344000339508057,4.618950366973877,4.278000354766846
1772408829978628400,4.68062841796875,-4.14300012588501,4.096950054168701,3.9850502014160156
1772408829998687000,4.70068701171875,-3.1330502033233643,2.905050039291382,3.894000291824341
1772408830018745900,4.720745849609375,-1.6440000534057617,1.3699500560760498,3.1810500621795654
1772408830038804500,4.740804443359375,0.028950002044439316,0.24705001711845398,1.974000096321106
1772408830058863000,4.760863037109375,1.855950117111206,-0.3460500240325928,1.0410000085830688
1772408830078922000,4.780921875,3.501000165939331,-0.45795002579689026,0.4830000102519989
1772408830098980600,4.800980712890625,4.453050136566162,-0.6379500031471252,0.6499500274658203
1772408830119039500,4.82103955078125,4.6780500411987305,-1.4160000085830688,1.1509500741958618
1772408830139097900,4.841097900390625,4.044000148773193,-3.6949501037597656,1.990950107574463
1772408830159156700,4.86115673828125,4.104000091552734,-8.329950332641602,4.597949981689453
1772408830179215600,4.881215576171875,4.89900016784668,-15.610950469970703,9.336000442504883
1772408830199274200,4.901274169921875,7.393950462341309,-23.77305030822754,12.67905044555664
1772408830219333000,4.9213330078125,12.294000625610352,-31.47705078125,14.56095027923584
1772408830239391700,4.941391845703125,14.866050720214844,-34.68600082397461,11.92905044555664
1772408830259450400,4.961450439453125,13.402950286865234,-30.972002029418945,9.468000411987305
1772408830279509000,4.981509033203125,10.437000274658203,-22.71000099182129,7.27500057220459
1772408830299567900,5.00156787109375,8.746050834655762,-13.260000228881836,4.615050315856934
1772408830319626500,5.02162646484375,6.891000270843506,-5.293950080871582,2.2519500255584717
1772408830339685400,5.041685302734375,4.642950057983398,-0.22395001351833344,1.2630000114440918
1772408830359744000,5.061743896484375,2.1310501098632812,2.233950138092041,1.4239500761032104
1772408830379802600,5.081802734375,-0.22095000743865967,3.520050048828125,2.311950206756592
1772408830399861500,5.101861572265625,-1.9690500497817993,4.0159502029418945,3.0679502487182617
1772408830419920100,5.121920166015625,-2.7690000534057617,3.29295015335083,3.2910001277923584
1772408830439979000,5.14197900390625,-2.2330501079559326,2.233950138092041,3.6529502868652344
1772408830460037600,5.16203759765625,-0.6049500107765198,1.228950023651123,3.217050075531006
1772408830480096300,5.18209619140625,1.1089500188827515,0.38100001215934753,1.9549500942230225
1772408830500155100,5.202155029296875,2.4280500411987305,0.016950000077486038,0.8970000147819519
1772408830520213800,5.2222138671875,3.1050002574920654,0.019950000569224358,0.6360000371932983
1772408830540272600,5.242272705078125,3.1249501705169678,0.1870500147342682,0.8590500354766846
1772408830560331300,5.262331298828125,2.842050075531006,-0.24495001137256622,0.8869500160217285
1772408830580390000,5.282389892578125,2.1409502029418945,-1.4419500827789307,1.3369500637054443
1772408830600448500,5.302448486328125,1.9039500951766968,-4.963950157165527,2.5489501953125
1772408830620507400,5.32250732421875,3.369000196456909,-10.7989501953125,4.026000022888184
1772408830640566000,5.34256591796875,6.526950359344482,-18.144001007080078,8.182050704956055
1772408830660625000,5.362625,10.045950889587402,-25.602001190185547,13.440000534057617
1772408830680683500,5.38268359375,12.643950462341309,-29.77800178527832,15.861001014709473
1772408830700742100,5.4027421875,14.473051071166992,-30.460050582885742,16.30605125427246
1772408830720800800,5.42280078125,12.808950424194336,-28.44405174255371,14.905050277709961
1772408830740859600,5.442859619140625,10.16100025177002,-23.49300193786621,10.579050064086914
1772408830760918000,5.46291796875,8.690999984741211,-15.628050804138184,5.968050479888916
1772408830780977000,5.482976806640625,7.108950138092041,-7.7719502449035645,3.52305006980896
1772408830801035500,5.503035400390625,4.3909502029418945,-1.9549500942230225,1.8019500970840454
1772408830821094400,5.523094482421875,1.0800000429153442,1.588050127029419,1.0879501104354858
1772408830841152800,5.54315283203125,-1.300950050354004,3.7069501876831055,1.6219500303268433
1772408830861211600,5.563211669921875,-2.4120001792907715,4.803000450134277,2.7210001945495605
1772408830881270300,5.583270263671875,-2.4529500007629395,4.939950466156006,3.7099502086639404
1772408830901329200,5.6033291015625,-2.127000093460083,4.012950420379639,4.126950263977051
1772408830921387500,5.623387451171875,-1.0260000228881836,2.3899500370025635,4.108050346374512
1772408830941446400,5.6434462890625,0.49605002999305725,1.01295006275177,3.574050188064575
1772408830961505300,5.66350537109375,1.9420500993728638,0.33105000853538513,2.8510501384735107
1772408830981564000,5.68356396484375,3.160950183868408,0.15105000138282776,1.9890000820159912
1772408831001622500,5.70362255859375,3.7609500885009766,0.028950002044439316,1.2199500799179077
1772408831021681200,5.72368115234375,3.610950231552124,-0.4050000309944153,0.8989500403404236
1772408831041739800,5.74373974609375,3.598950147628784,-2.1319501399993896,1.8379501104354858
1772408831061798700,5.763798583984375,4.723950386047363,-7.039950370788574,4.036050319671631
1772408831081857300,5.783857177734375,7.903050422668457,-14.830950736999512,7.492950439453125
1772408831101916000,5.803916015625,13.78800106048584,-21.193950653076172,11.235000610351562
1772408831121974800,5.823974853515625,18.07200050354004,-24.525001525878906,14.601000785827637
1772408831142033400,5.844033447265625,16.204050064086914,-27.666000366210938,17.71095085144043
1772408831162092300,5.86409228515625,16.348051071166992,-26.956951141357422,16.761001586914062
1772408831182150700,5.884150634765625,16.774051666259766,-23.94300079345703,12.097050666809082
1772408831202209500,5.90420947265625,11.88705062866211,-16.348051071166992,6.784050464630127
1772408831222268400,5.924268310546875,6.955050468444824,-7.252950191497803,4.213050365447998
1772408831242327000,5.9443271484375,3.559950113296509,-0.8130000233650208,2.908050060272217
1772408831262385700,5.9643857421875,-0.364950031042099,2.4880502223968506,1.4520000219345093
1772408831282444300,5.9844443359375,-3.2410502433776855,3.453000068664551,0.3769500255584717
1772408831302503000,6.0045029296875,-3.994950294494629,3.06000018119812,0.2580000162124634
1772408831322561500,6.0245615234375,-4.014000415802002,2.1409502029418945,0.6550500392913818
1772408831342620400,6.044620361328125,-3.475050210952759,0.8580000400543213,0.5430000424385071
1772408831362679000,6.064678955078125,-1.5289500951766968,-0.23595000803470612,0.21000000834465027
1772408831382737700,6.084737548828125,0.8070000410079956,-0.6880500316619873,-0.08100000023841858
1772408831402796300,6.10479638671875,2.0020501613616943,-0.7020000219345093,-0.4909500181674957
1772408831422855200,6.124855224609375,2.4760501384735107,-0.5110500454902649,-0.34005001187324524
1772408831442913800,6.144913818359375,2.3269500732421875,0.08400000631809235,0.598050057888031
1772408831462972700,6.16497265625,2.0500500202178955,0.43905001878738403,1.2660000324249268
1772408831483031300,6.18503125,2.3299500942230225,0.05100000277161598,1.5889500379562378
1772408831503090000,6.20508984375,3.1150500774383545,-1.6530001163482666,3.4420502185821533
1772408831523148500,6.2251484375,4.438950061798096,-4.744050025939941,5.716050148010254
1772408831543207200,6.245207275390625,7.732950210571289,-10.369950294494629,7.704000473022461
1772408831563266000,6.26526611328125,12.666000366210938,-17.674951553344727,9.748050689697266
1772408831583324700,6.28532470703125,18.900001525878906,-22.873050689697266,10.309050559997559
1772408831603383300,6.30538330078125,22.209001541137695,-25.489952087402344,10.23900032043457
1772408831623442000,6.32544189453125,20.475000381469727,-23.257951736450195,9.123000144958496
1772408831643500500,6.34550048828125,15.34695053100586,-20.220001220703125,9.568950653076172
1772408831663559400,6.365559326171875,12.35400104522705,-16.5570011138916,8.764050483703613
1772408831683618000,6.3856181640625,10.47195053100586,-11.770950317382812,6.552000522613525
1772408831703676700,6.4056767578125,7.225950241088867,-6.705000400543213,4.759050369262695
1772408831723735300,6.4257353515625,2.9640002250671387,-2.745000123977661,3.7480502128601074
1772408831743794000,6.4457939453125,0.2179500162601471,-0.38895002007484436,3.4729502201080322
1772408831763852500,6.4658525390625,-0.736050009727478,1.284000039100647,3.2190001010894775
1772408831783911400,6.485911376953125,-0.5710500478744507,2.4469501972198486,2.278050184249878
1772408831803970000,6.505969970703125,-0.14205001294612885,2.682000160217285,1.4980500936508179
1772408831824029000,6.52602880859375,0.9049500226974487,2.562000036239624,1.1890500783920288
1772408831844087300,6.54608740234375,1.8490500450134277,2.0020501613616943,0.9040500521659851
1772408831864146200,6.566146240234375,1.8490500450134277,1.4440500736236572,0.583050012588501
1772408831884204800,6.586204833984375,1.9060500860214233,1.3650000095367432,0.9160500168800354
1772408831904263400,6.606263427734375,2.962050199508667,0.9220500588417053,1.3300501108169556
1772408831924322000,6.626322021484375,3.2950501441955566,0.30900001525878906,1.3399500846862793
1772408831944380700,6.646380615234375,4.207050323486328,-1.537950038909912,2.379000186920166
1772408831964439600,6.666439453125,6.010050296783447,-5.685000419616699,4.648950099945068
1772408831984498200,6.686498291015625,8.983050346374512,-10.693050384521484,6.58305025100708
1772408832004556800,6.706556884765625,14.257950782775879,-15.778950691223145,7.639050483703613
1772408832024615400,6.726615478515625,19.23000144958496,-18.979949951171875,9.166050910949707
1772408832044674300,6.74667431640625,20.08500099182129,-20.280000686645508,10.87605094909668
1772408832064733000,6.76673291015625,18.55500030517578,-17.505001068115234,9.255000114440918
1772408832084791600,6.78679150390625,15.996000289916992,-13.213950157165527,8.166000366210938
1772408832104850200,6.80685009765625,12.294000625610352,-8.722949981689453,6.528000354766846
1772408832124908800,6.82690869140625,7.534950256347656,-5.557950496673584,5.353050231933594
1772408832144967700,6.8469677734375,4.200000286102295,-3.475050210952759,4.062000274658203
1772408832165026300,6.8670263671875,3.117000102996826,-2.056950092315674,3.96405029296875
1772408832185085000,6.8870849609375,3.031050205230713,-1.2220500707626343,3.681000232696533
1772408832205143800,6.907143798828125,3.1030502319335938,-1.4899500608444214,2.757000207901001
1772408832225202400,6.927202392578125,3.9340500831604004,-1.8400501012802124,2.7330000400543213
1772408832245261300,6.94726123046875,4.906050205230713,-2.098050117492676,2.7739500999450684
1772408832265319700,6.967319580078125,5.461050033569336,-2.704050064086914,2.845950126647949
1772408832285378300,6.98737841796875,4.698000431060791,-2.9670002460479736,3.601950168609619
1772408832305437200,7.007437255859375,4.080000400543213,-3.5470502376556396,4.021049976348877
1772408832325495800,7.027495849609375,4.567950248718262,-4.773000240325928,4.183950424194336
1772408832345554400,7.047554443359375,5.064000129699707,-5.48805046081543,4.668000221252441
1772408832365613300,7.06761328125,5.7300004959106445,-5.826000213623047,5.07705020904541
1772408832385672000,7.087671875,6.498000144958496,-6.144000053405762,5.08905029296875
1772408832405730600,7.10773046875,6.723000526428223,-5.778000354766846,5.353050231933594
1772408832425789400,7.12778955078125,6.907050132751465,-5.37600040435791,5.676000118255615
1772408832445847800,7.147847900390625,7.461000442504883,-5.497950077056885,5.137050151824951
1772408832465906700,7.16790673828125,7.25700044631958,-5.5600504875183105,4.9360504150390625
1772408832485965300,7.18796533203125,6.6850504875183105,-5.188950061798096,5.211000442504883
1772408832506024000,7.20802392578125,6.049950122833252,-4.6720499992370605,4.89300012588501
1772408832526082600,7.22808251953125,5.089950084686279,-4.063950061798096,4.558050155639648
1772408832546141400,7.248141357421875,3.7110002040863037,-3.2119500637054443,4.249050140380859
1772408832566199800,7.26819970703125,2.770050048828125,-2.508000135421753,3.835050106048584
1772408832586258700,7.2882587890625,2.539950132369995,-2.0380501747131348,3.6379501819610596
1772408832606317300,7.3083173828125,3.739950180053711,-2.545950174331665,4.026000022888184
1772408832626376000,7.3283759765625,4.591950416564941,-3.862950086593628,5.250000476837158
1772408832646434600,7.3484345703125,5.0209503173828125,-7.372950553894043,8.146950721740723
1772408832666493400,7.368493408203125,8.056950569152832,-12.160950660705566,10.960050582885742
1772408832686552000,7.388552001953125,12.381000518798828,-14.41200065612793,12.930000305175781
1772408832706610700,7.408610595703125,14.085000991821289,-14.5260009765625,14.910000801086426
1772408832726669300,7.42866943359375,13.4839506149292,-13.722001075744629,15.45405101776123
1772408832746728200,7.448728271484375,13.128000259399414,-11.293950080871582,11.874000549316406
1772408832766786600,7.46878662109375,10.88700008392334,-7.03695011138916,7.033050537109375
1772408832786845200,7.48884521484375,6.8550004959106445,-2.4120001792907715,2.6520001888275146
1772408832806904000,7.508904052734375,2.614950180053711,1.8850500583648682,0.31800001859664917
1772408832826962700,7.528962646484375,0.2560500204563141,4.873050212860107,0.04500000178813934
1772408832847021300,7.549021240234375,-0.34800001978874207,4.9519500732421875,0.286050021648407
1772408832867080000,7.569079833984375,1.0579500198364258,3.5460002422332764,0.44895002245903015
1772408832887138600,7.589138671875,2.698050022125244,2.4310500621795654,0.9540000557899475
1772408832907197200,7.609197265625,3.891000270843506,1.7530500888824463,1.4329500198364258
1772408832927256000,7.629256103515625,4.587000370025635,1.2960000038146973,2.1010501384735107
1772408832947314400,7.649314453125,4.498950004577637,0.38100001215934753,2.326050043106079
1772408832967373300,7.669373291015625,4.009950160980225,-0.931950032711029,2.1349501609802246
1772408832987432000,7.689431884765625,4.195050239562988,-3.232950210571289,3.7890002727508545
1772408833007490600,7.709490478515625,5.521050453186035,-6.778950214385986,7.174050331115723
1772408833027549200,7.729549072265625,7.963050365447998,-11.1670503616333,10.825950622558594
1772408833047608000,7.749608154296875,11.820000648498535,-16.759950637817383,15.286050796508789
1772408833067666700,7.769666748046875,15.484050750732422,-22.090051651000977,20.65395164489746
1772408833087725300,7.789725341796875,18.202951431274414,-23.58405113220215,22.53795051574707
1772408833107784000,7.809783935546875,17.847000122070312,-21.31905174255371,20.09400177001953
1772408833127842800,7.8298427734375,14.547000885009766,-16.16400146484375,15.351000785827637
1772408833147901400,7.8499013671875,10.381050109863281,-9.433950424194336,10.095000267028809
1772408833167960000,7.8699599609375,5.638950347900391,-3.712050199508667,5.842950344085693
1772408833188018700,7.890018798828125,0.6300000548362732,-0.2639999985694885,3.511050224304199
1772408833208077600,7.91007763671875,-3.8490002155303955,1.3530000448226929,1.8930001258850098
1772408833228136000,7.930135986328125,-5.7330002784729,1.957050085067749,0.9499500393867493
1772408833248194600,7.950194580078125,-4.480950355529785,1.9900500774383545,0.906000018119812
1772408833268253400,7.97025341796875,-2.496000051498413,1.3920000791549683,0.8250000476837158
1772408833288312000,7.99031201171875,-0.8419500589370728,0.9630000591278076,1.1479500532150269
1772408833308370700,8.01037060546875,0.8929500579833984,1.0440000295639038,2.2829999923706055
1772408833328429600,8.0304296875,1.8079501390457153,0.9769500494003296,2.5819501876831055
1772408833348488200,8.05048828125,1.4560500383377075,0.6109500527381897,1.696950078010559
1772408833368546800,8.070546875,1.0320000648498535,0.7189500331878662,1.0909500122070312
1772408833388605400,8.09060546875,0.987000048160553,0.7639500498771667,1.1700000762939453
1772408833408664300,8.110664306640626,0.4549500346183777,0.6300000548362732,1.1650500297546387
1772408833428723000,8.130722900390625,0.7350000143051147,-0.4339500069618225,2.0410501956939697
1772408833448781600,8.150781494140626,2.1070501804351807,-3.172950267791748,4.744050025939941
1772408833468840200,8.170840087890625,4.429050445556641,-7.567050457000732,8.458050727844238
1772408833488898800,8.19089892578125,9.33495044708252,-12.26400089263916,12.98805046081543
1772408833508957700,8.210957763671875,14.394001007080078,-16.036951065063477,18.496950149536133
1772408833529016300,8.231016357421876,17.31300163269043,-19.846050262451172,22.428001403808594
1772408833549075000,8.251074951171875,20.48295021057129,-22.58100128173828,21.448951721191406
1772408833569133800,8.2711337890625,22.73295021057129,-23.137950897216797,17.587051391601562
1772408833589192400,8.2911923828125,21.033000946044922,-18.727951049804688,13.086000442504883
1772408833609251000,8.3112509765625,16.69500160217285,-11.871000289916992,9.391950607299805
1772408833629310000,8.33131005859375,10.932000160217285,-5.917050361633301,5.620950222015381
1772408833649368600,8.35136865234375,4.947000026702881,-1.7200500965118408,2.9130001068115234
1772408833669427200,8.37142724609375,0.3349500298500061,1.1380500793457031,2.1469500064849854
1772408833689486000,8.391486083984375,-2.39805006980896,3.172950267791748,1.6410000324249268
1772408833709544700,8.411544677734375,-2.884050130844116,4.095000267028809,1.4760000705718994
1772408833729603300,8.431603271484375,-1.1959500312805176,3.702000141143799,1.7779500484466553
1772408833749662000,8.451661865234374,0.9820500612258911,2.047950029373169,1.867050051689148
1772408833769720800,8.471720947265625,2.193000078201294,0.703950047492981,1.2229501008987427
1772408833789779500,8.491779541015624,3.1630501747131348,0.031950000673532486,0.5350500345230103
1772408833809838300,8.51183837890625,3.6630001068115234,-0.043950002640485764,-0.05295000225305557
1772408833829896700,8.531896728515624,3.412050247192383,0.016950000077486038,-0.2779500186443329
1772408833849955600,8.55195556640625,2.725050210952759,0.208950012922287,-0.06705000251531601
1772408833870014500,8.572014404296874,2.2510499954223633,0.2689500153064728,0.19095000624656677
1772408833890073000,8.592072998046875,1.4800500869750977,0.38805001974105835,0.492000013589859
1772408833910131700,8.612131591796874,1.111050009727478,0.31905001401901245,1.1530500650405884
1772408833930190600,8.632190673828125,1.7290500402450562,-0.6589500308036804,2.9130001068115234
1772408833950249200,8.652249267578124,3.049950122833252,-3.433950185775757,6.66195011138916
1772408833970307800,8.672307861328125,6.163050174713135,-8.665050506591797,10.7920503616333
1772408833990366700,8.69236669921875,9.955050468444824,-12.496050834655762,14.97195053100586
1772408834010425300,8.71242529296875,13.414950370788574,-16.77495002746582,19.714950561523438
1772408834030484200,8.732484130859374,16.087051391601562,-22.5210018157959,24.667051315307617
1772408834050542600,8.75254248046875,18.369001388549805,-25.900951385498047,24.963001251220703
1772408834070601500,8.7726015625,18.020999908447266,-23.641050338745117,20.872051239013672
1772408834090660000,8.79266015625,14.691000938415527,-16.807950973510742,15.577950477600098
1772408834110719000,8.812718994140624,9.418950080871582,-8.613000869750977,11.431050300598145
1772408834130777600,8.832777587890625,3.4860000610351562,-2.6680500507354736,6.88200044631958
1772408834150836500,8.85283642578125,-1.3519500494003296,1.4080500602722168,3.6190502643585205
1772408834170894800,8.872894775390625,-3.82200026512146,3.610950231552124,2.281050205230713
1772408834190953700,8.89295361328125,-4.081050395965576,4.288949966430664,2.247000217437744
1772408834211012400,8.913012451171875,-2.6710500717163086,3.6349501609802246,2.431950092315674
1772408834231071200,8.9330712890625,-0.5299500226974487,2.413950204849243,2.4840002059936523
1772408834251130000,8.953130126953125,1.6500000953674316,0.9370500445365906,1.9810501337051392
1772408834271188700,8.973188720703124,3.010050058364868,0.38805001974105835,1.0360500812530518
1772408834291247400,8.993247314453125,3.5560500621795654,0.6520500183105469,0.9520500302314758
1772408834311306000,9.013305908203124,3.469050168991089,1.0009500980377197,0.7459500432014465
1772408834331364600,9.033364501953125,3.061950206756592,1.0609500408172607,0.6100500226020813
1772408834351423500,9.053423583984374,1.954050064086914,1.1089500188827515,0.5329500436782837
1772408834371482400,9.073482421875,0.9580500721931458,1.3579500913619995,0.700950026512146
1772408834391541000,9.093541015625,0.8809500336647034,0.8650500178337097,0.909000039100647
1772408834411600000,9.113599853515625,0.6060000061988831,0.18000000715255737,0.9900000691413879
1772408834431658500,9.133658447265624,0.6370500326156616,-0.6310500502586365,2.1750001907348633
1772408834451717400,9.15371728515625,2.4180002212524414,-3.003000259399414,6.765000343322754
1772408834471776000,9.17377587890625,6.840000152587891,-6.88200044631958,11.934000968933105
1772408834491834600,9.193834716796875,12.802050590515137,-11.670001029968262,16.237051010131836
1772408834511893500,9.2138935546875,17.3700008392334,-15.927000999450684,20.367000579833984
1772408834531952000,9.2339521484375,18.610050201416016,-18.159000396728516,22.840051651000977
1772408834552011000,9.254010986328124,17.779951095581055,-19.837051391601562,23.386051177978516
1772408834572069600,9.274069580078125,15.268051147460938,-20.422950744628906,22.87095069885254
1772408834592128500,9.29412841796875,13.015050888061523,-18.510000228881836,19.392000198364258
1772408834612187100,9.314187255859375,10.863000869750977,-14.42595100402832,14.785950660705566
1772408834632245800,9.334245849609376,7.705050468444824,-9.115950584411621,10.998000144958496
1772408834652304600,9.3543046875,3.8740501403808594,-4.333950042724609,7.795050144195557
1772408834672363300,9.37436328125,0.817050039768219,-1.071000099182129,4.52400016784668
1772408834692422100,9.394422119140625,-1.480950117111206,1.0420500040054321,2.6520001888275146
1772408834712480800,9.414480712890626,-2.854950189590454,2.4190502166748047,1.0140000581741333
1772408834732539600,9.43453955078125,-2.4220499992370605,2.565000057220459,0.5520000457763672
1772408834752598300,9.454598388671876,-0.45795002579689026,1.699950098991394,0.6000000238418579
1772408834772657200,9.4746572265625,0.8290500640869141,0.6829500198364258,0.6499500274658203
1772408834792715800,9.4947158203125,1.6380001306533813,0.5820000171661377,1.3020000457763672
1772408834812774400,9.5147744140625,2.2320001125335693,0.7950000166893005,1.8160500526428223
1772408834832833000,9.5348330078125,2.1979501247406006,0.9630000591278076,1.8520500659942627
1772408834852892000,9.554891845703125,1.5949500799179077,0.736050009727478,1.057050108909607
1772408834872950800,9.57495068359375,0.6300000548362732,0.5580000281333923,0.6000000238418579
1772408834893009400,9.595009521484375,-0.2689500153064728,0.5680500268936157,0.45600003004074097
1772408834913068300,9.615068359375,-0.09000000357627869,0.4240500330924988,0.6960000395774841
1772408834933127000,9.635126953125,0.4930500090122223,-0.00795000046491623,1.2079501152038574
1772408834953185800,9.655185791015626,0.5220000147819519,-0.24705001711845398,2.1610500812530518
1772408834973244200,9.675244140625,1.4299501180648804,-1.2510000467300415,4.330049991607666
1772408834993303000,9.695302978515626,4.8919501304626465,-3.9870002269744873,7.965000152587891
1772408835013362000,9.71536181640625,9.94800090789795,-7.1569504737854,13.849950790405273
1772408835033420500,9.735420654296876,14.926051139831543,-11.955000877380371,19.047000885009766
1772408835053479400,9.7554794921875,19.972951889038086,-16.843950271606445,23.416950225830078
1772408835073538000,9.7755380859375,21.99795150756836,-19.071001052856445,26.200950622558594
1772408835093597000,9.795596923828125,19.671001434326172,-19.056001663208008,26.13195037841797
1772408835113655800,9.81565576171875,16.459951400756836,-18.283050537109375,22.67205047607422
1772408835133714400,9.83571435546875,13.44795036315918,-15.265951156616211,16.28205108642578
1772408835153773000,9.85577294921875,9.306000709533691,-9.180000305175781,11.1510009765625
1772408835173832000,9.87583203125,5.775000095367432,-3.4170000553131104,8.105999946594238
1772408835193890600,9.895890625,3.6469502449035645,0.05595000088214874,4.534049987792969
1772408835213949400,9.915949462890625,1.7839500904083252,1.801050066947937,1.8000000715255737
1772408835234008000,9.936008056640626,1.0320000648498535,2.5189502239227295,0.531000018119812
1772408835254067000,9.95606689453125,0.6199500560760498,2.4880502223968506,0.7840500473976135
1772408835274125600,9.97612548828125,-0.08505000174045563,1.7530500888824463,1.3729500770568848
1772408835294184400,9.996184326171875,1.0489500761032104,1.0039499998092651,2.0820000171661377
1772408835314243000,10.0162431640625,3.7230002880096436,0.12000000476837158,1.9930500984191895
