time,seconds_elapsed,z,y,x
1772408825485473300,0.187473388671875,0.3460874855518341,0.5515124797821045,-0.1354375034570694
1772408825505532200,0.2075322265625,0.20858749747276306,0.6560124754905701,-0.5179625153541565
1772408825525590800,0.2275908203125,0.14891250431537628,0.6654999852180481,-0.6755374670028687
1772408825545649700,0.247649658203125,0.2628999948501587,0.527037501335144,-0.5626500248908997
1772408825565708300,0.267708251953125,0.4195125102996826,0.39393749833106995,-0.47533750534057617
1772408825585767200,0.28776708984375,0.2480500042438507,0.26496249437332153,-0.606374979019165
1772408825605825800,0.30782568359375,0.24914999306201935,-0.2644124925136566,-0.550962507724762
1772408825625884400,0.327884521484375,0.4632374942302704,-0.5626500248908997,-0.19304999709129333
1772408825645943000,0.347943115234375,0.8402624726295471,-0.6159999966621399,-0.05555000156164169
1772408825666002000,0.368001953125,1.1097625494003296,-0.5424374938011169,-0.1354375034570694
1772408825686060500,0.388060546875,1.0693374872207642,-0.6308500170707703,-0.31872498989105225
1772408825706119400,0.408119384765625,0.8882499933242798,-0.9174000024795532,-0.6169624924659729
1772408825726177800,0.428177734375,0.6506500244140625,-1.1603624820709229,-0.9696499705314636
1772408825746236700,0.448236572265625,0.4174500107765198,-1.3030874729156494,-1.2508374452590942
1772408825766295600,0.468295654296875,0.21821250021457672,-1.3414499759674072,-1.1847000122070312
1772408825786354200,0.488354248046875,-0.12168750166893005,-1.3509374856948853,-0.964287519454956
1772408825806413000,0.5084130859375,-0.6425374746322632,-1.528862476348877,-0.8534625172615051
1772408825826471700,0.5284716796875,-0.7713750004768372,-1.5768499374389648,-0.6351125240325928
1772408825846530600,0.548530517578125,-0.56045001745224,-0.9355499744415283,-0.21326249837875366
1772408825866589000,0.5685888671875,-0.3335750102996826,-0.035337500274181366,0.3119874894618988
1772408825886647800,0.588647705078125,-0.279262512922287,0.5622375011444092,0.6389625072479248
1772408825906706400,0.60870654296875,-0.3741374909877777,0.6879125237464905,0.6283749938011169
1772408825926765300,0.628765380859375,-0.40287500619888306,0.2777499854564667,0.3768875002861023
1772408825946824000,0.648823974609375,-0.39861249923706055,-0.030112499371170998,0.08607500046491623
1772408825966882600,0.668882568359375,-0.3452624976634979,-0.37523749470710754,-0.15674999356269836
1772408825986941200,0.688941162109375,-0.2761000096797943,-0.5807999968528748,-0.1812250018119812
1772408826007000000,0.709,-0.22384999692440033,-0.6467999815940857,-0.09927500039339066
1772408826027058700,0.72905859375,-0.17916250228881836,-0.6586250066757202,0.017875000834465027
1772408826047117600,0.74911767578125,-0.10559999942779541,-0.3806000053882599,0.06696250289678574
1772408826067176200,0.76917626953125,0.045649997889995575,0.009349999949336052,0.07438749819993973
1772408826087235000,0.789235107421875,0.1223749965429306,0.09033749997615814,0.21175000071525574
1772408826107293700,0.809293701171875,0.18191249668598175,0.0999625027179718,0.21175000071525574
1772408826127352600,0.8293525390625,0.37798750400543213,0.19580000638961792,0.16706250607967377
1772408826147411200,0.8494111328125,0.4632374942302704,-0.3997125029563904,-0.08002500236034393
1772408826167469800,0.8694697265625,0.3737249970436096,-1.0708500146865845,-0.19401249289512634
1772408826187528400,0.889528564453125,0.44398748874664307,-0.055687498301267624,0.07218749821186066
1772408826207587300,0.90958740234375,0.07328750193119049,0.9158874750137329,-0.08002500236034393
1772408826227646200,0.929646240234375,-0.21752500534057617,1.6967500448226929,-0.718162477016449
1772408826247704600,0.94970458984375,-0.31556248664855957,1.458050012588501,-0.755424976348877
1772408826267763500,0.969763427734375,0.2554749846458435,0.9499874711036682,0.19689999520778656
1772408826287822000,0.989822021484375,0.7796249985694885,0.6645374894142151,0.8765624761581421
1772408826307881000,1.009880859375,0.88714998960495,0.8232125043869019,0.9106624722480774
1772408826327939600,1.029939697265625,0.7731624841690063,0.6890124678611755,0.7976375222206116
1772408826347998500,1.04999853515625,0.6155874729156494,0.1350249946117401,0.7210500240325928
1772408826368057000,1.07005712890625,0.39820000529289246,-0.26977500319480896,0.49939998984336853
1772408826388116000,1.090115966796875,0.28737500309944153,-0.4604874849319458,0.18411250412464142
1772408826408174600,1.110174560546875,0.19373749196529388,-0.6373124718666077,0.020075000822544098
1772408826428233200,1.130233154296875,-0.07259999960660934,-0.6287875175476074,-0.19085000455379486
1772408826448291800,1.150291748046875,-0.2985124886035919,-0.6777374744415283,-0.4848249852657318
1772408826468350700,1.170350830078125,-0.19827499985694885,-0.7394750118255615,-0.522225022315979
1772408826488409300,1.190409423828125,-0.021449999883770943,-0.5361124873161316,-0.445499986410141
1772408826508468200,1.21046826171875,0.07328750193119049,-0.4998124837875366,-0.3218874931335449
1772408826528526800,1.23052685546875,0.006187499966472387,-0.32615000009536743,-0.19401249289512634
1772408826548585500,1.25058544921875,0.06902500241994858,0.16706250607967377,-0.2143625020980835
1772408826568644000,1.27064404296875,0.1522125005722046,0.2063875049352646,-0.29631251096725464
1772408826588703000,1.290702880859375,0.1755875051021576,-0.9153375029563904,-0.5040749907493591
1772408826608761900,1.310761962890625,0.2480500042438507,-1.979449987411499,-0.4955500066280365
1772408826628820500,1.330820556640625,0.07328750193119049,-1.6098500490188599,-0.24736249446868896
1772408826648879400,1.35087939453125,-0.22068749368190765,-0.6936874985694885,-0.25052499771118164
1772408826668938000,1.37093798828125,-0.3409999907016754,-0.19731250405311584,-0.17599999904632568
1772408826688996900,1.390996826171875,0.009349999949336052,0.29163751006126404,0.10848750174045563
1772408826709055500,1.411055419921875,0.48124998807907104,0.9989374876022339,0.5889124870300293
1772408826729114000,1.431114013671875,0.7039999961853027,1.3206875324249268,1.265275001525879
1772408826749173000,1.451173095703125,0.7145875096321106,1.3345749378204346,1.7106374502182007
1772408826769231600,1.471231689453125,0.6358000040054321,1.1321749687194824,1.8394750356674194
1772408826789290200,1.491290283203125,0.6122875213623047,0.7316374778747559,1.624287486076355
1772408826809349000,1.51134912109375,0.5665000081062317,0.3438875079154968,1.0096625089645386
1772408826829407700,1.53140771484375,0.4067249894142151,0.015812499448657036,0.15537500381469727
1772408826849466600,1.551466552734375,0.20432500541210175,-0.44343748688697815,-0.5467000007629395
1772408826869525500,1.571525390625,0.04138749837875366,-0.9696499705314636,-0.7661499977111816
1772408826889583900,1.591583984375,0.011549999937415123,-1.389299988746643,-0.7277874946594238
1772408826909642800,1.611642822265625,0.06159999966621399,-1.5064499378204346,-0.5339124798774719
1772408826929701400,1.631701416015625,0.07012499868869781,-1.2167375087738037,-0.10779999941587448
1772408826949760300,1.65176025390625,0.1266375035047531,-0.5893250107765198,0.23952500522136688
1772408826969819000,1.67181884765625,0.1574375033378601,0.003987499978393316,0.41635000705718994
1772408826989877800,1.691877685546875,0.07328750193119049,0.14464999735355377,0.5058624744415283
1772408827009936400,1.711936279296875,-0.08648750185966492,-0.4690124988555908,0.24695000052452087
1772408827029995300,1.731995361328125,-0.22605000436306,-1.2199000120162964,-0.37619999051094055
1772408827050054000,1.752053955078125,-0.29631251096725464,-1.3371875286102295,-0.8929250240325928
1772408827070112500,1.772112548828125,-0.4998124837875366,-0.4497624933719635,-0.6010124683380127
1772408827090171100,1.792171142578125,-0.5455999970436096,1.0756624937057495,-0.09501250088214874
1772408827110230000,1.81222998046875,-0.39118748903274536,2.09728741645813,-0.233474999666214
1772408827130289000,1.832288818359375,0.04881250113248825,1.8576250076293945,-0.33041250705718994
1772408827150347500,1.852347412109375,0.636900007724762,1.098075032234192,0.12553749978542328
1772408827170406400,1.872406494140625,1.0565500259399414,0.5494499802589417,0.6591749787330627
1772408827190465000,1.892465087890625,1.1896499395370483,0.22990000247955322,0.9948124885559082
1772408827210524000,1.91252392578125,1.006500005722046,-0.1919499933719635,1.134374976158142
1772408827230582500,1.93258251953125,0.8254125118255615,-0.29205000400543213,0.8189499974250793
1772408827250641400,1.952641357421875,0.6335999965667725,-0.09075000137090683,0.3375625014305115
1772408827270700000,1.972699951171875,0.2437874972820282,-0.006599999964237213,0.020075000822544098
1772408827290758700,1.992758544921875,-0.2377374917268753,-0.24736249446868896,-0.1845249980688095
1772408827310817500,2.012817626953125,-0.7500625252723694,-0.30483749508857727,-0.34540000557899475
1772408827330876200,2.032876220703125,-1.0867999792099,-0.06943749636411667,-0.46035000681877136
1772408827350935000,2.05293505859375,-1.0527000427246094,0.20748749375343323,-0.4273499846458435
1772408827370993700,2.07299365234375,-0.808775007724762,0.34911251068115234,-0.14079999923706055
1772408827391052500,2.093052490234375,-0.5850625038146973,0.38321250677108765,0.17765000462532043
1772408827411111200,2.113111083984375,-0.5317124724388123,0.29906249046325684,0.14685000479221344
1772408827431170000,2.133170166015625,-0.5765374898910522,0.0030249999836087227,-0.37193748354911804
1772408827451228700,2.153228759765625,-0.5935875177383423,-0.596750020980835,-1.1549999713897705
1772408827471287600,2.17328759765625,-0.6382749676704407,-1.2721500396728516,-1.527762532234192
1772408827491346200,2.19334619140625,-0.6862624883651733,-1.178375005722046,-0.8364124894142151
1772408827511404800,2.21340478515625,-0.7661499977111816,0.36410000920295715,-0.05664999783039093
1772408827531463700,2.233463623046875,-0.6872249841690063,2.0770750045776367,-0.22384999692440033
1772408827551522600,2.2535224609375,-0.41346248984336853,2.003512382507324,-0.4987125098705292
1772408827571581200,2.273581298828125,-0.022549999877810478,0.39077499508857727,-0.09501250088214874
1772408827591640000,2.29364013671875,0.5931749939918518,-0.5094375014305115,0.5005000233650208
1772408827611698700,2.31369873046875,1.1545875072479248,-0.13983750343322754,0.812624990940094
1772408827631757600,2.333757568359375,1.3505250215530396,0.6304374933242798,0.7369999885559082
1772408827651816200,2.353816162109375,1.2313125133514404,0.583549976348877,0.6358000040054321
1772408827671875000,2.373875,0.9499874711036682,0.09569999575614929,0.534600019454956
1772408827691933400,2.393933349609375,0.571862518787384,-0.06517499685287476,0.29067498445510864
1772408827711992300,2.413992431640625,0.18617500364780426,-0.018287500366568565,-0.08332499861717224
1772408827732051000,2.434051025390625,-0.2303124964237213,-0.13227500021457672,-0.4582875072956085
1772408827752109800,2.45410986328125,-0.5893250107765198,-0.15262499451637268,-0.7042750120162964
1772408827772168400,2.47416845703125,-0.7948874831199646,0.0019249999895691872,-0.7618874907493591
1772408827792227300,2.494227294921875,-0.8204625248908997,0.1467124968767166,-0.5605875253677368
1772408827812286000,2.514285888671875,-0.689424991607666,0.2671625018119812,-0.22714999318122864
1772408827832344800,2.5343447265625,-0.48276248574256897,0.34814998507499695,0.1648624986410141
1772408827852403500,2.554403564453125,-0.3250499963760376,0.3609375059604645,0.4291374981403351
1772408827872462000,2.574462158203125,-0.17063750326633453,0.32147499918937683,0.3683624863624573
1772408827892521000,2.59452099609375,0.020075000822544098,0.028462499380111694,0.05939999967813492
1772408827912579600,2.61457958984375,0.009349999949336052,-1.2284250259399414,-0.5274500250816345
1772408827932638500,2.634638427734375,-0.27390000224113464,-2.7273125648498535,-1.3829749822616577
1772408827952697000,2.654697021484375,-0.3772999942302704,-1.902862548828125,-1.453237533569336
1772408827972756000,2.674755859375,-0.07150000333786011,1.082124948501587,-0.5700749754905701
1772408827992814600,2.694814697265625,-0.20047499239444733,2.647974967956543,0.28421249985694885
1772408828012873500,2.71487353515625,-0.2633124887943268,2.0876624584198,0.47808748483657837
1772408828032932000,2.73493212890625,0.5377625226974487,0.8254125118255615,0.40988749265670776
1772408828052991000,2.754990966796875,1.3420000076293945,-0.027912499383091927,0.6719624996185303
1772408828073049300,2.77504931640625,1.5732749700546265,-0.11426249891519547,1.0448625087738037
1772408828093108200,2.795108154296875,1.475237488746643,-0.08112499862909317,1.1662750244140625
1772408828113167000,2.8151669921875,1.3164249658584595,-0.3198249936103821,1.1768624782562256
1772408828133225700,2.835225830078125,1.0693374872207642,-0.7405750155448914,0.9724000096321106
1772408828153284600,2.85528466796875,0.7551500201225281,-0.8886625170707703,0.4769875109195709
1772408828173343200,2.87534326171875,0.3971000015735626,-0.7789375185966492,-0.06627500057220459
1772408828193401900,2.89540185546875,0.09459999948740005,-0.7937874794006348,-0.3932499885559082
1772408828213460700,2.915460693359375,-0.11412499845027924,-1.0643874406814575,-0.44756248593330383
1772408828233519600,2.93551953125,-0.2153249979019165,-1.213575005531311,-0.38362500071525574
1772408828253578200,2.955578125,-0.20047499239444733,-1.1368499994277954,-0.2909500002861023
1772408828273636900,2.975636962890625,-0.13021250069141388,-0.9866999983787537,-0.07369999587535858
1772408828293695700,2.99569580078125,-0.07259999960660934,-0.706475019454956,0.1457500010728836
1772408828313754400,3.01575439453125,-0.011962499469518661,-0.32615000009536743,0.26936250925064087
1772408828333813000,3.03581298828125,0.05843750014901161,-0.25052499771118164,0.32257500290870667
1772408828353872000,3.055871826171875,0.1223749965429306,-0.7246249914169312,0.15853749215602875
1772408828373930500,3.075930419921875,-0.020487500354647636,-1.6886374950408936,-0.2494249939918518
1772408828393989400,3.0959892578125,-0.23663750290870667,-2.697474956512451,-0.45512500405311584
1772408828414048000,3.116048095703125,-0.3474625051021576,-2.791249990463257,-0.3975124955177307
1772408828434106600,3.136106689453125,-0.31556248664855957,-1.5618624687194824,-0.5168625116348267
1772408828454165500,3.15616552734375,-0.41772499680519104,-0.0002749999985098839,-0.808775007724762
1772408828474224000,3.17622412109375,-0.41676250100135803,1.068237543106079,-0.9802374839782715
1772408828494283000,3.196282958984375,0.08291249722242355,1.4708374738693237,-0.40287500619888306
1772408828514341600,3.216341552734375,0.6571124792098999,1.5529249906539917,0.6495500206947327
1772408828534400500,3.236400390625,0.8945749998092651,1.6732374429702759,1.3303124904632568
1772408828554459400,3.25645947265625,0.8860499858856201,1.6467000246047974,1.4815624952316284
1772408828574518000,3.27651806640625,0.8541499972343445,1.3483250141143799,1.3686749935150146
1772408828594577000,3.296576904296875,0.849887490272522,0.9318374991416931,1.1620124578475952
1772408828614635300,3.31663525390625,0.7603750228881836,0.44398748874664307,0.8808249831199646
1772408828634694100,3.336694091796875,0.40892499685287476,0.008249999955296516,0.37578749656677246
1772408828654752800,3.356752685546875,-0.029012499377131462,0.030662499368190765,-0.3997125029563904
1772408828674811600,3.376811767578125,-0.2644124925136566,0.026399999856948853,-0.9717124700546265
1772408828694870300,3.396870361328125,-0.30373749136924744,-0.37950000166893005,-1.038812518119812
1772408828714929200,3.41692919921875,-0.20583750307559967,-0.7821000218391418,-0.7480000257492065
1772408828734987500,3.436987548828125,-0.04922499880194664,-0.8577250242233276,-0.3400374948978424
1772408828755046400,3.45704638671875,0.10202500224113464,-0.5637499690055847,-0.03849999979138374
1772408828775105300,3.477105224609375,0.25657498836517334,-0.07273750007152557,0.017875000834465027
1772408828795164000,3.497163818359375,0.3577750027179718,0.036024998873472214,-0.14300000667572021
1772408828815222500,3.517222412109375,0.29163751006126404,-0.3900874853134155,-0.46997499465942383
1772408828835281400,3.537281494140625,0.2864125072956085,-0.6628875136375427,-0.9312874674797058
1772408828855340000,3.557340087890625,0.40562498569488525,-0.4529249966144562,-0.7832000255584717
1772408828875398700,3.577398681640625,-0.14190000295639038,0.023237500339746475,-0.3730374872684479
1772408828895457300,3.597457275390625,-0.7746750116348267,1.2035374641418457,-0.5103999972343445
1772408828915516200,3.61751611328125,-1.0036125183105469,1.9236249923706055,-0.5103999972343445
1772408828935575000,3.637574951171875,-0.41456249356269836,1.6083375215530396,0.020075000822544098
1772408828955633700,3.657633544921875,0.6070625185966492,0.6527125239372253,0.9702000021934509
1772408828975692300,3.6776923828125,1.2152249813079834,-0.11742500215768814,1.9514000415802002
1772408828995751200,3.697751220703125,1.2876875400543213,-0.5392749905586243,2.3369500637054443
1772408829015810000,3.71781005859375,1.0917500257492065,-1.2551000118255615,2.1089749336242676
1772408829035868400,3.737868408203125,0.9532874822616577,-0.9344499707221985,1.1386375427246094
1772408829055927300,3.75792724609375,0.7944750189781189,-0.43697500228881836,0.11055000126361847
1772408829075986000,3.77798583984375,0.534600019454956,-0.4604874849319458,-0.38692501187324524
1772408829096044800,3.798044921875,0.09886249899864197,-0.8897625207901001,-0.4295499920845032
1772408829116103400,3.818103515625,-0.22921249270439148,-1.140012502670288,-0.39861249923706055
1772408829136162300,3.838162353515625,-0.33467498421669006,-1.105912446975708,-0.42625001072883606
1772408829156221000,3.858220947265625,-0.29315000772476196,-0.9514999985694885,-0.3240875005722046
1772408829176279600,3.878279541015625,-0.24832500517368317,-0.7778375148773193,-0.13227500021457672
1772408829196338400,3.89833837890625,-0.255887508392334,-0.33687499165534973,0.025437500327825546
1772408829216397000,3.91839697265625,-0.29315000772476196,0.2521750032901764,0.07975000143051147
1772408829236455700,3.93845556640625,-0.29631251096725464,0.9095624685287476,-0.0364375002682209
1772408829256514600,3.9585146484375,-0.3783999979496002,1.1555500030517578,-0.4241875112056732
1772408829276573400,3.978573486328125,-0.7394750118255615,0.6719624996185303,-1.0708500146865845
1772408829296631800,3.9986318359375,-0.8886625170707703,0.509987473487854,-1.7269999980926514
1772408829316690700,4.018690673828125,-0.964287519454956,1.042662501335144,-1.6992249488830566
1772408829336749300,4.038749267578125,-1.3157374858856201,1.7308499813079834,-1.4415500164031982
1772408829356808200,4.05880810546875,-1.4212000370025635,2.367887496948242,-1.313675045967102
1772408829376866800,4.07886669921875,-1.0228625535964966,2.375312566757202,-0.8822000026702881
1772408829396925700,4.09892578125,-0.1046374961733818,1.3985124826431274,-0.09184999763965607
1772408829416984300,4.118984375,0.8817874789237976,-0.06091250106692314,0.7966749668121338
1772408829437043200,4.139043212890625,1.4240875244140625,-0.7394750118255615,1.457087516784668
1772408829457101600,4.1591015625,1.4528249502182007,-0.4870249927043915,1.6296499967575073
1772408829477160400,4.179160400390625,1.2685749530792236,-0.1993750035762787,1.3547874689102173
1772408829497219300,4.19921923828125,0.9990749955177307,-0.12911249697208405,1.0181875228881836
1772408829517278000,4.21927783203125,0.5995000004768372,-0.1344749927520752,0.7455250024795532
1772408829537336600,4.239336669921875,0.14685000479221344,-0.255887508392334,0.3385249972343445
1772408829557395500,4.2593955078125,-0.3176249861717224,-0.5531625151634216,-0.15578749775886536
1772408829577454300,4.279454345703125,-0.5722749829292297,-0.9077749848365784,-0.5871250033378601
1772408829597512700,4.2995126953125,-0.5328124761581421,-1.1475750207901,-0.771512508392334
1772408829617571600,4.319571533203125,-0.3452624976634979,-1.2231999635696411,-0.6340125203132629
1772408829637630200,4.339630126953125,-0.07259999960660934,-1.2689875364303589,-0.23457500338554382
1772408829657689000,4.359689208984375,0.2256374955177307,-1.122962474822998,0.22453749179840088
1772408829677747700,4.379747802734375,0.3726249933242798,-0.5978500247001648,0.5186499953269958
1772408829697806300,4.399806396484375,0.4567750096321106,-0.210099995136261,0.5005000233650208
1772408829717865000,4.419864990234375,0.4217124879360199,-1.5672249794006348,0.6219124794006348
1772408829737923800,4.439923828125,0.15001249313354492,-2.0902750492095947,-0.16005000472068787
1772408829757982500,4.459982421875,-0.5956500172615051,-0.7704125046730042,-1.7813124656677246
1772408829778041300,4.480041259765625,-1.2869999408721924,-0.21119999885559082,-2.2969374656677246
1772408829798099700,4.500099609375,-1.4137749671936035,0.06366249918937683,-2.212787389755249
1772408829818158600,4.52015869140625,-0.8833000063896179,0.3363249897956848,-1.6545374393463135
1772408829838217200,4.54021728515625,-0.2653749883174896,0.4834499955177307,-0.6308500170707703
1772408829858276000,4.560276123046875,0.6485875248908997,0.44714999198913574,0.4184125065803528
1772408829878334700,4.580334716796875,1.5103000402450562,0.34814998507499695,1.2865874767303467
1772408829898393600,4.6003935546875,1.8053749799728394,0.3993000090122223,1.8767374753952026
1772408829918452200,4.6204521484375,1.5636500120162964,0.5781875252723694,2.0791375637054443
1772408829938510800,4.6405107421875,1.1054999828338623,0.6208124756813049,1.7873624563217163
1772408829958569500,4.660569580078125,0.6710000038146973,0.43326249718666077,1.106600046157837
1772408829978628400,4.68062841796875,0.2938374876976013,0.2063875049352646,0.3854124844074249
1772408829998687000,4.70068701171875,-0.21752500534057617,-0.023649999871850014,-0.20253749191761017
1772408830018745900,4.720745849609375,-0.6595875024795532,-0.24956250190734863,-0.6755374670028687
1772408830038804500,4.740804443359375,-0.7874624729156494,-0.4571875035762787,-0.9461374878883362
1772408830058863000,4.760863037109375,-0.6148999929428101,-0.643637478351593,-0.9919250011444092
1772408830078922000,4.780921875,-0.3591499924659729,-0.6532624959945679,-0.7383750081062317
1772408830098980600,4.800980712890625,-0.14822499454021454,-0.45086249709129333,-0.30057498812675476
1772408830119039500,4.82103955078125,-0.016224998980760574,-0.10889999568462372,0.15427500009536743
1772408830139097900,4.841097900390625,0.1190750002861023,0.30016249418258667,0.33646249771118164
1772408830159156700,4.86115673828125,0.20748749375343323,0.28847500681877136,0.2523125112056732
1772408830179215600,4.881215576171875,-0.1396999955177307,-0.45196250081062317,-0.11316250264644623
1772408830199274200,4.901274169921875,-0.854562520980835,-1.2838374376296997,-0.8406749963760376
1772408830219333000,4.9213330078125,-1.6150749921798706,-1.3105125427246094,-1.3989249467849731
1772408830239391700,4.941391845703125,-2.061537504196167,-0.21972499787807465,-1.6065499782562256
1772408830259450400,4.961450439453125,-1.5885374546051025,1.6785999536514282,-1.611912488937378
1772408830279509000,4.981509033203125,-1.131487488746643,1.9981499910354614,-1.3509374856948853
1772408830299567900,5.00156787109375,-0.3964124917984009,0.8402624726295471,-0.6180624961853027
1772408830319626500,5.02162646484375,0.2523125112056732,-0.5403749942779541,0.2639999985694885
1772408830339685400,5.041685302734375,0.6443250179290771,-0.7832000255584717,0.9053000211715698
1772408830359744000,5.061743896484375,0.7933750152587891,-0.3880249857902527,1.2695374488830566
1772408830379802600,5.081802734375,0.7433249950408936,0.007287499960511923,1.3143625259399414
1772408830399861500,5.101861572265625,0.4419249892234802,0.23842500150203705,1.0799249410629272
1772408830419920100,5.121920166015625,-0.00013749999925494194,0.5931749939918518,0.5590749979019165
1772408830439979000,5.14197900390625,-0.43697500228881836,0.8456249833106995,-0.08112499862909317
1772408830460037600,5.16203759765625,-0.8364124894142151,0.6740249991416931,-0.454025000333786
1772408830480096300,5.18209619140625,-1.0015499591827393,0.3310999870300293,-0.514662504196167
1772408830500155100,5.202155029296875,-0.9290875196456909,0.09886249899864197,-0.36024999618530273
1772408830520213800,5.2222138671875,-0.7203624844551086,-0.030112499371170998,-0.057750001549720764
1772408830540272600,5.242272705078125,-0.559487521648407,-0.055687498301267624,0.2788499891757965
1772408830560331300,5.262331298828125,-0.43697500228881836,0.06366249918937683,0.5644375085830688
1772408830580390000,5.282389892578125,-0.33467498421669006,0.31185001134872437,0.6517499685287476
1772408830600448500,5.302448486328125,-0.21216249465942383,0.41635000705718994,0.4749250113964081
1772408830620507400,5.32250732421875,0.14368750154972076,0.19263750314712524,0.15537500381469727
1772408830640566000,5.34256591796875,0.5366625189781189,-0.14300000667572021,-0.196212500333786
1772408830660625000,5.362625,0.49623748660087585,-1.2487750053405762,-0.34113749861717224
1772408830680683500,5.38268359375,0.26936250925064087,-2.1392250061035156,-0.41676250100135803
1772408830700742100,5.4027421875,-0.17270000278949738,-1.444712519645691,-0.4923875033855438
1772408830720800800,5.42280078125,-0.6021124720573425,0.3959999978542328,-0.5274500250816345
1772408830740859600,5.442859619140625,-0.680899977684021,1.7573875188827515,-0.7033125162124634
1772408830760918000,5.46291796875,-0.1695374995470047,1.7723749876022339,-0.4838624894618988
1772408830780977000,5.482976806640625,0.40246251225471497,0.9681375026702881,0.22027499973773956
1772408830801035500,5.503035400390625,0.7529500126838684,0.5665000081062317,0.9084625244140625
1772408830821094400,5.523094482421875,1.034137487411499,0.5153499841690063,1.1864874362945557
1772408830841152800,5.54315283203125,1.2291125059127808,0.3086875081062317,1.0832250118255615
1772408830861211600,5.563211669921875,1.1833250522613525,-0.2877874970436096,0.8562124967575073
1772408830881270300,5.583270263671875,0.8137249946594238,-0.8226624727249146,0.6272749900817871
1772408830901329200,5.6033291015625,0.19689999520778656,-0.9514999985694885,0.29589998722076416
1772408830921387500,5.623387451171875,-0.39214998483657837,-0.7576249837875366,-0.15248750150203705
1772408830941446400,5.6434462890625,-0.7799000144004822,-0.42528748512268066,-0.45086249709129333
1772408830961505300,5.66350537109375,-0.9407749772071838,-0.03753750026226044,-0.5200250148773193
1772408830981564000,5.68356396484375,-0.9898625016212463,0.31088748574256897,-0.39544999599456787
1772408831001622500,5.70362255859375,-0.9748749732971191,0.6708624958992004,-0.1280124932527542
1772408831021681200,5.72368115234375,-0.8694124817848206,1.043762445449829,0.12017499655485153
1772408831041739800,5.74373974609375,-0.7596874833106995,1.1470249891281128,0.2810499966144562
1772408831061798700,5.763798583984375,-0.6595875024795532,1.091612458229065,0.22990000247955322
1772408831081857300,5.783857177734375,-0.32615000009536743,0.6432250142097473,-0.06517499685287476
1772408831101916000,5.803916015625,0.35983750224113464,-0.5424374938011169,0.02433750033378601
1772408831121974800,5.823974853515625,0.6037625074386597,-1.3850375413894653,0.9872499704360962
1772408831142033400,5.844033447265625,0.007287499960511923,-0.6660500168800354,1.0394999980926514
1772408831162092300,5.86409228515625,-0.7075750231742859,1.0543500185012817,-0.00976249948143959
1772408831182150700,5.884150634765625,-1.0154374837875366,1.9247249364852905,0.04028749838471413
1772408831202209500,5.90420947265625,-0.4422000050544739,1.8639500141143799,0.6676999926567078
1772408831222268400,5.924268310546875,0.17448750138282776,1.9034124612808228,0.8732625246047974
1772408831242327000,5.9443271484375,0.20542499423027039,1.8798999786376953,0.9979749917984009
1772408831262385700,5.9643857421875,-0.07479999959468842,1.5305124521255493,1.0661749839782715
1772408831282444300,5.9844443359375,-0.2644124925136566,1.1034375429153442,0.866937518119812
1772408831302503000,6.0045029296875,-0.3548874855041504,0.6474875211715698,0.5985375046730042
1772408831322561500,6.0245615234375,-0.5455999970436096,0.3086875081062317,0.31088748574256897
1772408831342620400,6.044620361328125,-0.7277874946594238,0.20858749747276306,-0.17806249856948853
1772408831362679000,6.064678955078125,-0.7374125123023987,0.296999990940094,-0.7160999774932861
1772408831382737700,6.084737548828125,-0.6297500133514404,0.296999990940094,-0.8300874829292297
1772408831402796300,6.10479638671875,-0.4390375018119812,0.09569999575614929,-0.5722749829292297
1772408831422855200,6.124855224609375,-0.13337500393390656,-0.17916250228881836,-0.2675749957561493
1772408831442913800,6.144913818359375,0.02433750033378601,-0.24310000240802765,-0.023649999871850014
1772408831462972700,6.16497265625,0.0030249999836087227,0.04028749838471413,0.03918749839067459
1772408831483031300,6.18503125,0.047712501138448715,0.32147499918937683,0.007287499960511923
1772408831503090000,6.20508984375,0.16279999911785126,0.4844124913215637,-0.022549999877810478
1772408831523148500,6.2251484375,0.06476250290870667,0.24901250004768372,-0.20899999141693115
1772408831543207200,6.245207275390625,-0.1396999955177307,-0.14409999549388885,-0.5999125242233276
1772408831563266000,6.26526611328125,-0.3315125107765198,-0.5722749829292297,-1.0515999794006348
1772408831583324700,6.28532470703125,-0.3198249936103821,-1.270087480545044,-1.131487488746643
1772408831603383300,6.30538330078125,-0.22605000436306,-1.4202375411987305,-0.491287499666214
1772408831623442000,6.32544189453125,0.16706250607967377,-0.38376250863075256,0.18411250412464142
1772408831643500500,6.34550048828125,0.3438875079154968,0.4450874924659729,0.2864125072956085
1772408831663559400,6.365559326171875,0.33329999446868896,0.26826250553131104,0.1116499975323677
1772408831683618000,6.3856181640625,0.43972501158714294,-0.021587500348687172,0.2532750070095062
1772408831703676700,6.4056767578125,0.546287477016449,-0.007699999958276749,0.5824499726295471
1772408831723735300,6.4257353515625,0.5570124983787537,0.38651248812675476,0.6474875211715698
1772408831743794000,6.4457939453125,0.46213749051094055,0.6197124719619751,0.3268375098705292
1772408831763852500,6.4658525390625,0.2864125072956085,0.4652999937534332,-0.029012499377131462
1772408831783911400,6.485911376953125,0.09459999948740005,0.24901250004768372,-0.28146249055862427
1772408831803970000,6.505969970703125,-0.07369999587535858,0.19263750314712524,-0.4338124990463257
1772408831824029000,6.52602880859375,-0.20253749191761017,0.19359999895095825,-0.4796000123023987
1772408831844087300,6.54608740234375,-0.2974124848842621,0.2330625057220459,-0.29315000772476196
1772408831864146200,6.566146240234375,-0.2110625058412552,0.2938374876976013,-0.1280124932527542
1772408831884204800,6.586204833984375,-0.14190000295639038,0.20006249845027924,-0.04702499881386757
1772408831904263400,6.606263427734375,-0.22811250388622284,0.15950000286102295,0.09569999575614929
1772408831924322000,6.626322021484375,-0.2516250014305115,0.2714250087738037,0.2437874972820282
1772408831944380700,6.646380615234375,-0.27719998359680176,0.30662500858306885,0.2671625018119812
1772408831964439600,6.666439453125,-0.4338124990463257,0.1414874941110611,0.18521249294281006
1772408831984498200,6.686498291015625,-0.6723750233650208,-0.33041250705718994,-0.12691250443458557
1772408832004556800,6.706556884765625,-0.7778375148773193,-0.8417750000953674,-0.39214998483657837
1772408832024615400,6.726615478515625,-0.7331500053405762,-0.6180624961853027,-0.23993749916553497
1772408832044674300,6.74667431640625,-0.9950875043869019,-0.32725000381469727,0.05623750016093254
1772408832064733000,6.76673291015625,-1.0078749656677246,-0.06943749636411667,0.28421249985694885
1772408832084791600,6.78679150390625,-0.8406749963760376,0.5377625226974487,0.48551249504089355
1772408832104850200,6.80685009765625,-0.9046124815940857,0.8328375220298767,0.7944750189781189
1772408832124908800,6.82690869140625,-0.9162999987602234,0.6506500244140625,1.006500005722046
1772408832144967700,6.8469677734375,-0.6659125089645386,0.6910749673843384,0.9809250235557556
1772408832165026300,6.8670263671875,-0.5530250072479248,0.6654999852180481,0.6804875135421753
1772408832185085000,6.8870849609375,-0.8247249722480774,0.43230000138282776,0.3385249972343445
1772408832205143800,6.907143798828125,-0.8864625096321106,0.3236750066280365,0.17448750138282776
1772408832225202400,6.927202392578125,-0.7075750231742859,0.18837499618530273,0.01691249944269657
1772408832245261300,6.94726123046875,-0.7118374705314636,0.09033749997615814,0.007287499960511923
1772408832265319700,6.967319580078125,-0.5040749907493591,0.4866124987602234,0.44398748874664307
1772408832285378300,6.98737841796875,-0.3357749879360199,0.6676999926567078,0.8009374737739563
1772408832305437200,7.007437255859375,-0.3315125107765198,0.6634374856948853,0.7540500164031982
1772408832325495800,7.027495849609375,-0.3133625090122223,0.6026625037193298,0.5036625266075134
1772408832345554400,7.047554443359375,-0.2952125072479248,0.3854124844074249,0.22990000247955322
1772408832365613300,7.06761328125,-0.2718375027179718,0.2745875120162964,0.053075000643730164
1772408832385672000,7.087671875,-0.11412499845027924,0.2139499932527542,0.025437500327825546
1772408832405730600,7.10773046875,-0.0034374999813735485,-0.00976249948143959,0.055137500166893005
1772408832425789400,7.12778955078125,-0.10353749990463257,-0.08538749814033508,-0.08855000138282776
1772408832445847800,7.147847900390625,-0.2153249979019165,-0.1163249984383583,-0.3250499963760376
1772408832465906700,7.16790673828125,-0.11522500216960907,-0.09501250088214874,-0.26647499203681946
1772408832485965300,7.18796533203125,-0.1046374961733818,-0.2793999910354614,-0.16747500002384186
1772408832506024000,7.20802392578125,-0.06627500057220459,-0.4156624972820282,-0.18232500553131104
1772408832526082600,7.22808251953125,0.02213750034570694,-0.3858250081539154,-0.1344749927520752
1772408832546141400,7.248141357421875,0.004124999977648258,-0.408237487077713,-0.1652749925851822
1772408832566199800,7.26819970703125,0.0999625027179718,-0.41676250100135803,-0.3624500036239624
1772408832586258700,7.2882587890625,0.23842500150203705,-0.445499986410141,-0.45608749985694885
1772408832606317300,7.3083173828125,0.16073749959468842,-0.9909625053405762,-0.5040749907493591
1772408832626376000,7.3283759765625,0.1522125005722046,-1.2636250257492065,-0.4763000011444092
1772408832646434600,7.3484345703125,0.07122500240802765,-1.1442749500274658,-0.5444999933242798
1772408832666493400,7.368493408203125,0.010449999943375587,-1.8537750244140625,-1.0058125257492065
1772408832686552000,7.388552001953125,-0.033275000751018524,-2.739000082015991,-1.2529000043869019
1772408832706610700,7.408610595703125,-0.0705375000834465,-2.4151875972747803,-1.0782749652862549
1772408832726669300,7.42866943359375,-0.2110625058412552,-1.1422125101089478,-1.1240625381469727
1772408832746728200,7.448728271484375,-0.3218874931335449,-0.2569875121116638,-1.3029500246047974
1772408832766786600,7.46878662109375,-0.1802625060081482,0.3097875118255615,-0.9919250011444092
1772408832786845200,7.48884521484375,0.18521249294281006,0.7646374702453613,-0.4071374833583832
1772408832806904000,7.508904052734375,0.5909749865531921,0.5057250261306763,0.017875000834465027
1772408832826962700,7.528962646484375,0.5335000157356262,-0.17173749208450317,0.2171124964952469
1772408832847021300,7.549021240234375,0.15427500009536743,-0.5318499803543091,0.1574375033378601
1772408832867080000,7.569079833984375,-0.06091250106692314,-0.7618874907493591,-0.19085000455379486
1772408832887138600,7.589138671875,-0.16101250052452087,-0.8204625248908997,-0.34209999442100525
1772408832907197200,7.609197265625,-0.20157499611377716,-0.5637499690055847,-0.17173749208450317
1772408832927256000,7.629256103515625,-0.23141250014305115,-0.08332499861717224,0.07218749821186066
1772408832947314400,7.649314453125,-0.39861249923706055,0.3811500072479248,0.37482500076293945
1772408832967373300,7.669373291015625,-0.47423750162124634,0.5025625228881836,0.5440874695777893
1772408832987432000,7.689431884765625,-0.3548874855041504,0.5110874772071838,0.43972501158714294
1772408833007490600,7.709490478515625,-0.196212500333786,0.4610374867916107,0.40039998292922974
1772408833027549200,7.729549072265625,-0.16101250052452087,-0.22824999690055847,0.4174500107765198
1772408833047608000,7.749608154296875,0.030662499368190765,-1.054900050163269,0.3651999831199646
1772408833067666700,7.769666748046875,0.31088748574256897,-0.9887624979019165,0.1414874941110611
1772408833087725300,7.789725341796875,0.305525004863739,-0.41786250472068787,-0.3016749918460846
1772408833107784000,7.809783935546875,0.20858749747276306,0.5590749979019165,-0.1387374997138977
1772408833127842800,7.8298427734375,0.20652499794960022,1.301574945449829,0.4226749837398529
1772408833147901400,7.8499013671875,0.16596250236034393,1.4815624952316284,0.7635374665260315
1772408833167960000,7.8699599609375,0.1989624947309494,1.5464625358581543,0.9616749882698059
1772408833188018700,7.890018798828125,0.19580000638961792,1.3164249658584595,1.0841875076293945
1772408833208077600,7.91007763671875,0.12017499655485153,0.9574124813079834,1.1449625492095947
1772408833228136000,7.930135986328125,0.22673749923706055,0.22769999504089355,0.9021375179290771
1772408833248194600,7.950194580078125,0.21601249277591705,-0.46681249141693115,0.36629998683929443
1772408833268253400,7.97025341796875,0.10532499849796295,-0.4955500066280365,-0.1685750037431717
1772408833288312000,7.99031201171875,0.17765000462532043,-0.2686749994754791,-0.3539249897003174
1772408833308370700,8.01037060546875,0.11384999752044678,-0.5989499688148499,-0.33041250705718994
1772408833328429600,8.0304296875,-0.23663750290870667,-0.46254998445510864,-0.10037499666213989
1772408833348488200,8.05048828125,-0.3443000018596649,0.14038750529289246,0.12333749979734421
1772408833368546800,8.070546875,-0.30057498812675476,0.32147499918937683,0.18411250412464142
1772408833388605400,8.09060546875,-0.3326124846935272,0.3843125104904175,0.21931250393390656
1772408833408664300,8.110664306640626,-0.4338124990463257,0.4450874924659729,0.18191249668598175
1772408833428723000,8.130722900390625,-0.4049375057220459,0.4652999937534332,0.06270000338554382
1772408833448781600,8.150781494140626,-0.3772999942302704,0.357637494802475,0.023237500339746475
1772408833468840200,8.170840087890625,-0.22495000064373016,0.06476250290870667,-0.11742500215768814
1772408833488898800,8.19089892578125,0.273624986410141,-0.25052499771118164,-0.2994749844074249
1772408833508957700,8.210957763671875,0.2639999985694885,-0.03217500075697899,-0.34966251254081726
1772408833529016300,8.231016357421876,-0.8971874713897705,0.15001249313354492,-0.9483374953269958
1772408833549075000,8.251074951171875,-1.8601000308990479,0.06476250290870667,-2.09879994392395
1772408833569133800,8.2711337890625,-1.913450002670288,0.988349974155426,-2.447087526321411
1772408833589192400,8.2911923828125,-1.1240625381469727,1.7351125478744507,-1.822837471961975
1772408833609251000,8.3112509765625,-0.3793624937534332,1.3420000076293945,-0.5605875253677368
1772408833629310000,8.33131005859375,0.10958749800920486,0.42899999022483826,0.6560124754905701
1772408833649368600,8.35136865234375,0.5516499876976013,-0.3550249934196472,1.281362533569336
1772408833669427200,8.37142724609375,0.7827875018119812,-0.8844000101089478,1.1801625490188599
1772408833689486000,8.391486083984375,0.766837477684021,-0.9046124815940857,0.6485875248908997
1772408833709544700,8.411544677734375,0.5655375123023987,-0.9025499820709229,-0.050324998795986176
1772408833729603300,8.431603271484375,0.11591249704360962,-1.0719499588012695,-0.5743374824523926
1772408833749662000,8.451661865234374,-0.39118748903274536,-1.056962490081787,-0.7661499977111816
1772408833769720800,8.471720947265625,-0.6234250068664551,-0.7363125085830688,-0.7383750081062317
1772408833789779500,8.491779541015624,-0.5561875104904175,-0.2899875044822693,-0.6542249917984009
1772408833809838300,8.51183837890625,-0.4433000087738037,-0.06737499684095383,-0.4582875072956085
1772408833829896700,8.531896728515624,-0.3793624937534332,-0.19841249287128448,-0.035337500274181366
1772408833849955600,8.55195556640625,-0.2974124848842621,-0.3550249934196472,0.32477501034736633
1772408833870014500,8.572014404296874,-0.219587504863739,-0.23251250386238098,0.5238749980926514
1772408833890073000,8.592072998046875,-0.18768750131130219,-0.03753750026226044,0.682687520980835
1772408833910131700,8.612131591796874,-0.1812250018119812,-0.08648750185966492,0.5750250220298767
1772408833930190600,8.632190673828125,-0.15468749403953552,0.07644999772310257,0.38651248812675476
1772408833950249200,8.652249267578124,-0.2750000059604645,0.35557499527931213,0.273624986410141
1772408833970307800,8.672307861328125,-0.3091000020503998,0.3683624863624573,-0.09391249716281891
1772408833990366700,8.69236669921875,-0.14932499825954437,-0.19415000081062317,-0.5498625040054321
1772408834010425300,8.71242529296875,-0.2952125072479248,-0.33797499537467957,-0.4423374831676483
1772408834030484200,8.732484130859374,-0.7458000183105469,-0.6159999966621399,-0.40287500619888306
1772408834050542600,8.75254248046875,-0.9492999911308289,-0.9174000024795532,-0.5563250184059143
1772408834070601500,8.7726015625,-0.35708749294281006,-0.22714999318122864,-0.2877874970436096
1772408834090660000,8.79266015625,0.5281375050544739,0.24365000426769257,0.5420249700546265
1772408834110719000,8.812718994140624,0.9351375102996826,-0.19085000455379486,1.5039750337600708
1772408834130777600,8.832777587890625,0.9542499780654907,-0.6202625036239624,1.9172999858856201
1772408834150836500,8.85283642578125,1.2205874919891357,-0.3400374948978424,1.6924874782562256
1772408834170894800,8.872894775390625,1.3121625185012817,0.07644999772310257,0.8615750074386597
1772408834190953700,8.89295361328125,0.9286749958992004,-0.002337499987334013,-0.10986249893903732
1772408834211012400,8.913012451171875,0.3375625014305115,-0.41456249356269836,-0.7767375111579895
1772408834231071200,8.9330712890625,-0.1695374995470047,-0.771512508392334,-1.0163999795913696
1772408834251130000,8.953130126953125,-0.4358749985694885,-0.6660500168800354,-0.8896250128746033
1772408834271188700,8.973188720703124,-0.33467498421669006,-0.3772999942302704,-0.7000125050544739
1772408834291247400,8.993247314453125,-0.21642500162124634,-0.1993750035762787,-0.5381749868392944
1772408834311306000,9.013305908203124,-0.25478750467300415,-0.06311249732971191,-0.21642500162124634
1772408834331364600,9.033364501953125,-0.2877874970436096,0.11481250077486038,0.17448750138282776
1772408834351423500,9.053423583984374,-0.1993750035762787,0.3587374985218048,0.37578749656677246
1772408834371482400,9.073482421875,-0.23141250014305115,0.3097875118255615,0.35983750224113464
1772408834391541000,9.093541015625,-0.35804998874664307,0.34168750047683716,0.3236750066280365
1772408834411600000,9.113599853515625,-0.2633124887943268,0.5696625113487244,0.32147499918937683
1772408834431658500,9.133658447265624,-0.040699999779462814,0.5025625228881836,0.2320999950170517
1772408834451717400,9.15371728515625,0.13832500576972961,0.15097500383853912,0.028599999845027924
1772408834471776000,9.17377587890625,0.16073749959468842,-0.17393749952316284,-0.2579500079154968
1772408834491834600,9.193834716796875,0.028599999845027924,-0.6575250029563904,-0.35282498598098755
1772408834511893500,9.2138935546875,-0.19827499985694885,-0.6841999888420105,-0.23457500338554382
1772408834531952000,9.2339521484375,-0.34209999442100525,0.16279999911785126,0.09350000321865082
1772408834552011000,9.254010986328124,-0.5115000009536743,0.8168874979019165,0.2512125074863434
1772408834572069600,9.274069580078125,-0.47850000858306885,1.182224988937378,0.3279374837875366
1772408834592128500,9.29412841796875,-0.25478750467300415,0.9638749957084656,0.3044250011444092
1772408834612187100,9.314187255859375,0.14464999735355377,0.6793875098228455,0.4141499996185303
1772408834632245800,9.334245849609376,0.47382500767707825,0.5344625115394592,0.7210500240325928
1772408834652304600,9.3543046875,0.5687000155448914,0.5622375011444092,0.8999375104904175
1772408834672363300,9.37436328125,0.5431249737739563,0.6782875061035156,0.7913125157356262
1772408834692422100,9.394422119140625,0.46956250071525574,0.6580749750137329,0.5388625264167786
1772408834712480800,9.414480712890626,0.273624986410141,0.47066250443458557,0.09459999948740005
1772408834732539600,9.43453955078125,0.13832500576972961,0.10092499852180481,-0.3559874892234802
1772408834752598300,9.454598388671876,-0.03739999979734421,-0.21216249465942383,-0.477400004863739
1772408834772657200,9.4746572265625,-0.031075000762939453,-0.22495000064373016,-0.27390000224113464
1772408834792715800,9.4947158203125,0.04881250113248825,-0.4221250116825104,-0.08332499861717224
1772408834812774400,9.5147744140625,-0.021449999883770943,-0.46997499465942383,0.0019249999895691872
1772408834832833000,9.5348330078125,-0.08428750187158585,-0.035337500274181366,0.16060000658035278
1772408834852892000,9.554891845703125,-0.18658749759197235,0.22453749179840088,0.2437874972820282
1772408834872950800,9.57495068359375,-0.18232500553131104,0.3396250009536743,0.2032250016927719
1772408834893009400,9.595009521484375,-0.16637499630451202,0.29809999465942383,0.1755875051021576
1772408834913068300,9.615068359375,-0.15674999356269836,0.07535000145435333,0.23842500150203705
1772408834933127000,9.635126953125,-0.20157499611377716,-0.10147500038146973,0.259737491607666
1772408834953185800,9.655185791015626,-0.17063750326633453,-0.089649997651577,0.15633749961853027
1772408834973244200,9.675244140625,-0.10889999568462372,-0.05142499879002571,-0.022549999877810478
1772408834993303000,9.695302978515626,0.04138749837875366,-0.3081375062465668,-0.4305124878883362
1772408835013362000,9.71536181640625,0.021175000816583633,-0.7885624766349792,-0.7224249839782715
1772408835033420500,9.735420654296876,-0.3730374872684479,-1.1155375242233276,-0.6191624999046326
1772408835053479400,9.7554794921875,-0.523187518119812,-1.261562466621399,-0.4433000087738037
1772408835073538000,9.7755380859375,-0.5647125244140625,-0.4349125027656555,0.04235000163316727
1772408835093597000,9.795596923828125,-0.7075750231742859,0.6261749863624573,0.2628999948501587
1772408835113655800,9.81565576171875,-0.8076750040054321,1.0543500185012817,-0.050324998795986176
1772408835133714400,9.83571435546875,-0.5285499691963196,0.9605749845504761,-0.06627500057220459
1772408835153773000,9.85577294921875,0.049912501126527786,0.5941374897956848,0.22027499973773956
1772408835173832000,9.87583203125,0.22027499973773956,0.18191249668598175,0.39077499508857727
1772408835193890600,9.895890625,0.04028749838471413,-0.09611249715089798,0.5249750018119812
1772408835213949400,9.915949462890625,0.0658624991774559,0.2554749846458435,0.5420249700546265
1772408835234008000,9.936008056640626,0.1531749963760376,0.8380625247955322,0.5153499841690063
1772408835254067000,9.95606689453125,0.017875000834465027,0.49293750524520874,0.9180874824523926
1772408835274125600,9.97612548828125,-0.1812250018119812,0.11481250077486038,0.6954749822616577
1772408835294184400,9.996184326171875,-0.24310000240802765,0.41208750009536743,-0.21326249837875366
1772408835314243000,10.0162431640625,-0.25478750467300415,1.0032000541687012,-0.8258249759674072
