time,seconds_elapsed,z,y,x
1772402156991396000,0.28339599609375,-1.0078749656677246,1.1321749687194824,-0.477400004863739
1772402157011452400,0.303452392578125,-0.9961875081062317,1.3633124828338623,-0.3389374911785126
1772402157031508500,0.323508544921875,-0.8321499824523926,1.4283499717712402,0.11701250076293945
1772402157051564300,0.343564208984375,-0.706475019454956,1.265275001525879,0.9169874787330627
1772402157071620400,0.363620361328125,-0.7661499977111816,0.9585124850273132,1.698949933052063
1772402157091676400,0.383676513671875,-1.0697499513626099,0.776324987411499,2.15586256980896
1772402157111732500,0.403732421875,-1.3114750385284424,0.6560124754905701,2.3359875679016113
1772402157131788500,0.42378857421875,-1.3168375492095947,0.36616250872612,2.2539000511169434
1772402157151844600,0.4438447265625,-1.1005499362945557,0.2862749993801117,1.715999960899353
1772402157171900400,0.463900390625,-0.7778375148773193,0.7325999736785889,0.9585124850273132
1772402157191956700,0.483956787109375,-0.514662504196167,0.9244124889373779,0.5153499841690063
1772402157212012800,0.5040126953125,-0.3474625051021576,0.7145875096321106,0.3876124918460846
1772402157232068900,0.52406884765625,-0.2761000096797943,0.859375,0.22453749179840088
1772402157252124700,0.544124755859375,-0.17270000278949738,1.2248499393463135,0.15537500381469727
1772402157272180700,0.5641806640625,-0.07479999959468842,1.1097625494003296,0.4973374903202057
1772402157292236500,0.584236572265625,0.03918749839067459,0.6665999889373779,0.9053000211715698
1772402157312292600,0.604292724609375,0.16499999165534973,0.2671625018119812,1.1534874439239502
1772402157332348700,0.6243486328125,0.2671625018119812,-0.14300000667572021,1.2685749530792236
1772402157352404700,0.64440478515625,0.341825008392334,-0.4008125066757202,1.1673749685287476
1772402157372460800,0.664460693359375,0.4675000011920929,-0.505174994468689,0.88714998960495
1772402157392516900,0.684516845703125,0.6347000002861023,-0.735212504863739,0.5974375009536743
1772402157412573000,0.704572998046875,0.7657374739646912,-1.0814374685287476,0.4482499957084656
1772402157432629000,0.72462890625,0.8487874865531921,-1.5054874420166016,0.38651248812675476
1772402157452684800,0.744684814453125,0.8988375067710876,-1.7397874593734741,0.23526249825954437
1772402157472740900,0.764740966796875,0.8797249794006348,-1.6066875457763672,-0.06833750009536743
1772402157492797000,0.784796875,0.8530499935150146,-1.1698499917984009,-0.5253875255584717
1772402157512853000,0.80485302734375,0.739062488079071,-0.4230875074863434,-0.9162999987602234
1772402157532909000,0.824908935546875,0.5399624705314636,0.6452875137329102,-1.0495375394821167
1772402157552965000,0.844965087890625,0.39393749833106995,0.8018999695777893,-0.5754374861717224
1772402157573021200,0.865021240234375,0.2330625057220459,0.03272499889135361,0.2022625058889389
1772402157593077200,0.8850771484375,0.1522125005722046,-0.6467999815940857,0.7592750191688538
1772402157613133000,0.905133056640625,0.12870000302791595,-0.9781749844551086,0.9531499743461609
1772402157633189000,0.925189208984375,0.14258749783039093,-1.1027499437332153,1.1449625492095947
1772402157653245200,0.9452451171875,-0.05664999783039093,-0.6223250031471252,0.6975374817848206
1772402157673301200,0.96530126953125,-0.22495000064373016,0.26496249437332153,-0.17489999532699585
1772402157693357300,0.985357421875,-0.4923875033855438,1.2322750091552734,-0.42625001072883606
1772402157713413000,1.0054130859375,-0.7628499865531921,1.2439625263214111,0.26606249809265137
1772402157733469200,1.02546923828125,-0.6681125164031982,0.46956250071525574,0.34168750047683716
1772402157753525200,1.045525146484375,-0.27816250920295715,-0.0471624992787838,-0.1237500011920929
1772402157773581300,1.065581298828125,0.22990000247955322,-0.055687498301267624,-0.9908249974250793
1772402157793637000,1.08563720703125,0.583549976348877,0.38005000352859497,-2.068962574005127
1772402157813693400,1.105693359375,0.7156875133514404,0.7444249987602234,-3.055387496948242
1772402157833749500,1.12574951171875,0.5303375124931335,1.0404624938964844,-3.612537384033203
1772402157853805300,1.145805419921875,0.17022499442100525,1.3292125463485718,-3.445199966430664
1772402157873861400,1.165861328125,-0.06297499686479568,1.1566499471664429,-2.4726624488830566
1772402157893917400,1.18591748046875,-0.1471250057220459,0.40136250853538513,-1.278475046157837
1772402157913973500,1.205973388671875,-0.279262512922287,-0.2069374918937683,-0.5754374861717224
1772402157934029600,1.226029541015625,-0.3730374872684479,-0.25052499771118164,-0.5094375014305115
1772402157954085600,1.246085693359375,-0.4464625120162964,-0.15358750522136688,-0.5328124761581421
1772402157974141400,1.266141357421875,-0.45925000309944153,-0.23567499220371246,-0.550962507724762
1772402157994197500,1.286197509765625,-0.4071374833583832,0.013612499460577965,-0.8065750002861023
1772402158014253800,1.30625390625,-0.3656125068664551,0.3609375059604645,-0.9429749846458435
1772402158034309600,1.3263095703125,-0.3517250120639801,0.4248749911785126,-1.020662546157837
1772402158054365700,1.34636572265625,-0.2451625019311905,0.32147499918937683,-1.1272250413894653
1772402158074422000,1.366422119140625,0.057337500154972076,0.16706250607967377,-1.1815375089645386
1772402158094477800,1.386477783203125,0.40136250853538513,0.12443749606609344,-1.0547624826431274
1772402158114534000,1.406533935546875,0.5047624707221985,0.27252501249313354,-0.7906249761581421
1772402158134590000,1.42658984375,0.2662000060081482,0.5057250261306763,-0.5339124798774719
1772402158154646000,1.44664599609375,-0.17270000278949738,0.43546250462532043,-0.19827499985694885
1772402158174702000,1.4667021484375,-0.42625001072883606,0.1457500010728836,0.21285000443458557
1772402158194758100,1.486758056640625,-0.3858250081539154,-0.233474999666214,0.5729625225067139
1772402158214814200,1.506814208984375,-0.2761000096797943,-0.3922874927520752,0.8435624837875366
1772402158234870000,1.5268701171875,-0.4881249964237213,-0.07369999587535858,0.8893499970436096
1772402158254926000,1.546926025390625,-0.9876624941825867,0.3161124885082245,0.775362491607666
1772402158274982400,1.566982421875,-1.4393500089645386,0.38005000352859497,0.8381999731063843
1772402158295038000,1.587037841796875,-1.4126750230789185,0.0999625027179718,1.326050043106079
1772402158315094300,1.60709423828125,-0.9631875157356262,-0.454025000333786,1.750100016593933
1772402158335150300,1.627150390625,-0.6488624811172485,-0.955762505531311,2.1836373805999756
1772402158355206100,1.6472060546875,-0.652162492275238,-1.004712462425232,2.68111252784729
1772402158375262200,1.66726220703125,-0.6254875063896179,-0.43271249532699585,2.5799124240875244
1772402158395318300,1.687318359375,-0.3207874894142151,0.3405874967575073,1.7137999534606934
1772402158415374000,1.7073740234375,-0.0012374999932944775,0.813587486743927,0.9766625165939331
1772402158435430400,1.727430419921875,0.19263750314712524,0.7785249948501587,0.8424624800682068
1772402158455486200,1.747486328125,0.2639999985694885,0.5355625152587891,1.0938124656677246
1772402158475542300,1.767542236328125,0.3151499927043915,0.3320625126361847,1.4261499643325806
1772402158495598300,1.787598388671875,0.44728749990463257,0.30236250162124634,1.8203624486923218
1772402158515654400,1.807654296875,0.5952374935150146,0.36726251244544983,2.2197999954223633
1772402158535710200,1.827710205078125,0.7338374853134155,0.23086249828338623,2.4701874256134033
1772402158555766500,1.8477666015625,0.8691374659538269,-0.26551249623298645,2.4872374534606934
1772402158575822600,1.867822509765625,0.9766625165939331,-0.7778375148773193,2.2219998836517334
1772402158595878400,1.88787841796875,1.032075047492981,-1.0729124546051025,1.7287875413894653
1772402158615934500,1.9079345703125,1.0522874593734741,-1.038812518119812,1.0799249410629272
1772402158635990500,1.927990478515625,1.2504249811172485,-1.1272250413894653,0.5110874772071838
1772402158656046600,1.948046630859375,1.5103000402450562,-1.7590374946594238,0.282150000333786
1772402158676102400,1.968102294921875,1.6125999689102173,-2.609062433242798,0.3587374985218048
1772402158696158500,1.988158447265625,1.6531624794006348,-2.9616124629974365,0.4109874963760376
1772402158716214500,2.008214599609375,1.6829999685287476,-2.8807625770568848,0.26826250553131104
1772402158736270600,2.0282705078125,1.3377374410629272,-1.280674934387207,-0.8864625096321106
1772402158756326400,2.048326416015625,0.4877125024795532,1.3877874612808228,-2.218012571334839
1772402158776382500,2.068382568359375,-0.1428624987602234,1.8022124767303467,-1.7727874517440796
1772402158796438500,2.0884384765625,-0.46777498722076416,0.571862518787384,-0.5083374977111816
1772402158816494600,2.10849462890625,-0.5328124761581421,-0.36451250314712524,0.6283749938011169
1772402158836550400,2.12855029296875,-0.6456999778747559,-0.08538749814033508,0.8168874979019165
1772402158856606700,2.148606689453125,-1.1496374607086182,1.6189249753952026,0.2586374878883362
1772402158876662800,2.168662841796875,-1.455299973487854,2.6171751022338867,0.6528499722480774
1772402158896718800,2.18871875,-1.0004500150680542,1.6604499816894531,1.5646125078201294
1772402158916774700,2.208774658203125,-0.4805625081062317,0.3044250011444092,1.6913875341415405
1772402158936830700,2.228830810546875,-0.32615000009536743,-0.2527250051498413,1.2791625261306763
1772402158956886800,2.24888671875,-0.17173749208450317,-0.11852499842643738,0.2639999985694885
1772402158976942800,2.26894287109375,0.17668749392032623,0.45141249895095825,-1.0623250007629395
1772402158996999000,2.2889990234375,0.693274974822998,0.7794874906539917,-1.961300015449524
1772402159017055000,2.309054931640625,1.1290124654769897,0.3768875002861023,-1.9944374561309814
1772402159037111000,2.329111083984375,1.2791625261306763,-0.43271249532699585,-1.4882999658584595
1772402159057166800,2.349166748046875,1.3633124828338623,-1.186900019645691,-1.131487488746643
1772402159077223000,2.369222900390625,1.4422374963760376,-1.453237533569336,-1.0782749652862549
1772402159097279000,2.389279052734375,1.3430999517440796,-1.2508374452590942,-1.1815375089645386
1772402159117335000,2.4093349609375,0.8945749998092651,-0.7885624766349792,-1.2667875289916992
1772402159137390800,2.429390869140625,0.1531749963760376,-0.19731250405311584,-1.0729124546051025
1772402159157447000,2.449447021484375,-0.3708375096321106,0.259737491607666,-0.6169624924659729
1772402159177503000,2.4695029296875,-0.5572875142097473,0.46213749051094055,-0.2377374917268753
1772402159197559000,2.48955908203125,-0.49665001034736633,0.5963374972343445,0.03712499886751175
1772402159217614800,2.50961474609375,-0.30703750252723694,0.5505499839782715,0.23526249825954437
1772402159237671000,2.5296708984375,-0.031075000762939453,0.30016249418258667,0.1639000028371811
1772402159257727200,2.549727294921875,0.296999990940094,-0.0471624992787838,-0.07150000333786011
1772402159277783000,2.569782958984375,0.6059625148773193,-0.37097498774528503,-0.19401249289512634
1772402159297839000,2.589839111328125,0.7103250026702881,-0.3889875113964081,-0.38266250491142273
1772402159317895200,2.609895263671875,0.3172124922275543,0.09776250272989273,-0.706475019454956
1772402159337951000,2.629950927734375,-0.32298749685287476,0.48867499828338623,-0.7075750231742859
1772402159358007000,2.650007080078125,-0.7118374705314636,0.37798750400543213,-0.28462499380111694
1772402159378063000,2.67006298828125,-0.8725749850273132,0.09776250272989273,0.21821250021457672
1772402159398119200,2.690119140625,-1.1741124391555786,0.02213750034570694,0.5814874768257141
1772402159418175000,2.710175048828125,-1.5266624689102173,0.3396250009536743,0.7006999850273132
1772402159438231000,2.73023095703125,-1.6278624534606934,0.5227749943733215,0.783887505531311
1772402159458287000,2.750287109375,-1.3242624998092651,0.46309998631477356,0.7199500203132629
1772402159478343200,2.77034326171875,-0.7607874870300293,0.3704249858856201,0.1414874941110611
1772402159498399000,2.79039892578125,-0.6223250031471252,-0.03863750025629997,0.1116499975323677
1772402159518455300,2.810455322265625,-0.7735750079154968,-0.14079999923706055,0.6665999889373779
1772402159538511000,2.830510986328125,-0.735212504863739,0.35241249203681946,0.7134875059127808
1772402159558567200,2.850567138671875,-0.4848249852657318,1.0895500183105469,0.3012624979019165
1772402159578623200,2.870623291015625,-0.3431999981403351,1.4155625104904175,0.2404875010251999
1772402159598679300,2.89067919921875,-0.29315000772476196,1.2322750091552734,0.46956250071525574
1772402159618735000,2.910735107421875,-0.32725000381469727,0.7581750154495239,0.7592750191688538
1772402159638791200,2.930791259765625,-0.3102000057697296,0.6569749712944031,0.9937124848365784
1772402159658847200,2.95084716796875,-0.17489999532699585,0.8487874865531921,1.0491249561309814
1772402159678903300,2.9709033203125,0.0147124994546175,1.1629749536514282,0.8530499935150146
1772402159698959000,2.990958984375,0.2788499891757965,1.135337471961975,0.636900007724762
1772402159719015200,3.01101513671875,0.40246251225471497,0.564300000667572,0.64638751745224
1772402159739071200,3.0310712890625,0.509024977684021,0.06159999966621399,0.693274974822998
1772402159759127300,3.051127197265625,0.6506500244140625,-0.16005000472068787,0.6560124754905701
1772402159779183400,3.071183349609375,0.9084625244140625,-0.3485625088214874,0.4940375089645386
1772402159799239200,3.0912392578125,1.1514250040054321,-0.6745749711990356,0.26179999113082886
1772402159819295500,3.11129541015625,1.266374945640564,-1.0271250009536743,0.047712501138448715
1772402159839351300,3.131351318359375,1.3047374486923218,-1.3594624996185303,-0.19827499985694885
1772402159859407400,3.151407470703125,1.2526249885559082,-1.5064499378204346,-0.41346248984336853
1772402159879463400,3.17146337890625,1.1215875148773193,-1.2199000120162964,-0.7000125050544739
1772402159899519500,3.19151953125,0.9383000135421753,-0.3763374984264374,-1.3956249952316284
1772402159919575300,3.2115751953125,0.7774249911308289,0.6591749787330627,-2.2937750816345215
1772402159939631400,3.23163134765625,0.48124998807907104,0.7156875133514404,-2.175524950027466
1772402159959687400,3.2516875,-0.1046374961733818,0.49197500944137573,-1.3573999404907227
1772402159979743200,3.2717431640625,-1.2423125505447388,1.61576247215271,-0.43697500228881836
1772402159999799300,3.29179931640625,-1.9112499952316284,3.717587471008301,1.5529249906539917
1772402160019855400,3.31185546875,-1.5427500009536743,3.4064249992370605,3.6834874153137207
1772402160039911400,3.331911376953125,-1.0910625457763672,0.22769999504089355,3.93387508392334
1772402160059967500,3.351967529296875,-0.1396999955177307,-1.6673250198364258,2.1836373805999756
1772402160080023600,3.3720234375,0.22357499599456787,-1.0665874481201172,-0.15578749775886536
1772402160100079600,3.39207958984375,0.33219999074935913,0.24695000052452087,-2.0124499797821045
1772402160120135400,3.412135498046875,0.5579749941825867,0.776324987411499,-2.616487503051758
1772402160140191500,3.43219140625,0.693274974822998,0.12017499655485153,-2.3256750106811523
1772402160160247600,3.45224755859375,0.729574978351593,-0.9983875155448914,-1.6673250198364258
1772402160180303600,3.4723037109375,0.8754624724388123,-1.8324625492095947,-1.269950032234192
1772402160200359700,3.492359619140625,1.134374976158142,-2.040225028991699,-1.5683250427246094
1772402160220415500,3.51241552734375,1.2696750164031982,-1.5768499374389648,-1.9731249809265137
1772402160240471600,3.532471435546875,0.9862874746322632,-0.7618874907493591,-2.0263373851776123
1772402160260527900,3.55252783203125,0.4632374942302704,-0.0471624992787838,-1.7664624452590942
1772402160280584000,3.572583984375,-0.06201250106096268,0.18933749198913574,-1.2252625226974487
1772402160300639700,3.5926396484375,-0.40287500619888306,0.1381874978542328,-0.7426375150680542
1772402160320695800,3.61269580078125,-0.5413374900817871,0.18411250412464142,-0.4890874922275543
1772402160340752000,3.632751953125,-0.5029749870300293,0.3928374946117401,-0.4423374831676483
1772402160360807700,3.6528076171875,-0.3815625011920929,0.4652999937534332,-0.4636499881744385
1772402160380863700,3.67286376953125,-0.1280124932527542,0.1755875051021576,-0.45938751101493835
1772402160400919800,3.692919921875,0.23416249454021454,-0.40603750944137573,-0.3741374909877777
1772402160420975900,3.712975830078125,0.5399624705314636,-0.8897625207901001,-0.33467498421669006
1772402160441031700,3.73303173828125,0.7401624917984009,-0.8705124855041504,-0.3858250081539154
1772402160461087700,3.753087646484375,0.7976375222206116,-0.6916249990463257,-0.3815625011920929
1772402160481143800,3.773143798828125,0.7412624955177307,-0.4923875033855438,-0.5754374861717224
1772402160501200000,3.793199951171875,0.45045000314712524,-0.2868250012397766,-0.5765374898910522
1772402160521256000,3.813255859375,0.027499999850988388,-0.21752500534057617,-0.23141250014305115
1772402160541311700,3.833311767578125,-0.4582875072956085,-0.08332499861717224,0.12759999930858612
1772402160561367800,3.853367919921875,-1.1090749502182007,0.2927374839782715,0.43230000138282776
1772402160581423900,3.873423828125,-1.803725004196167,0.9127249717712402,0.5366625189781189
1772402160601479700,3.893479736328125,-2.181849956512451,0.8157874941825867,0.8402624726295471
1772402160621535700,3.91353564453125,-1.9091874361038208,0.6773250102996826,1.1460624933242798
1772402160641591800,3.933591796875,-1.444712519645691,0.509024977684021,1.5039750337600708
1772402160661648000,3.95364794921875,-0.9407749772071838,0.14464999735355377,1.8672499656677246
1772402160681703700,3.97370361328125,-0.8002499938011169,0.328900009393692,1.8149999380111694
1772402160701759700,3.993759765625,-0.643637478351593,0.9116249680519104,0.9531499743461609
1772402160721815800,4.01381591796875,-0.47423750162124634,1.3707374334335327,0.09350000321865082
1772402160741871900,4.033871826171875,-0.3975124955177307,1.7701749801635742,-0.20899999141693115
1772402160761928000,4.053927978515625,-0.3452624976634979,1.90767502784729,0.11591249704360962
1772402160781984000,4.07398388671875,-0.29205000400543213,1.708437442779541,0.7039999961853027
1772402160802039800,4.094039794921875,-0.2079000025987625,1.3377374410629272,1.2100000381469727
1772402160822096000,4.114095947265625,-0.006599999964237213,0.5068249702453613,1.7745749950408936
1772402160842152000,4.13415185546875,0.17022499442100525,0.02956249937415123,2.0323874950408936
1772402160862207700,4.154207763671875,0.48028749227523804,0.2671625018119812,1.7586250305175781
1772402160882263800,4.174263916015625,0.9542499780654907,0.24158750474452972,1.2610124349594116
1772402160902319900,4.19431982421875,1.2430000305175781,-0.21546250581741333,0.8978750109672546
1772402160922376000,4.2143759765625,1.4678125381469727,-0.5754374861717224,0.5153499841690063
1772402160942431700,4.234431640625,1.723425030708313,-0.983537495136261,0.2586374878883362
1772402160962487800,4.25448779296875,1.9844000339508057,-1.6962000131607056,0.2320999950170517
1772402160982544000,4.2745439453125,2.1430749893188477,-2.283050060272217,0.1989624947309494
1772402161002600000,4.294599853515625,2.08023738861084,-2.3331000804901123,0.013612499460577965
1772402161022655700,4.31465576171875,1.7382749319076538,-1.7664624452590942,-0.1993750035762787
1772402161042711800,4.3347119140625,1.1193875074386597,-0.6553249955177307,-0.6660500168800354
1772402161062767900,4.354767822265625,0.5218124985694885,0.4045250117778778,-1.1155375242233276
1772402161082824000,4.374823974609375,0.028599999845027924,0.33742499351501465,-0.5913875102996826
1772402161102879700,4.394879638671875,-0.5253875255584717,0.18837499618530273,0.17765000462532043
1772402161122935800,4.414935791015625,-0.8438374996185303,0.6560124754905701,0.8061624765396118
1772402161142992000,4.434991943359375,-0.6851624846458435,0.952049970626831,1.3345749378204346
1772402161163048000,4.4550478515625,-0.5839625000953674,0.32147499918937683,0.9031000137329102
1772402161183103700,4.475103759765625,-0.2942500114440918,-0.18988749384880066,-0.42102500796318054
1772402161203159800,4.495159912109375,-0.3144625127315521,0.5249750018119812,-0.3730374872684479
1772402161223215900,4.5152158203125,-0.28146249055862427,0.42899999022483826,0.5654000043869019
1772402161243272000,4.53527197265625,-0.24199999868869781,0.20006249845027924,0.8604750037193298
1772402161263327700,4.55532763671875,-0.005499999970197678,-0.006599999964237213,-0.17379999160766602
1772402161283383800,4.5753837890625,0.3353624939918518,0.12223749607801437,-1.630062460899353
1772402161303440000,4.59543994140625,0.44728749990463257,0.2703250050544739,-2.5590124130249023
1772402161323496000,4.615495849609375,0.4078249931335449,0.20006249845027924,-2.7645750045776367
1772402161343551700,4.6355517578125,0.24488750100135803,0.0999625027179718,-2.4726624488830566
1772402161363607800,4.65560791015625,-0.002337499987334013,0.1424500048160553,-1.869724988937378
1772402161383663900,4.675663818359375,-0.2877874970436096,0.19580000638961792,-1.230625033378601
1772402161403720000,4.695719970703125,-0.4582875072956085,0.2862749993801117,-0.9535624980926514
1772402161423775700,4.715775634765625,-0.5350124835968018,0.38321250677108765,-0.8608874678611755
1772402161443831800,4.735831787109375,-0.6829624772071838,0.5813499689102173,-0.8162000179290771
1772402161463888000,4.755887939453125,-0.8395749926567078,0.8977375030517578,-1.0143375396728516
1772402161483944000,4.77594384765625,-0.8034124970436096,1.1885499954223633,-1.3338874578475952
1772402161504000000,4.796,-0.4881249964237213,1.2066999673843384,-1.4873374700546265
1772402161524055800,4.816055908203125,-0.08332499861717224,1.033037543296814,-1.37871253490448
1772402161544111900,4.83611181640625,0.21504999697208405,0.7262749671936035,-1.3285249471664429
1772402161564168000,4.85616796875,0.5314375162124634,0.23416249454021454,-1.4521374702453613
1772402161584224000,4.87622412109375,0.7976375222206116,-0.10779999941587448,-1.497925043106079
1772402161604279800,4.89627978515625,0.6261749863624573,0.4109874963760376,-1.6332249641418457
1772402161624336000,4.9163359375,0.06696250289678574,0.7166500091552734,-1.1442749500274658
1772402161644392000,4.936391845703125,-0.35062500834465027,0.5014625191688538,-0.3315125107765198
1772402161664448000,4.956447998046875,-0.6478999853134155,0.18837499618530273,0.3077250123023987
1772402161684503800,4.97650390625,-0.7596874833106995,0.09459999948740005,0.7134875059127808
1772402161704559900,4.996559814453125,-0.7926874756813049,0.15633749961853027,1.0033375024795532
1772402161724616000,5.016615966796875,-0.9972875118255615,0.19359999895095825,1.0841875076293945
1772402161744672000,5.036672119140625,-1.3700499534606934,0.18933749198913574,1.1460624933242798
1772402161764727800,5.056727783203125,-1.6417499780654907,0.038087498396635056,1.1290124654769897
1772402161784784000,5.076783935546875,-1.5149749517440796,-0.04496249929070473,0.9266124963760376
1772402161804840000,5.09683984375,-1.2827374935150146,-0.08332499861717224,0.8647375106811523
1772402161824895700,5.116895751953125,-1.1581624746322632,-0.03753750026226044,1.2535874843597412
1772402161844951800,5.136951904296875,-1.048437476158142,0.36616250872612,1.4858249425888062
1772402161865007900,5.1570078125,-0.8140000104904175,1.0032000541687012,1.12681245803833
1772402161885063700,5.177063720703125,-0.47533750534057617,1.3792624473571777,0.7635374665260315
1772402161905119700,5.19711962890625,-0.2601499855518341,1.39205002784729,0.7497875094413757
1772402161925175800,5.21717578125,-0.26963749527931213,1.4101999998092651,0.8722999691963196
1772402161945232000,5.23723193359375,-0.36024999618530273,1.6455999612808228,0.8967750072479248
1772402161965287700,5.25728759765625,-0.33783748745918274,1.658387541770935,1.1534874439239502
1772402161985343700,5.27734375,-0.18768750131130219,1.4090999364852905,1.4517250061035156
1772402162005399800,5.29739990234375,0.15427500009536743,1.1811250448226929,1.5434374809265137
1772402162025455900,5.317455810546875,0.517549991607666,0.8828874826431274,1.4804625511169434
1772402162045512000,5.337511962890625,0.7316374778747559,0.30758750438690186,1.4357750415802002
1772402162065567700,5.357567626953125,0.7466250061988831,-0.18658749759197235,1.3078999519348145
1772402162085623800,5.377623779296875,0.858412504196167,-0.5200250148773193,1.0352375507354736
1772402162105680000,5.397679931640625,1.0448625087738037,-1.0771750211715698,0.8615750074386597
1772402162125736000,5.41773583984375,1.1193875074386597,-1.5246000289916992,0.7103250026702881
1772402162145791700,5.437791748046875,1.135337471961975,-1.6737874746322632,0.5707625150680542
1772402162165847800,5.457847900390625,1.0789624452590942,-1.6715874671936035,0.41635000705718994
1772402162185903900,5.47790380859375,0.7688999772071838,-1.5246000289916992,0.07328750193119049
1772402162205960000,5.4979599609375,0.3546124994754791,-1.1475750207901,-0.5126000046730042
1772402162226015700,5.518015625,0.045649997889995575,-0.3539249897003174,-1.1474374532699585
1772402162246071800,5.53807177734375,-0.021449999883770943,0.6389625072479248,-1.5075500011444092
1772402162266128000,5.5581279296875,0.12127500027418137,1.0810250043869019,-1.179474949836731
1772402162286184000,5.578183837890625,0.1872749924659729,0.9169874787330627,-0.5115000009536743
1772402162306239700,5.59823974609375,0.0424874983727932,0.4152500033378601,-0.14300000667572021
1772402162326295800,5.6182958984375,0.4419249892234802,-0.2942500114440918,0.23732499778270721
1772402162346351900,5.638351806640625,0.5761250257492065,-0.8918250203132629,2.062225103378296
1772402162366407700,5.65840771484375,0.16169999539852142,-1.2167375087738037,2.8824124336242676
1772402162386463700,5.678463623046875,-0.255887508392334,-0.31130000948905945,1.938612461090088
1772402162406519800,5.698519775390625,-0.46035000681877136,0.637862503528595,0.10958749800920486
1772402162426575600,5.71857568359375,-0.15248750150203705,0.9724000096321106,-1.296625018119812
1772402162446631700,5.738631591796875,0.05623750016093254,0.6654999852180481,-1.5937625169754028
1772402162466687700,5.758687744140625,0.060499999672174454,0.12127500027418137,-1.1655875444412231
1772402162486743800,5.778743896484375,-0.006599999964237213,-0.21752500534057617,-0.7618874907493591
1772402162506799900,5.7987998046875,-0.021449999883770943,-0.29534998536109924,-0.7053750157356262
1772402162526855700,5.818855712890625,0.07644999772310257,-0.255887508392334,-0.8599249720573425
1772402162546911700,5.838911865234375,0.2139499932527542,-0.24310000240802765,-1.030287504196167
1772402162566967800,5.8589677734375,0.27678748965263367,-0.2666124999523163,-0.910937488079071
1772402162587024000,5.87902392578125,0.24488750100135803,-0.4465999901294708,-0.5285499691963196
1772402162607079700,5.89907958984375,0.18411250412464142,-0.5200250148773193,-0.15248750150203705
1772402162627135700,5.9191357421875,0.16279999911785126,-0.31872498989105225,-0.00976249948143959
1772402162647191800,5.93919189453125,0.12759999930858612,-0.14190000295639038,-0.08758749812841415
1772402162667247900,5.959247802734375,-0.0012374999932944775,-0.05884999781847,-0.2143625020980835
1772402162687304000,5.979303955078125,-0.1993750035762787,0.08717499673366547,-0.37097498774528503
1772402162707359700,5.99935986328125,-0.3326124846935272,0.1755875051021576,-0.4433000087738037
1772402162727415800,6.019415771484375,-0.31872498989105225,0.15853749215602875,-0.3400374948978424
1772402162747471600,6.0394716796875,-0.24089999496936798,0.19263750314712524,-0.16431249678134918
1772402162767527700,6.059527587890625,-0.19511249661445618,0.1755875051021576,-0.06407500058412552
1772402162787583700,6.079583740234375,-0.21216249465942383,0.05087500065565109,-0.029975000768899918
1772402162807639800,6.099639892578125,-0.30703750252723694,0.007287499960511923,-0.06201250106096268
1772402162827695900,6.11969580078125,-0.3815625011920929,0.0008249999955296516,-0.18232500553131104
1772402162847751400,6.13975146484375,-0.4295499920845032,-0.0034374999813735485,-0.1993750035762787
1772402162867807500,6.159807373046875,-0.4881249964237213,0.08181250095367432,-0.14822499454021454
1772402162887863600,6.179863525390625,-0.5669124722480774,0.14891250431537628,-0.22921249270439148
1772402162907919600,6.199919677734375,-0.6542249917984009,0.09569999575614929,-0.2985124886035919
1772402162927975400,6.219975341796875,-0.7628499865531921,0.03918749839067459,-0.3783999979496002
1772402162948031500,6.240031494140625,-0.8364124894142151,0.1424500048160553,-0.31872498989105225
1772402162968087600,6.260087646484375,-0.8002499938011169,0.2777499854564667,-0.05348749831318855
1772402162988143400,6.280143310546875,-0.606374979019165,0.3385249972343445,0.2895750105381012
1772402163008199400,6.300199462890625,-0.2866874933242798,0.334262490272522,0.6028000116348267
1772402163028255500,6.32025537109375,-0.06833750009536743,0.26922500133514404,0.7423624992370605
1772402163048311600,6.3403115234375,-0.082225002348423,0.18191249668598175,0.6793875098228455
1772402163068367600,6.36036767578125,-0.10670000314712524,0.0966624990105629,0.5676000118255615
1772402163088423400,6.38042333984375,0.027499999850988388,0.3161124885082245,0.19043749570846558
1772402163108479500,6.4004794921875,0.1457500010728836,0.9053000211715698,-0.11096250265836716
1772402163128535600,6.42053564453125,0.030662499368190765,1.431512475013733,0.15963749587535858
1772402163148591600,6.440591552734375,-0.16417500376701355,1.5082374811172485,0.7796249985694885
1772402163168647700,6.460647705078125,-0.30277499556541443,1.2802624702453613,1.2291125059127808
1772402163188703500,6.480703369140625,-0.18658749759197235,0.739062488079071,1.5870250463485718
1772402163208759600,6.500759521484375,0.015812499448657036,0.08181250095367432,1.9321500062942505
1772402163228815600,6.520815673828125,0.2363625019788742,-0.28888750076293945,1.9184000492095947
1772402163248871400,6.540871337890625,0.36410000920295715,-0.33797499537467957,1.475237488746643
1772402163268927500,6.560927490234375,0.3694624900817871,-0.22714999318122864,0.7710999846458435
1772402163288983600,6.580983642578125,0.2745875120162964,-0.12484999746084213,0.17448750138282776
1772402163309039600,6.60103955078125,0.13089999556541443,-0.022549999877810478,-0.2186249941587448
1772402163329095400,6.621095458984375,0.04138749837875366,0.05087500065565109,-0.42528748512268066
1772402163349151500,6.6411513671875,0.13516250252723694,-0.04496249929070473,-0.3198249936103821
1772402163369207600,6.66120751953125,0.20432500541210175,-0.09817499667406082,-0.18768750131130219
1772402163389263400,6.681263427734375,0.12553749978542328,-0.00976249948143959,-0.2569875121116638
1772402163409319400,6.7013193359375,-0.018287500366568565,0.003987499978393316,-0.3750999867916107
1772402163429375500,6.72137548828125,-0.22811250388622284,-0.05238749831914902,-0.5733749866485596
1772402163449431600,6.741431640625,-0.5413374900817871,-0.29534998536109924,-1.187999963760376
1772402163469487400,6.7614873046875,-0.7085375189781189,0.41208750009536743,-3.5506625175476074
1772402163489543400,6.78154345703125,-0.505174994468689,2.6980249881744385,-2.56107497215271
1772402163509599500,6.801599609375,0.32573750615119934,2.375312566757202,1.8618874549865723
1772402163529655600,6.821655517578125,0.5579749941825867,-0.4582875072956085,3.8284125328063965
1772402163549711600,6.841711669921875,0.0882750004529953,-1.7184749841690063,2.953774929046631
1772402163569767400,6.861767333984375,-0.32615000009536743,-0.3698749840259552,0.4760249853134155
1772402163589823500,6.881823486328125,-0.1695374995470047,1.13423752784729,-1.611912488937378
1772402163609879600,6.901879638671875,0.011549999937415123,1.1842875480651855,-1.8601000308990479
1772402163629935600,6.921935546875,0.1564749926328659,0.29809999465942383,-1.0324875116348267
1772402163649991400,6.941991455078125,0.21821250021457672,-0.7490999698638916,-0.22495000064373016
1772402163670047500,6.962047607421875,0.341825008392334,-1.3414499759674072,0.06792499870061874
1772402163690103600,6.982103515625,0.5079249739646912,-1.4873374700546265,-0.07369999587535858
1772402163710159400,7.002159423828125,0.5772249698638916,-1.3179374933242798,-0.5200250148773193
1772402163730215400,7.02221533203125,0.5132874846458435,-0.9717124700546265,-0.9344499707221985
1772402163750271500,7.042271484375,0.3993000090122223,-0.6564249992370605,-1.1752125024795532
1772402163770327600,7.06232763671875,0.38005000352859497,-0.5424374938011169,-1.195425033569336
1772402163790383400,7.08238330078125,0.4908750057220459,-0.6340125203132629,-1.113337516784668
1772402163810439400,7.102439453125,0.6539499759674072,-0.7555624842643738,-1.0942250490188599
1772402163830495200,7.1224951171875,0.7816874980926514,-0.9227625131607056,-1.122962474822998
1772402163850551300,7.14255126953125,0.821150004863739,-1.0356500148773193,-1.2551000118255615
1772402163870607400,7.162607421875,0.6793875098228455,-0.9739124774932861,-1.528862476348877
1772402163890663400,7.182663330078125,0.3961375057697296,-0.706475019454956,-1.6832749843597412
1772402163910719500,7.202719482421875,0.17338749766349792,-0.34966251254081726,-1.5746500492095947
1772402163930775300,7.222775390625,0.16279999911785126,-0.07479999959468842,-1.2571624517440796
1772402163950831400,7.242831298828125,0.21821250021457672,-0.07369999587535858,-0.8727124929428101
1772402163970887400,7.262887451171875,0.09886249899864197,-0.18768750131130219,-0.5530250072479248
1772402163990943500,7.282943603515625,-0.14506250619888306,-0.21642500162124634,-0.3091000020503998
1772402164010999300,7.302999267578125,-0.3102000057697296,-0.11096250265836716,-0.1652749925851822
1772402164031055400,7.323055419921875,-0.2601499855518341,0.01677500084042549,-0.0705375000834465
1772402164051111400,7.343111328125,-0.21326249837875366,0.13296249508857727,0.049912501126527786
1772402164071167500,7.36316748046875,-0.33041250705718994,0.334262490272522,0.20432500541210175
1772402164091223300,7.383223388671875,-0.505174994468689,0.518512487411499,0.14891250431537628
1772402164111279400,7.403279296875,-0.7255874872207642,0.7038624882698059,0.03396249935030937
1772402164131335400,7.42333544921875,-0.8395749926567078,0.7539125084877014,0.21285000443458557
1772402164151391500,7.4433916015625,-0.8162000179290771,0.6230124831199646,0.5824499726295471
1772402164171447600,7.463447509765625,-0.5689749717712402,0.4716250002384186,0.9319750070571899
1772402164191503400,7.48350341796875,-0.22384999692440033,0.06476250290870667,1.2589499950408936
1772402164211559400,7.503559326171875,-0.08332499861717224,-0.27293750643730164,1.326050043106079
1772402164231615500,7.523615478515625,-0.17270000278949738,0.036024998873472214,0.941462516784668
1772402164251671300,7.54367138671875,-0.2303124964237213,0.6272749900817871,0.4226749837398529
1772402164271727400,7.563727294921875,-0.19511249661445618,1.1279125213623047,0.15537500381469727
1772402164291783400,7.583783447265625,-0.1652749925851822,1.3036375045776367,0.2213750034570694
1772402164311839500,7.603839599609375,-0.14506250619888306,1.2897499799728394,0.43972501158714294
1772402164331895300,7.623895263671875,-0.035337500274181366,1.0500874519348145,0.8051999807357788
1772402164351951400,7.643951416015625,-0.07686249911785126,0.6762250065803528,1.1045374870300293
1772402164372007400,7.66400732421875,0.1457500010728836,0.6367624998092651,1.2302124500274658
1772402164392063200,7.684063232421875,0.37908750772476196,0.31831249594688416,1.1321749687194824
1772402164412119300,7.704119384765625,0.6421250104904175,-0.10670000314712524,0.9488874673843384
1772402164432175400,7.72417529296875,0.8743624687194824,-0.5435374975204468,0.7444249987602234
1772402164452231400,7.7442314453125,1.007599949836731,-0.9961875081062317,0.6272749900817871
1772402164472287200,7.764287353515625,1.0459624528884888,-1.4341249465942383,0.5516499876976013
1772402164492343300,7.78434326171875,1.0693374872207642,-1.7835124731063843,0.571862518787384
1772402164512399400,7.8043994140625,1.0800625085830688,-2.051912546157837,0.5483499765396118
1772402164532455400,7.824455322265625,1.1556874513626099,-2.0593373775482178,0.38651248812675476
1772402164552511200,7.84451123046875,1.0480250120162964,-1.702525019645691,0.20858749747276306
1772402164572567300,7.8645673828125,0.693274974822998,-1.1741124391555786,0.028599999845027924
1772402164592623400,7.884623291015625,0.4760249853134155,-0.6169624924659729,-0.28888750076293945
1772402164612679400,7.904679443359375,0.4940375089645386,0.04881250113248825,-0.808775007724762
1772402164632735500,7.924735595703125,0.3546124994754791,0.44398748874664307,-1.0899624824523926
1772402164652791300,7.944791259765625,0.08923749625682831,0.6719624996185303,-0.15152500569820404
1772402164672847400,7.964847412109375,-0.4881249964237213,1.0000375509262085,0.978725016117096
1772402164692903400,7.9849033203125,-1.038812518119812,1.023550033569336,1.0480250120162964
1772402164712959500,8.00495947265625,-0.7416750192642212,0.5515124797821045,0.6656374931335449
1772402164733015600,8.025015625,-0.2952125072479248,0.12333749979734421,0.7060624957084656
1772402164753071400,8.0450712890625,-0.03217500075697899,-0.27293750643730164,0.9073625206947327
1772402164773127400,8.06512744140625,0.004124999977648258,-0.3667125105857849,0.6730625033378601
1772402164793183500,8.08518359375,0.043449997901916504,-0.24529999494552612,-0.233474999666214
1772402164813239600,8.105239501953125,0.09033749997615814,-0.14506250619888306,-1.2817749977111816
1772402164833295400,8.12529541015625,0.07548750191926956,-0.25905001163482666,-1.8484125137329102
1772402164853351400,8.145351318359374,-0.057750001549720764,-0.3176249861717224,-1.8495124578475952
1772402164873407500,8.165407470703125,-0.11948750168085098,-0.2793999910354614,-1.6246999502182007
1772402164893463300,8.18546337890625,0.06270000338554382,-0.29205000400543213,-1.3403500318527222
1772402164913519400,8.205519287109375,0.32477501034736633,-0.3507624864578247,-1.130387544631958
1772402164933575400,8.225575439453126,0.5303375124931335,-0.5275874733924866,-0.9546625018119812
1772402164953631200,8.24563134765625,0.5644375085830688,-0.8013499975204468,-0.7053750157356262
1772402164973687300,8.265687255859374,0.36410000920295715,-0.8727124929428101,-0.46681249141693115
1772402164993743400,8.285743408203125,0.19470000267028809,-0.5148000121116638,-0.5381749868392944
1772402165013799400,8.30579931640625,0.11384999752044678,-0.06201250106096268,-0.7255874872207642
1772402165033855500,8.32585546875,0.010449999943375587,0.17132499814033508,-0.781000018119812
1772402165053911600,8.34591162109375,-0.016224998980760574,0.1531749963760376,-0.6905249953269958
1772402165073967400,8.36596728515625,0.0019249999895691872,-0.02474999986588955,-0.45086249709129333
1772402165094023400,8.3860234375,-0.020487500354647636,-0.08758749812841415,-0.31652501225471497
1772402165114079500,8.40607958984375,0.010449999943375587,0.04661250114440918,-0.42844998836517334
1772402165134135600,8.426135498046875,0.038224998861551285,0.03698749840259552,-0.6169624924659729
1772402165154191400,8.44619140625,-0.027912499383091927,-0.09391249716281891,-0.910937488079071
1772402165174247400,8.466247314453126,-0.15565000474452972,-0.14300000667572021,-0.9151999950408936
1772402165194303500,8.486303466796874,-0.279262512922287,-0.07163749635219574,-0.8034124970436096
1772402165214359300,8.506359375,-0.45182499289512634,0.1915374994277954,-0.6212249994277954
1772402165234415600,8.52641552734375,-0.7022125124931335,0.2714250087738037,-0.5850625038146973
1772402165254471400,8.546471435546875,-0.9728124737739563,0.564300000667572,-0.9301875233650208
1772402165274527500,8.566527587890626,-1.1548625230789185,0.739062488079071,-0.9950875043869019
1772402165294583600,8.58658349609375,-1.0015499591827393,0.3619000017642975,-0.5285499691963196
1772402165314639600,8.6066396484375,-0.7746750116348267,-0.18878750503063202,0.4823499917984009
1772402165334695700,8.62669580078125,-0.4422000050544739,-0.6308500170707703,1.5199249982833862
1772402165354751500,8.64675146484375,-0.36451250314712524,-0.3997125029563904,1.9108375310897827
1772402165374807600,8.6668076171875,-0.3793624937534332,0.767799973487854,1.2717374563217163
1772402165394863600,8.686863525390624,-0.2611125111579895,1.6700749397277832,0.5687000155448914
1772402165414919400,8.70691943359375,-0.057750001549720764,1.5859249830245972,0.6879125237464905
1772402165434975500,8.7269755859375,0.12017499655485153,1.0810250043869019,1.0927125215530396
1772402165455031600,8.747031494140625,0.2022625058889389,0.9084625244140625,1.2865874767303467
1772402165475087400,8.76708740234375,0.21285000443458557,0.932937502861023,1.2941499948501587
1772402165495143400,8.787143310546876,0.33646249771118164,0.7794874906539917,1.3888875246047974
1772402165515199500,8.807199462890624,0.4717625081539154,0.305525004863739,1.4869250059127808
1772402165535255600,8.827255615234375,0.6250749826431274,-0.14190000295639038,1.5358749628067017
1772402165555311400,8.847311279296875,0.8061624765396118,-0.5029749870300293,1.4880249500274658
1772402165575367400,8.867367431640625,0.9255124926567078,-0.6936874985694885,1.1534874439239502
1772402165595423500,8.887423583984376,1.0459624528884888,-0.6671500205993652,0.6080250144004822
1772402165615479600,8.9074794921875,1.0895500183105469,-0.8141375184059143,0.3353624939918518
1772402165635535400,8.927535400390624,1.1438624858856201,-1.1635249853134155,0.26606249809265137
1772402165655591400,8.94759130859375,1.2557874917984009,-1.4852750301361084,0.21078750491142273
1772402165675647500,8.9676474609375,1.2450624704360962,-1.555537462234497,0.20432500541210175
1772402165695703300,8.987703369140625,1.0650750398635864,-1.2636250257492065,0.09776250272989273
1772402165715759400,9.00775927734375,0.5676000118255615,-0.6500999927520752,-0.31226250529289246
1772402165735815400,9.0278154296875,0.09350000321865082,0.05939999967813492,-0.9706124663352966
1772402165755871500,9.04787158203125,0.09776250272989273,0.5792874693870544,-1.3008874654769897
1772402165775927300,9.06792724609375,0.06792499870061874,0.6102250218391418,-0.523187518119812
1772402165795983400,9.0879833984375,-0.24310000240802765,0.8178499937057495,0.6986374855041504
1772402165816039400,9.108039306640626,-0.32298749685287476,1.2461625337600708,1.5955499410629272
1772402165836095200,9.12809521484375,-0.5999125242233276,1.0192874670028687,1.8501999378204346
1772402165856151300,9.1481513671875,-0.4305124878883362,-0.21972499787807465,1.532712459564209
1772402165876207400,9.168207275390625,-0.1461624950170517,-0.47850000858306885,0.4525125026702881
1772402165896263400,9.188263427734375,-0.09075000137090683,0.28737500309944153,-0.44013750553131104
1772402165916319200,9.2083193359375,-0.1652749925851822,0.40988749265670776,-0.196212500333786
1772402165936375300,9.228375244140626,-0.14822499454021454,-0.05348749831318855,0.1989624947309494
1772402165956431400,9.248431396484374,0.2096875011920929,-0.35708749294281006,-0.10559999942779541
1772402165976487400,9.2684873046875,0.41635000705718994,-0.5083374977111816,-0.7426375150680542
1772402165996543200,9.288543212890625,0.4717625081539154,-0.5083374977111816,-1.3839374780654907
1772402166016599300,9.308599365234375,0.526075005531311,-0.606374979019165,-1.6737874746322632
1772402166036655400,9.3286552734375,0.5292375087738037,-0.5893250107765198,-1.7546374797821045
1772402166056711400,9.34871142578125,0.2938374876976013,-0.2623499929904938,-1.5789124965667725
1772402166076767200,9.368767333984374,0.01691249944269657,0.06366249918937683,-1.2263624668121338
1772402166096823300,9.3888232421875,-0.16321249306201935,-0.0471624992787838,-0.938712477684021
1772402166116879400,9.40887939453125,-0.3059374988079071,-0.3443000018596649,-0.6627500057220459
1772402166136935400,9.428935302734375,-0.42844998836517334,-0.37950000166893005,-0.4338124990463257
1772402166156991200,9.4489912109375,-0.4380750060081482,-0.2410375028848648,-0.5029749870300293
1772402166177047000,9.469047119140624,-0.3326124846935272,-0.12911249697208405,-0.6212249994277954
1772402166197103000,9.48910302734375,-0.18232500553131104,-0.18878750503063202,-0.468874990940094
1772402166217159200,9.5091591796875,-0.03849999979138374,-0.2377374917268753,-0.11742500215768814
1772402166237215200,9.52921533203125,0.13832500576972961,-0.3431999981403351,0.14685000479221344
1772402166257271300,9.549271240234376,0.17765000462532043,-0.3772999942302704,0.13928750157356262
1772402166277327000,9.5693271484375,0.12333749979734421,-0.2825624942779541,0.1648624986410141
1772402166297383200,9.589383056640624,0.023237500339746475,-0.07479999959468842,0.26179999113082886
1772402166317439200,9.609439208984375,-0.13653749227523804,0.03382499888539314,0.3950375020503998
1772402166337495000,9.6294951171875,-0.2942500114440918,-0.016224998980760574,0.636900007724762
1772402166357551000,9.649551025390625,-0.47533750534057617,-0.01732499897480011,0.9574124813079834
1772402166377607200,9.669607177734376,-0.6158624887466431,0.20748749375343323,1.3803625106811523
1772402166397663200,9.689663330078124,-0.7149999737739563,0.3246375024318695,1.799049973487854
1772402166417719000,9.709718994140625,-0.80121248960495,-0.09927500039339066,1.7180625200271606
1772402166437775000,9.729775146484375,-1.105912446975708,-0.06943749636411667,1.191849946975708
1772402166457831200,9.7498310546875,-1.3935624361038208,0.47066250443458557,0.5431249737739563
1772402166477887200,9.76988720703125,-1.5246000289916992,1.0107624530792236,0.25657498836517334
1772402166497943300,9.789943359375,-1.1251624822616577,1.36537504196167,0.10628750175237656
1772402166517999000,9.8099990234375,-0.3783999979496002,1.2812249660491943,0.30236250162124634
1772402166538055200,9.83005517578125,0.16279999911785126,0.7177500128746033,0.5995000004768372
1772402166558111200,9.850111328125,0.25657498836517334,0.4684624969959259,0.5739250183105469
1772402166578167000,9.8701669921875,0.3172124922275543,0.6017000079154968,0.09679999947547913
1772402166598223000,9.89022314453125,0.4078249931335449,0.7614749670028687,-0.2110625058412552
1772402166618279200,9.910279052734374,0.42061248421669006,0.8903124928474426,-0.08428750187158585
1772402166638335000,9.9303349609375,0.4973374903202057,0.7624375224113464,0.20006249845027924
1772402166658390800,9.950390869140625,0.6358000040054321,0.41208750009536743,0.5952374935150146
1772402166678447000,9.970447021484375,0.7561125159263611,-0.004537499975413084,1.006500005722046
1772402166698503000,9.9905029296875,0.8808249831199646,-0.3218874931335449,1.2706375122070312
1772402166718559000,10.01055908203125,0.9596124887466431,-0.4977499842643738,1.190750002861023
1772402166738614800,10.03061474609375,1.0405999422073364,-0.7288874983787537,0.8359999656677246
1772402166758670800,10.0506708984375,0.9746000170707703,-0.8833000063896179,0.5846499800682068
1772402166778727000,10.070726806640625,1.023550033569336,-0.9025499820709229,0.4195125102996826
1772402166798783000,10.090782958984375,1.068237543106079,-1.1911624670028687,0.2778874933719635
1772402166818838800,10.1108388671875,0.988349974155426,-1.0814374685287476,-0.10559999942779541
1772402166838894800,10.130894775390624,0.7987374663352966,-0.6489999890327454,-0.47423750162124634
1772402166858951000,10.150950927734375,0.40246251225471497,-0.4977499842643738,-1.0143375396728516
1772402166879006700,10.1710068359375,0.13722500205039978,-0.11948750168085098,-1.4916000366210938
1772402166899062800,10.191062744140625,0.15537500381469727,0.04455000162124634,-1.2869999408721924
1772402166919118800,10.211118896484376,0.31404998898506165,0.3609375059604645,-0.1280124932527542
1772402166939175000,10.2311748046875,0.1872749924659729,0.7123875021934509,1.0352375507354736
1772402166959230700,10.251230712890624,-0.2377374917268753,0.7720624804496765,0.9670374989509583
1772402166979286800,10.271286865234375,-0.7235249876976013,0.90420001745224,0.45567500591278076
1772402166999342800,10.2913427734375,-0.38362500071525574,0.8797249794006348,0.5772249698638916
1772402167019398700,10.311398681640625,0.12127500027418137,0.5387250185012817,1.3877874612808228
1772402167039454700,10.331454833984376,0.32147499918937683,0.18081249296665192,2.0739123821258545
1772402167059510500,10.351510498046874,0.14464999735355377,-0.0705375000834465,1.7212250232696533
1772402167079566600,10.371566650390625,-0.029975000768899918,-0.10573749989271164,0.1681624948978424
1772402167099622700,10.39162255859375,-0.05238749831914902,-0.0034374999813735485,-1.0441750288009644
1772402167119678700,10.4116787109375,-0.08855000138282776,-0.08868750184774399,-1.3509374856948853
1772402167139734500,10.431734619140625,-0.09501250088214874,-0.14932499825954437,-0.9151999950408936
1772402167159790600,10.45179052734375,-0.15991249680519104,-0.4199250042438507,-0.43697500228881836
1772402167179846700,10.4718466796875,-0.11522500216960907,-0.48592498898506165,-0.2675749957561493
1772402167199902500,10.49190234375,-0.03423750028014183,-0.2985124886035919,-0.3772999942302704
1772402167219958500,10.51195849609375,-0.033275000751018524,-0.09817499667406082,-0.46035000681877136
1772402167260070400,10.5520703125,-0.20583750307559967,-0.23883749544620514,-0.41346248984336853
1772402167320238300,10.61223828125,-0.33467498421669006,0.17765000462532043,-0.05348749831318855
1772402167340294400,10.63229443359375,-0.37619999051094055,0.03698749840259552,-0.17063750326633453
1772402167360350200,10.65235009765625,-0.3409999907016754,0.02213750034570694,-0.2441999912261963
1772402167380406300,10.67240625,-0.31226250529289246,0.20116250216960907,0.01691249944269657
1772402167400462300,10.69246240234375,-0.22605000436306,0.4503124952316284,0.05939999967813492
1772402167420518400,10.712518310546875,-0.26647499203681946,0.27678748965263367,0.023237500339746475
1772402167440574200,10.73257421875,-0.3772999942302704,0.283112496137619,-0.06201250106096268
1772402167460630300,10.75263037109375,-0.454987496137619,0.4482499957084656,-0.09075000137090683
