time,seconds_elapsed,z,y,x
1772402156991396000,0.28339599609375,8.914050102233887,-8.905050277709961,3.9760501384735107
1772402157011452400,0.303452392578125,9.922050476074219,-9.547050476074219,2.889000177383423
1772402157031508500,0.323508544921875,11.002050399780273,-9.883950233459473,2.5009500980377197
1772402157051564300,0.343564208984375,11.4660005569458,-9.609000205993652,2.934000253677368
1772402157071620400,0.363620361328125,10.66200065612793,-8.97705078125,4.198950290679932
1772402157091676400,0.383676513671875,9.100950241088867,-8.839950561523438,4.974000453948975
1772402157111732500,0.403732421875,6.820950508117676,-9.729000091552734,4.5360002517700195
1772402157131788500,0.42378857421875,4.177950382232666,-10.545000076293945,2.5129501819610596
1772402157151844600,0.4438447265625,2.3560500144958496,-10.702950477600098,0.8299500346183777
1772402157171900400,0.463900390625,2.7150001525878906,-9.991950035095215,0.5040000081062317
1772402157191956700,0.483956787109375,3.871950149536133,-8.869050025939941,0.9709500670433044
1772402157212012800,0.5040126953125,5.041950225830078,-7.657950401306152,1.4310001134872437
1772402157232068900,0.52406884765625,6.072000503540039,-6.772050380706787,1.7539501190185547
1772402157252124700,0.544124755859375,7.209000110626221,-6.312000274658203,1.651050090789795
1772402157272180700,0.5641806640625,7.318950176239014,-5.910000324249268,1.1670000553131104
1772402157292236500,0.584236572265625,6.378000259399414,-5.7300004959106445,0.781950056552887
1772402157312292600,0.604292724609375,5.176050186157227,-5.467050075531006,0.6340500116348267
1772402157332348700,0.6243486328125,3.95805025100708,-5.329950332641602,0.7459500432014465
1772402157352404700,0.64440478515625,2.9760000705718994,-5.25600004196167,0.9259500503540039
1772402157372460800,0.664460693359375,2.5189502239227295,-5.10105037689209,0.9300000667572021
1772402157392516900,0.684516845703125,2.54295015335083,-4.942950248718262,1.2130500078201294
1772402157412573000,0.704572998046875,3.2130000591278076,-4.6720499992370605,1.7160000801086426
1772402157432629000,0.72462890625,3.799950122833252,-4.389000415802002,2.2110002040863037
1772402157452684800,0.744684814453125,4.429050445556641,-4.168950080871582,2.8429501056671143
1772402157472740900,0.764740966796875,5.466000080108643,-3.741000175476074,3.4300501346588135
1772402157492797000,0.784796875,7.579950332641602,-3.3960001468658447,4.111950397491455
1772402157512853000,0.80485302734375,10.767000198364258,-3.271050214767456,5.596950054168701
1772402157532909000,0.824908935546875,13.615950584411621,-3.690000057220459,6.420000076293945
1772402157552965000,0.844965087890625,14.470951080322266,-4.332000255584717,5.829000473022461
1772402157573021200,0.865021240234375,13.324050903320312,-4.780050277709961,4.34505033493042
1772402157593077200,0.8850771484375,11.467950820922852,-4.597949981689453,3.6720001697540283
1772402157613133000,0.905133056640625,10.804950714111328,-4.3060503005981445,3.922950267791748
1772402157633189000,0.925189208984375,9.543000221252441,-4.816050052642822,5.6419501304626465
1772402157653245200,0.9452451171875,7.410000324249268,-7.132950305938721,7.534050464630127
1772402157673301200,0.96530126953125,6.442950248718262,-10.831950187683105,7.3060503005981445
1772402157693357300,0.985357421875,5.682000160217285,-12.156000137329102,4.831050395965576
1772402157713413000,1.0054130859375,2.952000141143799,-12.040950775146484,1.3920000791549683
1772402157733469200,1.02546923828125,-0.41805002093315125,-11.437950134277344,-0.8860500454902649
1772402157753525200,1.045525146484375,-1.8349500894546509,-11.40195083618164,-1.7479500770568848
1772402157773581300,1.065581298828125,-1.8400501012802124,-11.035950660705566,-1.0890001058578491
1772402157793637000,1.08563720703125,-0.6070500016212463,-10.131000518798828,0.4759500324726105
1772402157813693400,1.105693359375,2.3490002155303955,-8.89995002746582,2.359950065612793
1772402157833749500,1.12574951171875,6.013950347900391,-8.10300064086914,3.882000207901001
1772402157853805300,1.145805419921875,9.535950660705566,-7.593000411987305,4.006950378417969
1772402157873861400,1.165861328125,10.980000495910645,-6.985050201416016,2.9509501457214355
1772402157893917400,1.18591748046875,9.757050514221191,-6.772050380706787,2.451000213623047
1772402157913973500,1.205973388671875,7.408050537109375,-6.634950160980225,2.2639501094818115
1772402157934029600,1.226029541015625,5.799000263214111,-6.66195011138916,1.9069501161575317
1772402157954085600,1.246085693359375,5.409000396728516,-6.951000213623047,1.3230000734329224
1772402157974141400,1.266141357421875,4.705049991607666,-7.207050323486328,0.6739500164985657
1772402157994197500,1.286197509765625,4.5610504150390625,-7.41795015335083,0.18300001323223114
1772402158014253800,1.30625390625,5.09505033493042,-7.33905029296875,0.09000000357627869
1772402158034309600,1.3263095703125,5.313000202178955,-7.128000259399414,-0.15300001204013824
1772402158054365700,1.34636572265625,6.136950492858887,-6.847950458526611,-0.46905001997947693
1772402158074422000,1.366422119140625,7.303050518035889,-6.59505033493042,-0.34905001521110535
1772402158094477800,1.386477783203125,8.974050521850586,-6.48900032043457,0.6409500241279602
1772402158114534000,1.406533935546875,9.90000057220459,-6.577950477600098,2.7520501613616943
1772402158134590000,1.42658984375,10.111050605773926,-7.078050136566162,4.507050037384033
1772402158154646000,1.44664599609375,10.314000129699707,-8.293950080871582,4.387950420379639
1772402158174702000,1.4667021484375,9.87600040435791,-9.384000778198242,2.5729501247406006
1772402158194758100,1.486758056640625,9.493050575256348,-9.705000877380371,1.480950117111206
1772402158214814200,1.506814208984375,9.238950729370117,-9.148950576782227,2.5609500408172607
1772402158234870000,1.5268701171875,8.479949951171875,-9.295050621032715,4.753950119018555
1772402158254926000,1.546926025390625,8.19105052947998,-10.777050971984863,5.44605016708374
1772402158274982400,1.566982421875,9.067049980163574,-12.244950294494629,3.8899502754211426
1772402158295038000,1.587037841796875,9.53895092010498,-12.580050468444824,1.672950029373169
1772402158315094300,1.60709423828125,9.63705062866211,-11.553000450134277,1.2679500579833984
1772402158335150300,1.627150390625,9.754050254821777,-11.565000534057617,3.1930501461029053
1772402158355206100,1.6472060546875,7.954050540924072,-12.606000900268555,3.784050226211548
1772402158375262200,1.66726220703125,4.579950332641602,-12.618000984191895,2.0490000247955322
1772402158395318300,1.687318359375,3.259050130844116,-11.634000778198242,1.4209500551223755
1772402158415374000,1.7073740234375,4.774050235748291,-10.357950210571289,1.8190500736236572
1772402158435430400,1.727430419921875,6.457050323486328,-8.9170503616333,2.179949998855591
1772402158455486200,1.747486328125,7.357950210571289,-7.404000282287598,2.095950126647949
1772402158475542300,1.767542236328125,7.414950370788574,-6.420000076293945,1.2850500345230103
1772402158495598300,1.787598388671875,6.544050216674805,-6.301950454711914,0.7339500188827515
1772402158515654400,1.807654296875,4.774050235748291,-5.986050128936768,0.31800001859664917
1772402158535710200,1.827710205078125,2.7490501403808594,-5.563050270080566,0.09495000541210175
1772402158555766500,1.8477666015625,0.8479500412940979,-5.143950462341309,0.034950003027915955
1772402158575822600,1.867822509765625,-0.6600000262260437,-5.160000324249268,0.49500003457069397
1772402158595878400,1.88787841796875,-1.3060500621795654,-4.926000118255615,1.2559500932693481
1772402158615934500,1.9079345703125,-1.1790000200271606,-4.736999988555908,1.6870501041412354
1772402158635990500,1.927990478515625,-0.22605000436306,-4.638000011444092,2.001000165939331
1772402158656046600,1.948046630859375,1.5229500532150269,-4.159950256347656,2.836050033569336
1772402158676102400,1.968102294921875,3.2730002403259277,-3.4080002307891846,3.8800501823425293
1772402158696158500,1.988158447265625,4.675950050354004,-3.184950113296509,5.020050048828125
1772402158716214500,2.008214599609375,6.28695011138916,-2.493000030517578,6.732000350952148
1772402158736270600,2.0282705078125,7.116000175476074,-0.3169500231742859,11.32395076751709
1772402158756326400,2.048326416015625,12.78795051574707,-2.127000093460083,13.435050964355469
1772402158776382500,2.068382568359375,16.615951538085938,-2.473950147628784,10.942950248718262
1772402158796438500,2.0884384765625,17.614049911499023,-3.1900501251220703,9.199950218200684
1772402158816494600,2.10849462890625,16.816951751708984,-4.011000156402588,8.926950454711914
1772402158836550400,2.12855029296875,13.669050216674805,-6.520050525665283,9.468000411987305
1772402158856606700,2.148606689453125,12.385050773620605,-9.613950729370117,7.213050365447998
1772402158876662800,2.168662841796875,9.673050880432129,-12.831000328063965,2.3020501136779785
1772402158896718800,2.18871875,5.203050136566162,-12.939001083374023,-0.6060000061988831
1772402158916774700,2.208774658203125,2.086050033569336,-11.002050399780273,-0.7950000166893005
1772402158936830700,2.228830810546875,0.1290000081062317,-10.516050338745117,-0.6700500249862671
1772402158956886800,2.24888671875,-1.1380500793457031,-9.975000381469727,-1.1869500875473022
1772402158976942800,2.26894287109375,-0.43695002794265747,-9.606000900268555,-0.9739500284194946
1772402158996999000,2.2889990234375,2.2080001831054688,-9.244950294494629,-0.4240500330924988
1772402159017055000,2.309054931640625,4.8480000495910645,-8.503050804138184,0.9300000667572021
1772402159037111000,2.329111083984375,6.133950233459473,-7.279050350189209,2.319000005722046
1772402159057166800,2.349166748046875,6.378000259399414,-5.614950180053711,3.4110002517700195
1772402159077223000,2.369222900390625,7.06095027923584,-4.528050422668457,4.773000240325928
1772402159097279000,2.389279052734375,7.801050186157227,-3.592050075531006,6.154950141906738
1772402159117335000,2.4093349609375,8.643000602722168,-2.5630500316619873,7.593000411987305
1772402159137390800,2.429390869140625,9.784950256347656,-2.63700008392334,7.315950393676758
1772402159157447000,2.449447021484375,9.559950828552246,-3.232950210571289,5.071950435638428
1772402159177503000,2.4695029296875,8.563950538635254,-4.0759501457214355,2.86995005607605
1772402159197559000,2.48955908203125,7.8100504875183105,-4.738950252532959,0.9930000305175781
1772402159217614800,2.50961474609375,6.910050392150879,-5.17995023727417,-0.18900001049041748
1772402159237671000,2.5296708984375,6.217950344085693,-5.320950031280518,-0.6970500349998474
1772402159257727200,2.549727294921875,6.412050247192383,-4.843950271606445,-0.3730500042438507
1772402159277783000,2.569782958984375,7.606950283050537,-4.427999973297119,0.9690000414848328
1772402159297839000,2.589839111328125,8.370000839233398,-3.7789502143859863,3.601950168609619
1772402159317895200,2.609895263671875,9.594000816345215,-3.301950216293335,6.601950168609619
1772402159337951000,2.629950927734375,11.416050910949707,-4.023000240325928,7.548000335693359
1772402159358007000,2.650007080078125,12.34695053100586,-5.038050174713135,5.938950061798096
1772402159378063000,2.67006298828125,12.421051025390625,-5.196000099182129,4.648950099945068
1772402159398119200,2.690119140625,12.01395034790039,-5.335050106048584,4.8949503898620605
1772402159418175000,2.710175048828125,10.891050338745117,-6.942000389099121,5.617950439453125
1772402159438231000,2.73023095703125,10.087050437927246,-9.484050750732422,4.213050365447998
1772402159458287000,2.750287109375,8.401050567626953,-11.469000816345215,2.5819501876831055
1772402159478343200,2.77034326171875,8.641050338745117,-10.53795051574707,2.7619500160217285
1772402159498399000,2.79039892578125,11.416050910949707,-9.613950729370117,3.7510502338409424
1772402159518455300,2.810455322265625,11.365050315856934,-9.901050567626953,3.6570000648498535
1772402159538511000,2.830510986328125,9.193950653076172,-9.918000221252441,3.4080002307891846
1772402159558567200,2.850567138671875,8.914050102233887,-9.037050247192383,3.882000207901001
1772402159578623200,2.870623291015625,9.32295036315918,-7.9860005378723145,4.270050048828125
1772402159598679300,2.89067919921875,8.78700065612793,-6.610950469970703,3.844050168991089
1772402159618735000,2.910735107421875,7.891050338745117,-5.638950347900391,2.884050130844116
1772402159638791200,2.930791259765625,6.550950527191162,-5.176950454711914,1.7089500427246094
1772402159658847200,2.95084716796875,4.867950439453125,-4.959000110626221,0.8590500354766846
1772402159678903300,2.9709033203125,3.538950204849243,-4.816050052642822,0.06405000388622284
1772402159698959000,2.990958984375,2.8470001220703125,-4.854000091552734,-0.06495000422000885
1772402159719015200,3.01101513671875,2.55495023727417,-4.69605016708374,0.11595000326633453
1772402159739071200,3.0310712890625,2.3080501556396484,-4.921050071716309,0.37995001673698425
1772402159759127300,3.051127197265625,1.7479500770568848,-5.043000221252441,0.5710500478744507
1772402159779183400,3.071183349609375,1.294950008392334,-4.938000202178955,0.9780000448226929
1772402159799239200,3.0912392578125,1.4560500383377075,-4.381950378417969,1.88100004196167
1772402159819295500,3.11129541015625,2.482950210571289,-3.742950201034546,3.025050163269043
1772402159839351300,3.131351318359375,4.197000026702881,-3.2400002479553223,3.982950210571289
1772402159859407400,3.151407470703125,6.4960503578186035,-2.7900002002716064,4.813950061798096
1772402159879463400,3.17146337890625,8.623950004577637,-2.328000068664551,5.533950328826904
1772402159899519500,3.19151953125,10.966050148010254,-2.1559500694274902,6.423000335693359
1772402159919575300,3.2115751953125,15.433051109313965,-2.6509501934051514,8.28795051574707
1772402159939631400,3.23163134765625,20.656951904296875,-3.2760002613067627,9.991950035095215
1772402159959687400,3.2516875,24.13905143737793,-4.9930500984191895,12.564000129699707
1772402159979743200,3.2717431640625,23.9809513092041,-9.147000312805176,11.427000999450684
1772402159999799300,3.29179931640625,14.133000373840332,-13.6360502243042,4.0570502281188965
1772402160019855400,3.31185546875,4.294950008392334,-15.682950973510742,0.4230000078678131
1772402160039911400,3.331911376953125,-2.5630500316619873,-12.448050498962402,-2.6290500164031982
1772402160059967500,3.351967529296875,-7.078050136566162,-9.973050117492676,-3.0859501361846924
1772402160080023600,3.3720234375,-5.826000213623047,-9.954000473022461,-0.8830500245094299
1772402160100079600,3.39207958984375,-1.7419500350952148,-9.855000495910645,-0.05505000427365303
1772402160120135400,3.412135498046875,2.1600000858306885,-9.688050270080566,0.9970500469207764
1772402160140191500,3.43219140625,4.324050426483154,-8.842950820922852,1.5700501203536987
1772402160160247600,3.45224755859375,5.196000099182129,-7.698000431060791,1.5670500993728638
1772402160180303600,3.4723037109375,5.044950008392334,-6.408000469207764,1.579050064086914
1772402160200359700,3.492359619140625,5.832000255584717,-5.0530500411987305,2.4559500217437744
1772402160220415500,3.51241552734375,7.918050289154053,-4.579050064086914,4.3090500831604
1772402160240471600,3.532471435546875,9.682050704956055,-4.164000034332275,5.779050350189209
1772402160260527900,3.55252783203125,10.492050170898438,-4.042050361633301,5.821950435638428
1772402160280584000,3.572583984375,10.1850004196167,-4.354050159454346,4.194000244140625
1772402160300639700,3.5926396484375,9.109950065612793,-4.942950248718262,2.5230000019073486
1772402160320695800,3.61269580078125,7.968000411987305,-5.599050045013428,1.1890500783920288
1772402160340752000,3.632751953125,7.03695011138916,-5.977050304412842,0.25005000829696655
1772402160360807700,3.6528076171875,6.586950302124023,-6.0610504150390625,-0.6420000195503235
1772402160380863700,3.67286376953125,6.514950275421143,-6.046050071716309,-1.276050090789795
1772402160400919800,3.692919921875,6.927000522613525,-5.989050388336182,-1.0770000219345093
1772402160420975900,3.712975830078125,7.470000267028809,-5.674950122833252,-0.25095000863075256
1772402160441031700,3.73303173828125,8.370000839233398,-5.806950092315674,0.9469500184059143
1772402160461087700,3.753087646484375,8.919000625610352,-6.376950263977051,2.416950225830078
1772402160481143800,3.773143798828125,9.385050773620605,-6.568050384521484,3.813000202178955
1772402160501200000,3.793199951171875,11.100000381469727,-6.516000270843506,5.75700044631958
1772402160521256000,3.813255859375,11.956950187683105,-6.544050216674805,7.179000377655029
1772402160541311700,3.833311767578125,12.321001052856445,-6.403050422668457,7.98900032043457
1772402160561367800,3.853367919921875,11.547000885009766,-8.40195083618164,8.470050811767578
1772402160581423900,3.873423828125,10.90095043182373,-10.987950325012207,7.006950378417969
1772402160601479700,3.893479736328125,10.693050384521484,-12.580050468444824,4.299000263214111
1772402160621535700,3.91353564453125,10.498950958251953,-12.367050170898438,1.8469500541687012
1772402160641591800,3.933591796875,9.996000289916992,-11.479050636291504,1.0740000009536743
1772402160661648000,3.95364794921875,8.48805046081543,-11.329950332641602,1.9410001039505005
1772402160681703700,3.97370361328125,5.586000442504883,-11.296950340270996,2.431950092315674
1772402160701759700,3.993759765625,4.213950157165527,-10.180950164794922,2.6110501289367676
1772402160721815800,4.01381591796875,5.715000152587891,-8.7610502243042,3.2310001850128174
1772402160741871900,4.033871826171875,8.085000038146973,-7.393950462341309,3.3820502758026123
1772402160761928000,4.053927978515625,9.397050857543945,-6.139950275421143,2.596950054168701
1772402160781984000,4.07398388671875,8.803950309753418,-5.275050163269043,1.324950098991394
1772402160802039800,4.094039794921875,7.156050205230713,-5.1820502281188965,-0.22005000710487366
1772402160822096000,4.114095947265625,4.906050205230713,-5.035950183868408,-1.672950029373169
1772402160842152000,4.13415185546875,2.260050058364868,-5.119950294494629,-2.743950128555298
1772402160862207700,4.154207763671875,-0.24795001745224,-5.404950141906738,-3.1870501041412354
1772402160882263800,4.174263916015625,-1.2630000114440918,-5.473950386047363,-2.1480000019073486
1772402160902319900,4.19431982421875,-1.2799500226974487,-5.512050151824951,-0.7999500632286072
1772402160922376000,4.2143759765625,-0.583050012588501,-5.998050212860107,0.44700002670288086
1772402160942431700,4.234431640625,1.3030500411987305,-5.779950141906738,1.633950114250183
1772402160962487800,4.25448779296875,3.2989501953125,-4.974000453948975,2.9800500869750977
1772402160982544000,4.2745439453125,5.46405029296875,-3.9270002841949463,5.158950328826904
1772402161002600000,4.294599853515625,7.981950283050537,-2.814000129699707,7.462050437927246
1772402161022655700,4.31465576171875,10.495950698852539,-2.2870500087738037,9.313050270080566
1772402161042711800,4.3347119140625,12.0600004196167,-1.6290000677108765,10.01205062866211
1772402161062767900,4.354767822265625,14.952000617980957,-2.2300500869750977,9.394050598144531
1772402161082824000,4.374823974609375,16.647001266479492,-2.2729501724243164,7.273050308227539
1772402161102879700,4.394879638671875,16.992000579833984,-2.0220000743865967,5.865000247955322
1772402161122935800,4.414935791015625,15.148050308227539,-3.3480000495910645,3.6409502029418945
1772402161142992000,4.434991943359375,8.956950187683105,-7.698000431060791,3.0949501991271973
1772402161163048000,4.4550478515625,4.152000427246094,-11.70405101776123,3.037050247192383
1772402161183103700,4.475103759765625,4.365000247955322,-12.931950569152832,2.994000196456909
1772402161203159800,4.495159912109375,7.039050102233887,-13.612051010131836,2.299950122833252
1772402161223215900,4.5152158203125,4.89900016784668,-12.985050201416016,1.4880000352859497
1772402161243272000,4.53527197265625,0.37095001339912415,-13.28895092010498,0.8419500589370728
1772402161263327700,4.55532763671875,-2.2039501667022705,-11.91195011138916,0.4320000112056732
1772402161283383800,4.5753837890625,-0.4230000078678131,-10.495050430297852,1.5100500583648682
1772402161303440000,4.59543994140625,3.100950241088867,-9.304950714111328,2.974950075149536
1772402161323496000,4.615495849609375,6.538950443267822,-7.636050224304199,4.017000198364258
1772402161343551700,4.6355517578125,8.706000328063965,-5.850000381469727,4.39995002746582
1772402161363607800,4.65560791015625,9.522000312805176,-4.777050018310547,4.266000270843506
1772402161383663900,4.675663818359375,8.509050369262695,-4.392000198364258,3.6670501232147217
1772402161403720000,4.695719970703125,7.113000392913818,-4.2430500984191895,2.7120001316070557
1772402161423775700,4.715775634765625,6.412050247192383,-4.11899995803833,1.9429501295089722
1772402161443831800,4.735831787109375,5.53095006942749,-4.368000030517578,1.2109500169754028
1772402161463888000,4.755887939453125,4.623000144958496,-4.963950157165527,-0.016950000077486038
1772402161483944000,4.77594384765625,4.870050430297852,-5.7109503746032715,-1.6710001230239868
1772402161504000000,4.796,5.880000114440918,-6.433950424194336,-2.8540501594543457
1772402161524055800,4.816055908203125,6.783000469207764,-6.637950420379639,-2.722050189971924
1772402161544111900,4.83611181640625,7.177950382232666,-6.48900032043457,-2.1259500980377197
1772402161564168000,4.85616796875,8.583000183105469,-6.385950088500977,-1.0009500980377197
1772402161584224000,4.87622412109375,10.257000923156738,-6.1870503425598145,1.215000033378601
1772402161604279800,4.89627978515625,12.012001037597656,-6.19005012512207,4.471050262451172
1772402161624336000,4.9163359375,14.01300048828125,-7.408950328826904,5.5819501876831055
1772402161644392000,4.936391845703125,13.891050338745117,-8.187000274658203,4.831050395965576
1772402161664448000,4.956447998046875,12.543000221252441,-8.73705005645752,3.2119500637054443
1772402161684503800,4.97650390625,11.686050415039062,-8.730000495910645,2.032050132751465
1772402161704559900,4.996559814453125,10.549050331115723,-8.37600040435791,2.3310000896453857
1772402161724616000,5.016615966796875,9.32295036315918,-9.541950225830078,3.8269500732421875
1772402161744672000,5.036672119140625,8.467950820922852,-11.284950256347656,4.002000331878662
1772402161764727800,5.056727783203125,7.7310004234313965,-12.457950592041016,2.7330000400543213
1772402161784784000,5.076783935546875,8.029950141906738,-11.950050354003906,1.7680500745773315
1772402161804840000,5.09683984375,9.172050476074219,-11.569950103759766,2.2829999923706055
1772402161824895700,5.116895751953125,9.121950149536133,-12.025050163269043,2.9100000858306885
1772402161844951800,5.136951904296875,6.7420501708984375,-12.367050170898438,2.7499501705169678
1772402161865007900,5.1570078125,5.109000205993652,-11.473950386047363,2.7499501705169678
1772402161885063700,5.177063720703125,5.602950096130371,-9.982050895690918,3.1210501194000244
1772402161905119700,5.19711962890625,6.289950370788574,-8.136000633239746,3.7699501514434814
1772402161925175800,5.21717578125,6.474000453948975,-6.361950397491455,3.598050117492676
1772402161945232000,5.23723193359375,6.702000141143799,-5.460000038146973,2.515050172805786
1772402161965287700,5.25728759765625,6.000000476837158,-5.551050186157227,1.0980000495910645
1772402161985343700,5.27734375,4.3909502029418945,-5.629950046539307,-0.673050045967102
1772402162005399800,5.29739990234375,2.842050075531006,-5.57895040512085,-1.546950101852417
1772402162025455900,5.317455810546875,2.053950071334839,-5.424000263214111,-1.281000018119812
1772402162045512000,5.337511962890625,1.7670000791549683,-5.365950107574463,-0.1789500117301941
1772402162065567700,5.357567626953125,1.3549500703811646,-5.107950210571289,0.5929500460624695
1772402162085623800,5.377623779296875,1.4440500736236572,-4.603050231933594,0.8269500136375427
1772402162105680000,5.397679931640625,2.0590500831604004,-3.979950189590454,1.495050072669983
1772402162125736000,5.41773583984375,3.0859501361846924,-3.343050241470337,2.7019500732421875
1772402162145791700,5.437791748046875,4.342950344085693,-2.5909500122070312,3.853950262069702
1772402162165847800,5.457847900390625,5.317950248718262,-1.8130500316619873,4.776000022888184
1772402162185903900,5.47790380859375,6.358950138092041,-1.7320500612258911,5.323950290679932
1772402162205960000,5.4979599609375,8.381999969482422,-2.4529500007629395,4.777950286865234
1772402162226015700,5.518015625,11.076000213623047,-3.6570000648498535,3.745950222015381
1772402162246071800,5.53807177734375,14.277000427246094,-4.861050128936768,2.806950092315674
1772402162266128000,5.5581279296875,16.687950134277344,-5.4120001792907715,2.2450501918792725
1772402162286184000,5.578183837890625,17.092050552368164,-6.343050479888916,3.3409502506256104
1772402162306239700,5.59823974609375,16.174951553344727,-8.043000221252441,4.171950340270996
1772402162326295800,5.6182958984375,15.90000057220459,-9.57300090789795,4.3969502449035645
1772402162346351900,5.638351806640625,12.226950645446777,-9.850950241088867,4.455000400543213
1772402162366407700,5.65840771484375,4.992000102996826,-9.031949996948242,3.6790502071380615
1772402162386463700,5.678463623046875,-0.3079500198364258,-9.333000183105469,2.6520001888275146
1772402162406519800,5.698519775390625,-1.537950038909912,-9.444000244140625,1.062000036239624
1772402162426575600,5.71857568359375,1.237950086593628,-9.20895004272461,0.5160000324249268
1772402162446631700,5.738631591796875,4.795950412750244,-8.74905014038086,1.2079501152038574
1772402162466687700,5.758687744140625,6.409050464630127,-8.019000053405762,1.7370001077651978
1772402162486743800,5.778743896484375,6.285000324249268,-7.303050518035889,1.8019500970840454
1772402162506799900,5.7987998046875,5.955000400543213,-6.511050224304199,1.5529500246047974
1772402162526855700,5.818855712890625,6.084000110626221,-5.706000328063965,1.4040000438690186
1772402162546911700,5.838911865234375,7.377000331878662,-4.902000427246094,1.8019500970840454
1772402162566967800,5.8589677734375,8.746050834655762,-4.174050331115723,2.3530499935150146
1772402162587024000,5.87902392578125,9.321000099182129,-3.5440502166748047,2.6260502338409424
1772402162607079700,5.89907958984375,8.716950416564941,-3.1680002212524414,2.388000011444092
1772402162627135700,5.9191357421875,7.663950443267822,-3.1710002422332764,2.2300500869750977
1772402162647191800,5.93919189453125,7.051050186157227,-3.0580501556396484,2.179949998855591
1772402162667247900,5.959247802734375,7.14900016784668,-3.0679502487182617,2.3929500579833984
1772402162687304000,5.979303955078125,7.53000020980835,-3.259050130844116,2.3020501136779785
1772402162707359700,5.99935986328125,8.329950332641602,-3.721050262451172,1.7680500745773315
1772402162727415800,6.019415771484375,9.03795051574707,-4.014000415802002,1.2510000467300415
1772402162747471600,6.0394716796875,9.120000839233398,-4.198050022125244,1.218000054359436
1772402162767527700,6.059527587890625,8.773050308227539,-4.392000198364258,1.4140501022338867
1772402162787583700,6.079583740234375,8.667000770568848,-4.801050186157227,1.864050030708313
1772402162807639800,6.099639892578125,8.740950584411621,-5.455050468444824,2.2980000972747803
1772402162827695900,6.11969580078125,9.184050559997559,-6.19005012512207,2.616000175476074
1772402162847751400,6.13975146484375,9.928950309753418,-6.550950527191162,2.7210001945495605
1772402162867807500,6.159807373046875,9.952950477600098,-7.282050132751465,3.0919501781463623
1772402162887863600,6.179863525390625,9.807000160217285,-8.41200065612793,3.5929501056671143
1772402162907919600,6.199919677734375,9.958050727844238,-9.148950576782227,3.873000144958496
1772402162927975400,6.219975341796875,10.516050338745117,-9.144000053405762,3.496950149536133
1772402162948031500,6.240031494140625,11.362950325012207,-8.839950561523438,2.6419501304626465
1772402162968087600,6.260087646484375,11.446950912475586,-8.97705078125,1.9339500665664673
1772402162988143400,6.280143310546875,10.827000617980957,-8.995950698852539,1.2919501066207886
1772402163008199400,6.300199462890625,9.679950714111328,-9.049050331115723,1.6219500303268433
1772402163028255500,6.32025537109375,8.348999977111816,-8.40000057220459,2.4030001163482666
1772402163048311600,6.3403115234375,7.72605037689209,-7.444050312042236,2.9059500694274902
1772402163068367600,6.36036767578125,7.698000431060791,-6.348000526428223,2.6520001888275146
1772402163088423400,6.38042333984375,8.284049987792969,-4.864050388336182,2.805000066757202
1772402163108479500,6.4004794921875,10.087050437927246,-3.9180002212524414,3.6379501819610596
1772402163128535600,6.42053564453125,10.867050170898438,-3.850950241088867,3.52305006980896
1772402163148591600,6.440591552734375,9.550950050354004,-4.171950340270996,2.6539502143859863
1772402163168647700,6.460647705078125,7.137000560760498,-4.633950233459473,1.287000060081482
1772402163188703500,6.480703369140625,5.670000076293945,-4.849050045013428,0.4729500114917755
1772402163208759600,6.500759521484375,3.891000270843506,-4.630950450897217,0.07304999977350235
1772402163228815600,6.520815673828125,1.9369500875473022,-4.179000377655029,0.25995001196861267
1772402163248871400,6.540871337890625,0.742050051689148,-3.613950252532959,0.8779500126838684
1772402163268927500,6.560927490234375,0.9340500235557556,-3.2430002689361572,1.7179501056671143
1772402163288983600,6.580983642578125,2.370000123977661,-3.034050226211548,2.2420501708984375
1772402163309039600,6.60103955078125,4.030050277709961,-2.883000135421753,2.2829999923706055
1772402163329095400,6.621095458984375,6.112950325012207,-3.055950164794922,1.8000000715255737
1772402163349151500,6.6411513671875,7.834050178527832,-3.2910001277923584,1.6200001239776611
1772402163369207600,6.66120751953125,8.277000427246094,-3.364950180053711,2.2420501708984375
1772402163389263400,6.681263427734375,8.770050048828125,-3.66195011138916,2.794950246810913
1772402163409319400,6.7013193359375,9.330000877380371,-4.345950126647949,2.9700000286102295
1772402163429375500,6.72137548828125,10.009950637817383,-5.565000057220459,3.1620001792907715
1772402163449431600,6.741431640625,11.803950309753418,-6.6060004234313965,3.5710501670837402
1772402163469487400,6.7614873046875,19.249950408935547,-7.231050491333008,5.005050182342529
1772402163489543400,6.78154345703125,24.519001007080078,-10.321950912475586,3.3319501876831055
1772402163509599500,6.801599609375,18.598051071166992,-8.9839506149292,0.7290000319480896
1772402163529655600,6.821655517578125,8.690999984741211,-8.35200023651123,1.227000117301941
1772402163549711600,6.841711669921875,0.9910500645637512,-6.700050354003906,1.5289500951766968
1772402163569767400,6.861767333984375,-2.134050130844116,-6.793050289154053,0.25995001196861267
1772402163589823500,6.881823486328125,1.954050064086914,-7.73205041885376,-0.5460000038146973
1772402163609879600,6.901879638671875,6.163050174713135,-7.887000560760498,-0.6700500249862671
1772402163629935600,6.921935546875,7.623000144958496,-7.456050395965576,-0.28200000524520874
1772402163649991400,6.941991455078125,6.550950527191162,-6.844050407409668,-0.16500000655651093
1772402163670047500,6.962047607421875,4.966050148010254,-6.372000217437744,-0.07395000010728836
1772402163690103600,6.982103515625,3.6940500736236572,-5.818950176239014,0.21900001168251038
1772402163710159400,7.002159423828125,3.369000196456909,-5.272950172424316,0.781950056552887
1772402163730215400,7.02221533203125,4.087049961090088,-4.915950298309326,1.324950098991394
1772402163750271500,7.042271484375,5.244000434875488,-4.795950412750244,1.324950098991394
1772402163770327600,7.06232763671875,6.060000419616699,-4.70805025100708,0.9619500637054443
1772402163790383400,7.08238330078125,6.3760504722595215,-4.669950008392334,0.8230500221252441
1772402163810439400,7.102439453125,6.490950107574463,-4.392000198364258,1.0290000438690186
1772402163830495200,7.1224951171875,6.570000171661377,-4.07295036315918,1.6009501218795776
1772402163850551300,7.14255126953125,6.526950359344482,-3.934950113296509,2.5609500408172607
1772402163870607400,7.162607421875,6.95805025100708,-4.174050331115723,3.2700002193450928
1772402163890663400,7.182663330078125,8.44005012512207,-4.615050315856934,3.327000141143799
1772402163910719500,7.202719482421875,10.045950889587402,-5.1220502853393555,2.4220499992370605
1772402163930775300,7.222775390625,10.69005012512207,-5.7370500564575195,1.689000129699707
1772402163950831400,7.242831298828125,10.603950500488281,-5.9239501953125,1.7539501190185547
1772402163970887400,7.262887451171875,10.582950592041016,-6.256950378417969,2.278050184249878
1772402163990943500,7.282943603515625,10.63800048828125,-6.6469502449035645,2.338050127029419
1772402164010999300,7.302999267578125,10.462950706481934,-7.255050182342529,1.8190500736236572
1772402164031055400,7.323055419921875,10.543950080871582,-7.7410502433776855,1.6440000534057617
1772402164051111400,7.343111328125,10.800000190734863,-8.128950119018555,2.4240000247955322
1772402164071167500,7.36316748046875,10.57800006866455,-8.914050102233887,3.355950117111206
1772402164091223300,7.383223388671875,9.94800090789795,-9.48705005645752,3.7290000915527344
1772402164111279400,7.403279296875,10.293000221252441,-9.739950180053711,3.4609501361846924
1772402164131335400,7.42333544921875,10.62600040435791,-9.670950889587402,2.4439501762390137
1772402164151391500,7.4433916015625,10.056000709533691,-9.846000671386719,1.7179501056671143
1772402164171447600,7.463447509765625,8.89905071258545,-10.156950950622559,1.665000081062317
1772402164191503400,7.48350341796875,7.70205020904541,-10.150050163269043,2.5200002193450928
1772402164211559400,7.503559326171875,6.2470502853393555,-9.895950317382812,3.58305025100708
1772402164231615500,7.523615478515625,5.349000453948975,-9.15195083618164,3.8490002155303955
1772402164251671300,7.54367138671875,5.767950057983398,-7.939950466156006,3.4710001945495605
1772402164271727400,7.563727294921875,6.820950508117676,-6.925050258636475,2.965050220489502
1772402164291783400,7.583783447265625,7.113000392913818,-6.043950080871582,2.2300500869750977
1772402164311839500,7.603839599609375,6.634950160980225,-5.448000431060791,1.2490500211715698
1772402164331895300,7.623895263671875,6.0859503746032715,-5.10105037689209,0.5760000348091125
1772402164351951400,7.643951416015625,5.394000053405762,-4.73205041885376,-0.3139500021934509
1772402164372007400,7.66400732421875,3.826050281524658,-5.314050197601318,-1.141950011253357
1772402164392063200,7.684063232421875,2.7300000190734863,-4.846950054168701,-1.4479501247406006
1772402164412119300,7.704119384765625,2.176950216293335,-5.014050006866455,-1.055999994277954
1772402164432175400,7.72417529296875,2.193000078201294,-4.915950298309326,-0.32295000553131104
1772402164452231400,7.7442314453125,2.6770501136779785,-4.713000297546387,0.7699500322341919
1772402164472287200,7.764287353515625,3.5749502182006836,-4.615050315856934,1.711050033569336
1772402164492343300,7.78434326171875,4.711950302124023,-4.248000144958496,2.367000102996826
1772402164512399400,7.8043994140625,5.76300048828125,-3.81000018119812,2.6640000343322754
1772402164532455400,7.824455322265625,6.8959503173828125,-3.5710501670837402,3.6790502071380615
1772402164552511200,7.84451123046875,8.212050437927246,-3.493950128555298,5.211000442504883
1772402164572567300,7.8645673828125,9.187050819396973,-3.5629501342773438,5.484000205993652
1772402164592623400,7.884623291015625,10.069950103759766,-3.973050117492676,4.843050003051758
1772402164612679400,7.904679443359375,11.835000991821289,-3.5350501537323,5.323950290679932
1772402164632735500,7.924735595703125,17.392051696777344,-2.176950216293335,6.667050361633301
1772402164652791300,7.944791259765625,19.435951232910156,-3.475050210952759,7.627050399780273
1772402164672847400,7.964847412109375,13.798050880432129,-6.879000186920166,7.0159502029418945
1772402164692903400,7.9849033203125,7.864950180053711,-10.80405044555664,3.2410502433776855
1772402164712959500,8.00495947265625,5.629050254821777,-12.037050247192383,0.19095000624656677
1772402164733015600,8.025015625,5.011050224304199,-11.69205093383789,-0.7950000166893005
1772402164753071400,8.0450712890625,3.199050188064575,-11.196000099182129,-0.12195000797510147
1772402164773127400,8.06512744140625,0.8650500178337097,-10.777050971984863,0.4440000355243683
1772402164793183500,8.08518359375,-0.3150000274181366,-10.155000686645508,1.0290000438690186
1772402164813239600,8.105239501953125,1.0009500980377197,-9.616050720214844,1.7400001287460327
1772402164833295400,8.12529541015625,3.808950185775757,-8.91195011138916,2.39805006980896
1772402164853351400,8.145351318359374,6.040950298309326,-8.044950485229492,2.6299500465393066
1772402164873407500,8.165407470703125,7.077000141143799,-7.1569504737854,1.9170000553131104
1772402164893463300,8.18546337890625,7.398000240325928,-6.3670501708984375,1.1869500875473022
1772402164913519400,8.205519287109375,7.197000503540039,-5.593950271606445,1.3759500980377197
1772402164933575400,8.225575439453126,7.317000389099121,-4.885050296783447,1.990950107574463
1772402164953631200,8.24563134765625,7.579950332641602,-4.285950183868408,2.8530001640319824
1772402164973687300,8.265687255859374,7.281000137329102,-3.882000207901001,3.1710002422332764
1772402164993743400,8.285743408203125,6.694050312042236,-4.0570502281188965,2.7280502319335938
1772402165013799400,8.30579931640625,6.868950366973877,-4.1670002937316895,2.25
1772402165033855500,8.32585546875,7.483950138092041,-4.284000396728516,1.7760001420974731
1772402165053911600,8.34591162109375,8.17905044555664,-4.5859503746032715,1.1790000200271606
1772402165073967400,8.36596728515625,8.398950576782227,-4.617000102996826,1.0930500030517578
1772402165094023400,8.3860234375,7.807950496673584,-4.8319501876831055,1.1790000200271606
1772402165114079500,8.40607958984375,7.494000434875488,-5.206050395965576,1.3570500612258911
1772402165134135600,8.426135498046875,7.324050426483154,-5.7109503746032715,1.8229501247406006
1772402165154191400,8.44619140625,8.518950462341309,-6.319050312042236,2.7910501956939697
1772402165174247400,8.466247314453126,10.19205093383789,-6.541950225830078,3.5020501613616943
1772402165194303500,8.486303466796874,10.693050384521484,-6.841050148010254,4.038000106811523
1772402165214359300,8.506359375,10.696950912475586,-8.055000305175781,4.555050373077393
1772402165234415600,8.52641552734375,8.539950370788574,-9.409950256347656,4.713000297546387
1772402165254471400,8.546471435546875,8.45205020904541,-10.68600082397461,4.885950088500977
1772402165274527500,8.566527587890626,10.381050109863281,-11.515050888061523,3.873000144958496
1772402165294583600,8.58658349609375,11.86305046081543,-11.7610502243042,2.716050148010254
1772402165314639600,8.6066396484375,11.758050918579102,-12.127950668334961,2.2260000705718994
1772402165334695700,8.62669580078125,9.727950096130371,-12.325950622558594,2.5990500450134277
1772402165354751500,8.64675146484375,6.32295036315918,-12.475050926208496,3.6259500980377197
1772402165374807600,8.6668076171875,3.939000129699707,-11.46405029296875,3.375000238418579
1772402165394863600,8.686863525390624,5.401950359344482,-9.84795093536377,2.458050012588501
1772402165414919400,8.70691943359375,6.9150004386901855,-8.69895076751709,2.0719501972198486
1772402165434975500,8.7269755859375,6.4770002365112305,-7.345950126647949,1.977000117301941
1772402165455031600,8.747031494140625,5.710050106048584,-6.268950462341309,1.7209501266479492
1772402165475087400,8.76708740234375,5.365950107574463,-5.545950412750244,1.4020500183105469
1772402165495143400,8.787143310546876,4.3720502853393555,-5.656050205230713,0.7600500583648682
1772402165515199500,8.807199462890624,3.4930500984191895,-5.116950035095215,0.21705001592636108
1772402165535255600,8.827255615234375,2.4690001010894775,-5.317950248718262,0.07095000147819519
1772402165555311400,8.847311279296875,1.3549500703811646,-5.128950119018555,0.46095001697540283
1772402165575367400,8.867367431640625,0.3330000042915344,-5.091000080108643,1.0600500106811523
1772402165595423500,8.887423583984376,0.8809500336647034,-5.136000156402588,1.821000099182129
1772402165615479600,8.9074794921875,2.2200000286102295,-4.870950222015381,2.5249500274658203
1772402165635535400,8.927535400390624,3.373950242996216,-4.321950435638428,2.8530001640319824
1772402165655591400,8.94759130859375,4.930050373077393,-3.6349501609802246,3.6499502658843994
1772402165675647500,8.9676474609375,6.4069504737854,-3.2310001850128174,4.792050361633301
1772402165695703300,8.987703369140625,7.240050315856934,-3.043950080871582,6.130950450897217
1772402165715759400,9.00775927734375,8.140049934387207,-2.983950138092041,6.4800004959106445
1772402165735815400,9.0278154296875,10.968000411987305,-3.5370001792907715,5.712000370025635
1772402165755871500,9.04787158203125,15.622050285339355,-4.063950061798096,5.293050289154053
1772402165775927300,9.06792724609375,19.02495002746582,-3.8770501613616943,5.4340500831604
1772402165795983400,9.0879833984375,17.80095100402832,-3.700050115585327,5.029050350189209
1772402165816039400,9.108039306640626,11.77695083618164,-4.8420000076293945,3.444000244140625
1772402165836095200,9.12809521484375,6.790050506591797,-7.951950550079346,2.009999990463257
1772402165856151300,9.1481513671875,2.8129501342773438,-11.482950210571289,0.364950031042099
1772402165876207400,9.168207275390625,2.1670501232147217,-13.723950386047363,1.1509500741958618
1772402165896263400,9.188263427734375,4.165950298309326,-14.317950248718262,1.636950135231018
1772402165916319200,9.2083193359375,5.940000057220459,-13.063950538635254,1.0999500751495361
1772402165936375300,9.228375244140626,3.8020501136779785,-12.340950965881348,0.19995000958442688
1772402165956431400,9.248431396484374,1.8130500316619873,-11.211000442504883,0.49695003032684326
1772402165976487400,9.2684873046875,1.339050054550171,-9.951000213623047,1.8139500617980957
1772402165996543200,9.288543212890625,3.0979502201080322,-8.560050010681152,3.0180001258850098
1772402166016599300,9.308599365234375,5.3110504150390625,-6.57105016708374,3.870000123977661
1772402166036655400,9.3286552734375,7.033950328826904,-5.08905029296875,4.780050277709961
1772402166056711400,9.34871142578125,8.334000587463379,-4.1449503898620605,4.759050369262695
1772402166076767200,9.368767333984374,8.18595027923584,-3.753000259399414,3.7510502338409424
1772402166096823300,9.3888232421875,7.389000415802002,-3.475050210952759,2.7720000743865967
1772402166116879400,9.40887939453125,7.189950466156006,-3.5779502391815186,1.977000117301941
1772402166136935400,9.428935302734375,6.7950005531311035,-3.973050117492676,0.9829500317573547
1772402166156991200,9.4489912109375,6.511950492858887,-4.380000114440918,-0.012000000104308128
1772402166177047000,9.469047119140624,7.281000137329102,-4.698000431060791,-0.3829500079154968
1772402166197103000,9.48910302734375,8.518950462341309,-5.06505012512207,-0.2440500110387802
1772402166217159200,9.5091591796875,9.163050651550293,-5.19195032119751,-0.1870500147342682
1772402166237215200,9.52921533203125,8.73705005645752,-5.413950443267822,0.6529500484466553
1772402166257271300,9.549271240234376,9.313950538635254,-5.682000160217285,2.2039501667022705
1772402166277327000,9.5693271484375,10.420050621032715,-5.742000102996826,3.1330502033233643
1772402166297383200,9.589383056640624,11.188050270080566,-5.704050064086914,3.9760501384735107
1772402166317439200,9.609439208984375,12.112051010131836,-5.94795036315918,4.5
1772402166337495000,9.6294951171875,12.61305046081543,-5.836050510406494,4.360949993133545
1772402166357551000,9.649551025390625,12.721050262451172,-5.629950046539307,4.138950347900391
1772402166377607200,9.669607177734376,12.244050979614258,-5.9070000648498535,4.036050319671631
1772402166397663200,9.689663330078124,10.21095085144043,-6.9559502601623535,4.938000202178955
1772402166417719000,9.709718994140625,8.248050689697266,-8.136000633239746,6.38700008392334
1772402166437775000,9.729775146484375,7.528050422668457,-9.463050842285156,7.267950534820557
1772402166457831200,9.7498310546875,8.548050880432129,-9.276000022888184,5.6610002517700195
1772402166477887200,9.76988720703125,9.120000839233398,-9.910050392150879,2.386050224304199
1772402166497943300,9.789943359375,8.797050476074219,-10.746000289916992,0.018000001087784767
1772402166517999000,9.8099990234375,8.1670503616333,-10.762950897216797,-0.5670000314712524
1772402166538055200,9.83005517578125,7.410000324249268,-9.505950927734375,0.5809500217437744
1772402166558111200,9.850111328125,6.529050350189209,-7.612050533294678,1.3999500274658203
1772402166578167000,9.8701669921875,6.828000545501709,-6.334050178527832,1.2679500579833984
1772402166598223000,9.89022314453125,7.887000560760498,-5.158050060272217,1.5240000486373901
1772402166618279200,9.910279052734374,8.229000091552734,-4.633950233459473,1.2060000896453857
1772402166638335000,9.9303349609375,8.068950653076172,-4.509000301361084,0.5779500007629395
1772402166658390800,9.950390869140625,7.0219502449035645,-4.444950103759766,0.40800002217292786
1772402166678447000,9.970447021484375,5.562000274658203,-4.413000106811523,0.45600003004074097
1772402166698503000,9.9905029296875,3.6940500736236572,-4.444950103759766,0.8299500346183777
1772402166718559000,10.01055908203125,1.9230000972747803,-4.411050319671631,1.3060500621795654
1772402166738614800,10.03061474609375,1.5130500793457031,-4.003950119018555,2.3530499935150146
1772402166758670800,10.0506708984375,2.3299500942230225,-3.6739501953125,2.8980002403259277
1772402166778727000,10.070726806640625,2.7870001792907715,-3.2880001068115234,2.7930002212524414
1772402166798783000,10.090782958984375,4.1449503898620605,-2.776050090789795,3.4990501403808594
1772402166818838800,10.1108388671875,5.832000255584717,-2.278050184249878,4.962000370025635
1772402166838894800,10.130894775390624,7.6710004806518555,-1.7220001220703125,5.407950401306152
1772402166858951000,10.150950927734375,9.670050621032715,-2.0460000038146973,5.443050384521484
1772402166879006700,10.1710068359375,13.017000198364258,-2.9509501457214355,4.219950199127197
1772402166899062800,10.191062744140625,17.157001495361328,-3.9030001163482666,2.9629502296447754
1772402166919118800,10.211118896484376,18.273000717163086,-3.8749501705169678,3.5659501552581787
1772402166939175000,10.2311748046875,15.706050872802734,-3.781050205230713,4.938000202178955
1772402166959230700,10.251230712890624,12.682050704956055,-6.729000091552734,5.926950454711914
1772402166979286800,10.271286865234375,11.467950820922852,-10.545000076293945,3.681000232696533
1772402166999342800,10.2913427734375,10.851000785827637,-11.613000869750977,1.1749500036239624
1772402167019398700,10.311398681640625,8.938050270080566,-10.486950874328613,1.0260000228881836
1772402167039454700,10.331454833984376,5.113950252532959,-9.433950424194336,1.9930500984191895
1772402167059510500,10.351510498046874,1.8460501432418823,-8.348999977111816,2.4649500846862793
1772402167079566600,10.371566650390625,1.114050030708313,-7.500000476837158,2.680950164794922
1772402167099622700,10.39162255859375,3.9790501594543457,-7.0249505043029785,2.700000047683716
1772402167119678700,10.4116787109375,7.063050270080566,-6.939000129699707,2.7210001945495605
1772402167139734500,10.431734619140625,8.569050788879395,-6.355050086975098,2.6830501556396484
1772402167159790600,10.45179052734375,8.425050735473633,-5.565000057220459,2.02905011177063
1772402167179846700,10.4718466796875,7.525050163269043,-4.837050437927246,1.519050121307373
1772402167199902500,10.49190234375,7.173000335693359,-4.190999984741211,1.5700501203536987
1772402167219958500,10.51195849609375,7.123050212860107,-3.460050106048584,1.902000069618225
1772402167280126500,10.57212646484375,7.765050411224365,-2.991000175476074,1.765950083732605
1772402167320238300,10.61223828125,7.386000156402588,-2.665950059890747,1.9069501161575317
1772402167340294400,10.63229443359375,7.483950138092041,-2.8759500980377197,1.287000060081482
1772402167360350200,10.65235009765625,8.607000350952148,-3.1519501209259033,1.2390000820159912
1772402167380406300,10.67240625,9.718050003051758,-3.1519501209259033,1.1749500036239624
1772402167400462300,10.69246240234375,9.193950653076172,-3.4489500522613525,1.6219500303268433
1772402167420518400,10.712518310546875,9.373950004577637,-3.7930502891540527,1.9260001182556152
1772402167440574200,10.73257421875,9.855000495910645,-4.501950263977051,2.2450501918792725
1772402167460630300,10.75263037109375,11.218950271606445,-4.954050064086914,1.6680001020431519
