time,seconds_elapsed,z,y,x
1772594793998617000,0.2216171875,-0.2531623840332031,0.0018547549843788147,-0.004133954644203186
1772594794018758000,0.2417578125,-0.2275104522705078,-0.0010702423751354218,-0.009175091981887817
1772594794039052000,0.262052001953125,-0.2165203094482422,-0.0007899478077888489,-0.008503764867782593
1772594794059316000,0.28231591796875,-0.17900943756103516,-0.000561792403459549,-0.006894707679748535
1772594794079580000,0.302579833984375,-0.14858436584472656,-0.0003336220979690552,-0.005553603172302246
1772594794099843000,0.322843017578125,-0.1238555908203125,-0.00009246775880455971,-0.004662513732910156
1772594794120107000,0.34310693359375,-0.09714508056640625,-0.000028613721951842308,-0.003544151782989502
1772594794140371000,0.363370849609375,-0.08578872680664062,-0.00003742240369319916,-0.0031037628650665283
1772594794160634000,0.383634033203125,-0.05787372589111328,0.000016094651073217392,-0.0020853281021118164
1772594794180898000,0.40389794921875,-0.034821510314941406,0.00000229664146900177,-0.0012274384498596191
1772594794201162000,0.424161865234375,-0.11858558654785156,-0.00016255583614110947,-0.0044227540493011475
1772594794221425000,0.4444248046875,-0.09704971313476562,-0.00008128583431243896,-0.0035705864429473877
1772594794241689000,0.464689208984375,-0.0752859115600586,-0.000031657516956329346,-0.002733886241912842
1772594794261953000,0.484953125,-0.05554389953613281,-0.000005370937287807465,-0.0019921958446502686
1772594794282216000,0.5052158203125,-0.037077903747558594,0.0000020137522369623184,-0.0013185739517211914
1772594794302480000,0.52547998046875,-0.022863388061523438,0.000002830522134900093,-0.0008056163787841797
1772594794322744000,0.545744140625,-0.0128936767578125,0.000002089422196149826,-0.00045236945152282715
1772594794343007000,0.566007080078125,-0.006470680236816406,0.0000015795230865478516,-0.0002269148826599121
1772594794363271000,0.58627099609375,-0.004979133605957031,0.0000014139804989099503,-0.0001741647720336914
1772594794383535000,0.60653515625,-0.006916999816894531,0.0000026714988052845,-0.0002409517765045166
1772594794403798000,0.626798095703125,-0.012254714965820312,0.000005634501576423645,-0.000422745943069458
1772594794424062000,0.64706201171875,-0.01881694793701172,0.000010780524462461472,-0.0006459653377532959
1772594794444326000,0.667325927734375,-0.027242660522460938,0.00001982739195227623,-0.0009352564811706543
1772594794464589000,0.687589111328125,-0.03837108612060547,0.00003761611878871918,-0.001317441463470459
1772594794484853000,0.70785302734375,-0.05222034454345703,0.00006417371332645416,-0.001789689064025879
1772594794505117000,0.728116943359375,-0.06450462341308594,0.00009452179074287415,-0.0022026896476745605
1772594794525381000,0.748381103515625,-0.07632732391357422,0.00013848021626472473,-0.002590656280517578
1772594794545644000,0.76864404296875,-0.0860452651977539,0.00018309243023395538,-0.00288999080657959
1772594794565908000,0.788907958984375,-0.09405326843261719,0.0002286769449710846,-0.003141343593597412
1772594794586172000,0.809171875,-0.10108375549316406,0.0002727042883634567,-0.003376513719558716
1772594794606435000,0.82943505859375,-0.10628795623779297,0.0003003738820552826,-0.003564506769180298
1772594794626699000,0.849698974609375,-0.11029911041259766,0.0003227684646844864,-0.003707796335220337
1772594794646963000,0.869962890625,-0.11214256286621094,0.00033543258905410767,-0.003771454095840454
1772594794667226000,0.89022607421875,-0.11070823669433594,0.0003375709056854248,-0.003734499216079712
1772594794687490000,0.910489990234375,-0.10595035552978516,0.00033895671367645264,-0.003582298755645752
1772594794707754000,0.93075390625,-0.0984487533569336,0.00033188238739967346,-0.003328680992126465
1772594794728017000,0.951016845703125,-0.0884389877319336,0.0002994537353515625,-0.0029891133308410645
1772594794748281000,0.971281005859375,-0.07677555084228516,0.0002647489309310913,-0.002588927745819092
1772594794768545000,0.991544921875,-0.06366634368896484,0.00022299960255622864,-0.0021363794803619385
1772594794788808000,1.011807861328125,-0.0494842529296875,0.0001803264021873474,-0.0016494989395141602
1772594794809072000,1.032072021484375,-0.03352546691894531,0.000128820538520813,-0.0011088252067565918
1772594794829336000,1.052336181640625,-0.01619243621826172,0.00006581097841262817,-0.0005301535129547119
1772594794849599000,1.072598876953125,0.0009241104125976562,-0.000003948807716369629,0.00002995133399963379
1772594794869863000,1.09286279296875,0.016928672790527344,-0.00007528439164161682,0.0005423128604888916
1772594794890127000,1.113127197265625,0.03150749206542969,-0.0001461431384086609,0.000996023416519165
1772594794910390000,1.13339013671875,0.04432106018066406,-0.0002090856432914734,0.0013892650604248047
1772594794930654000,1.153654052734375,0.054935455322265625,-0.000265464186668396,0.0017086267471313477
1772594794950918000,1.17391796875,0.061636924743652344,-0.000295490026473999,0.001913696527481079
1772594794971181000,1.19418115234375,0.06500816345214844,-0.00030273571610450745,0.002020597457885742
1772594794991445000,1.214445068359375,0.06498241424560547,-0.0002847909927368164,0.0020187795162200928
1772594795011709000,1.234708984375,0.06151580810546875,-0.000253923237323761,0.0019111931324005127
1772594795031972000,1.25497216796875,0.05550861358642578,-0.00021166354417800903,0.0017254352569580078
1772594795052236000,1.275236083984375,0.046245574951171875,-0.0001671425998210907,0.0014341175556182861
1772594795072500000,1.2955,0.03420257568359375,-0.00011969730257987976,0.001056283712387085
1772594795092763000,1.315762939453125,0.019733428955078125,-0.00006515905261039734,0.0006111264228820801
1772594795113027000,1.336027099609375,0.0035982131958007812,-0.000011336058378219604,0.0001118779182434082
1772594795133291000,1.356291015625,-0.011851310729980469,0.000036502256989479065,-0.00037035346031188965
1772594795153554000,1.376553955078125,-0.025277137756347656,0.00007716193795204163,-0.0007904469966888428
1772594795173818000,1.396818115234375,-0.03495311737060547,0.000107593834400177,-0.0010912120342254639
1772594795194082000,1.41708203125,-0.040256500244140625,0.00012816675007343292,-0.0012561678886413574
1772594795214345000,1.437344970703125,-0.04249763488769531,0.0001397170126438141,-0.0013302862644195557
1772594795234609000,1.45760888671875,-0.043280601501464844,0.00014906004071235657,-0.0013628005981445312
1772594795254873000,1.477873046875,-0.04020404815673828,0.000138748437166214,-0.0012689828872680664
1772594795275136000,1.498135986328125,-0.03452777862548828,0.00011944025754928589,-0.0010936260223388672
1772594795295400000,1.51839990234375,-0.029714584350585938,0.00010477006435394287,-0.0009399652481079102
1772594795315664000,1.538663818359375,-0.02584362030029297,0.00009062141180038452,-0.0008154809474945068
1772594795335927000,1.558927001953125,-0.022797584533691406,0.0000776052474975586,-0.0007190108299255371
1772594795356191000,1.57919091796875,-0.019997596740722656,0.00006777793169021606,-0.0006313323974609375
1772594795376455000,1.599454833984375,-0.017400741577148438,0.000059761106967926025,-0.0005499124526977539
1772594795396718000,1.619718017578125,-0.015108108520507812,0.000052712857723236084,-0.00047856569290161133
1772594795416982000,1.63998193359375,-0.01305389404296875,0.00004612654447555542,-0.0004132986068725586
1772594795437246000,1.660245849609375,-0.01007843017578125,0.00003562122583389282,-0.0003185570240020752
1772594795457509000,1.680509033203125,-0.010018348693847656,0.00003594905138015747,-0.0003184378147125244
1772594795477773000,1.70077294921875,-0.0124664306640625,0.00004472583532333374,-0.00039756298065185547
1772594795498037000,1.721037109375,-0.013400077819824219,0.000048782676458358765,-0.0004304051399230957
1772594795518484000,1.74148388671875,-0.014337539672851562,0.00005408376455307007,-0.0004622042179107666
1772594795538747000,1.761746826171875,-0.015400886535644531,0.00006113201379776001,-0.0004962682723999023
1772594795559011000,1.782010986328125,-0.016542434692382812,0.00006776675581932068,-0.000533372163772583
1772594795579275000,1.80227490234375,-0.020361900329589844,0.00008826330304145813,-0.0006569623947143555
1772594795599538000,1.822537841796875,-0.024178504943847656,0.00010865926742553711,-0.0007781982421875
1772594795619802000,1.842802001953125,-0.027886390686035156,0.00012923777103424072,-0.0008929669857025146
1772594795640066000,1.863066162109375,-0.031088829040527344,0.00015153735876083374,-0.0009905695915222168
1772594795660329000,1.883328857421875,-0.03205299377441406,0.0001646876335144043,-0.0010138750076293945
1772594795680593000,1.903593017578125,-0.02982616424560547,0.00015921145677566528,-0.0009403526782989502
1772594795700857000,1.923857177734375,-0.02560901641845703,0.00014018267393112183,-0.0008033514022827148
1772594795721120000,1.9441201171875,-0.017950057983398438,0.00009771063923835754,-0.0005630850791931152
1772594795741384000,1.964384033203125,-0.008797645568847656,0.00004690513014793396,-0.00027674436569213867
1772594795761648000,1.984648193359375,0.0021791458129882812,-0.000011436641216278076,0.0000686943531036377
1772594795781911000,2.0049111328125,0.015811920166015625,-0.00008014962077140808,0.0004986822605133057
1772594795802175000,2.025175048828125,0.028450965881347656,-0.0001415647566318512,0.0008979141712188721
1772594795822439000,2.04543896484375,0.04056072235107422,-0.0002003684639930725,0.0012824535369873047
1772594795842702000,2.0657021484375,0.05179595947265625,-0.00025213509798049927,0.0016436576843261719
1772594795862966000,2.085966064453125,0.06343364715576172,-0.0003048926591873169,0.0020206570625305176
1772594795883230000,2.10622998046875,0.07161331176757812,-0.00033596158027648926,0.0022811591625213623
1772594795903493000,2.1264931640625,0.07630348205566406,-0.0003508441150188446,0.0024291276931762695
1772594795923757000,2.146757080078125,0.07661819458007812,-0.0003596208989620209,0.002437770366668701
1772594795944021000,2.16702099609375,0.07381820678710938,-0.00035516172647476196,0.0023450255393981934
1772594795964284000,2.187283935546875,0.06802082061767578,-0.0003365352749824524,0.002156674861907959
1772594795984548000,2.207548095703125,0.059220314025878906,-0.00030376017093658447,0.001874685287475586
1772594796004812000,2.22781201171875,0.049777984619140625,-0.00025609880685806274,0.0015774369239807129
1772594796025075000,2.248074951171875,0.04030036926269531,-0.00020142272114753723,0.0012800097465515137
1772594796045339000,2.2683388671875,0.030965805053710938,-0.00015045702457427979,0.000981658697128296
1772594796065603000,2.28860302734375,0.022233963012695312,-0.00010439008474349976,0.0007018446922302246
1772594796085866000,2.308865966796875,0.016613006591796875,-0.00007497146725654602,0.0005255937576293945
1772594796106130000,2.3291298828125,0.014460563659667969,-0.000061005353927612305,0.0004578828811645508
1772594796126394000,2.34939404296875,0.014822006225585938,-0.00005764886736869812,0.0004679560661315918
1772594796146657000,2.369656982421875,0.017256736755371094,-0.00006176158785820007,0.000543445348739624
1772594796166921000,2.3899208984375,0.019661903381347656,-0.00006697326898574829,0.0006160140037536621
1772594796187185000,2.410184814453125,0.021038055419921875,-0.00006776675581932068,0.0006573498249053955
1772594796207448000,2.430447998046875,0.02014923095703125,-0.00006215646862983704,0.0006270408630371094
1772594796227712000,2.4507119140625,0.016056060791015625,-0.00004954636096954346,0.0004990696907043457
1772594796247976000,2.470975830078125,0.00975799560546875,-0.00003013014793395996,0.00030305981636047363
1772594796268239000,2.491239013671875,-0.0000095367431640625,4.842877388000488e-8,-2.980232238769531e-7
1772594796288503000,2.5115029296875,-0.010994911193847656,0.000036776065826416016,-0.0003428459167480469
1772594796308767000,2.53176708984375,-0.02380657196044922,0.000086221843957901,-0.0007406175136566162
1772594796329030000,2.55202978515625,-0.035988807678222656,0.00014135614037513733,-0.001120537519454956
1772594796349294000,2.572294189453125,-0.048462867736816406,0.00020544230937957764,-0.0015074312686920166
1772594796369558000,2.59255810546875,-0.05704212188720703,0.0002502910792827606,-0.0017786920070648193
1772594796389821000,2.612821044921875,-0.061171531677246094,0.00027655065059661865,-0.0019100606441497803
1772594796410085000,2.633085205078125,-0.06053352355957031,0.0002887360751628876,-0.0018909573554992676
1772594796430349000,2.65334912109375,-0.05599784851074219,0.0002871379256248474,-0.00174027681350708
1772594796450612000,2.673612060546875,-0.052059173583984375,0.00028067827224731445,-0.001614987850189209
1772594796470876000,2.6938759765625,-0.049080848693847656,0.00027026981115341187,-0.0015113353729248047
1772594796491140000,2.71414013671875,-0.045742034912109375,0.00025075674057006836,-0.0014006495475769043
1772594796511403000,2.734403076171875,-0.03944873809814453,0.00021820887923240662,-0.0012033283710479736
1772594796531667000,2.7546669921875,-0.03177070617675781,0.0001750253140926361,-0.0009619295597076416
1772594796551931000,2.774930908203125,-0.02150249481201172,0.0001179724931716919,-0.0006462037563323975
1772594796572194000,2.795194091796875,-0.014331817626953125,0.00007868558168411255,-0.00042745471000671387
1772594796592458000,2.8154580078125,-0.009461402893066406,0.00005153566598892212,-0.0002798736095428467
1772594796612722000,2.835721923828125,-0.005717277526855469,0.00003070756793022156,-0.00016793608665466309
1772594796632985000,2.855985107421875,-0.0016927719116210938,0.000008802860975265503,-0.00004938244819641113
1772594796653249000,2.8762490234375,0.004070281982421875,-0.000021126121282577515,0.0001176595687866211
1772594796673513000,2.896512939453125,0.012259483337402344,-0.00006409361958503723,0.00035125017166137695
1772594796693777000,2.91677685546875,0.022165298461914062,-0.00011763721704483032,0.0006288290023803711
1772594796714040000,2.9370400390625,0.031050682067871094,-0.00016529113054275513,0.0008734166622161865
1772594796734304000,2.957303955078125,0.03694438934326172,-0.000200662761926651,0.0010328888893127441
1772594796754568000,2.97756787109375,0.04204082489013672,-0.00023476779460906982,0.0011713802814483643
1772594796774831000,2.9978310546875,0.04919910430908203,-0.00028349459171295166,0.0013634860515594482
1772594796795095000,3.018094970703125,0.058371543884277344,-0.0003462471067905426,0.001611858606338501
1772594796815359000,3.03835888671875,0.06656837463378906,-0.00040825456380844116,0.0018317103385925293
1772594796835622000,3.058621826171875,0.07298851013183594,-0.0004608742892742157,0.0020181238651275635
1772594796855886000,3.078885986328125,0.07912158966064453,-0.0005022510886192322,0.0021918416023254395
1772594796876150000,3.09914990234375,0.0843038558959961,-0.0005450397729873657,0.0023514628410339355
1772594796896413000,3.119412841796875,0.08813285827636719,-0.000579439103603363,0.002466917037963867
1772594796916677000,3.139677001953125,0.09116744995117188,-0.0006102100014686584,0.0025614500045776367
1772594796936941000,3.159941162109375,0.09532833099365234,-0.0006508603692054749,0.0026880502700805664
1772594796957204000,3.180203857421875,0.0995330810546875,-0.0006776824593544006,0.0028122663497924805
1772594796977468000,3.200468017578125,0.1020355224609375,-0.0006957948207855225,0.002904832363128662
1772594796997732000,3.220732177734375,0.1024627685546875,-0.0006984174251556396,0.0029450058937072754
1772594797017995000,3.2409951171875,0.10340118408203125,-0.0006942600011825562,0.00299912691116333
1772594797038259000,3.261259033203125,0.10525131225585938,-0.0006963461637496948,0.003062903881072998
1772594797058523000,3.28152294921875,0.10530281066894531,-0.0006853267550468445,0.0030808448791503906
1772594797078786000,3.3017861328125,0.10457134246826172,-0.0006655417382717133,0.0030699074268341064
1772594797099050000,3.322050048828125,0.10365486145019531,-0.0006424300372600555,0.003059983253479004
1772594797119314000,3.34231396484375,0.1039113998413086,-0.0006322264671325684,0.0030926167964935303
1772594797139577000,3.3625771484375,0.10469818115234375,-0.0006115064024925232,0.0031527280807495117
1772594797159841000,3.382841064453125,0.10338878631591797,-0.000578172504901886,0.0031505823135375977
1772594797180105000,3.40310498046875,0.10106468200683594,-0.0005282871425151825,0.00310555100440979
1772594797200368000,3.4233681640625,0.09678077697753906,-0.00047044456005096436,0.00298193097114563
1772594797220632000,3.443632080078125,0.09029197692871094,-0.0004139542579650879,0.0027799606323242188
1772594797240896000,3.46389599609375,0.08127498626708984,-0.000348605215549469,0.002503514289855957
1772594797261159000,3.484158935546875,0.07421398162841797,-0.0002976357936859131,0.002294570207595825
1772594797281423000,3.504423095703125,0.06982421875,-0.00026937946677207947,0.0021668076515197754
1772594797301687000,3.52468701171875,0.06496906280517578,-0.00024241581559181213,0.002017080783843994
1772594797321950000,3.544949951171875,0.05956840515136719,-0.00021139532327651978,0.0018492341041564941
1772594797342214000,3.5652138671875,0.05474281311035156,-0.00018721073865890503,0.001697152853012085
1772594797362478000,3.58547802734375,0.050498008728027344,-0.00016785413026809692,0.0015568435192108154
1772594797382741000,3.605740966796875,0.05009937286376953,-0.0001668184995651245,0.0015342235565185547
1772594797403005000,3.6260048828125,0.05188465118408203,-0.00017201527953147888,0.0015802979469299316
1772594797423269000,3.64626904296875,0.05661773681640625,-0.0001900121569633484,0.001723557710647583
1772594797443532000,3.666531982421875,0.06273174285888672,-0.00021532177925109863,0.0019106864929199219
1772594797463796000,3.6867958984375,0.06930255889892578,-0.00025046244263648987,0.0021079182624816895
1772594797484060000,3.707059814453125,0.07484817504882812,-0.00027802586555480957,0.002268671989440918
1772594797504323000,3.727322998046875,0.0798044204711914,-0.0003124997019767761,0.0024243593215942383
1772594797524587000,3.7475869140625,0.08013725280761719,-0.00033391639590263367,0.0024352073669433594
1772594797544851000,3.767850830078125,0.0773324966430664,-0.0003326684236526489,0.002346932888031006
1772594797565114000,3.788114013671875,0.07321643829345703,-0.00032708048820495605,0.002227872610092163
1772594797585378000,3.8083779296875,0.0649709701538086,-0.00029328465461730957,0.001986891031265259
1772594797605642000,3.82864208984375,0.05536842346191406,-0.00025391578674316406,0.0017118752002716064
1772594797625905000,3.84890478515625,0.042931556701660156,-0.00019530579447746277,0.0013367831707000732
1772594797646169000,3.869169189453125,0.029851913452148438,-0.00013313069939613342,0.0009338855743408203
1772594797666433000,3.88943310546875,0.01410675048828125,-0.00006112456321716309,0.00044333934783935547
1772594797686696000,3.909696044921875,-0.0036306381225585938,0.000014957040548324585,-0.00011464953422546387
1772594797706960000,3.9299599609375,-0.021154403686523438,0.00008087605237960815,-0.000667870044708252
1772594797727224000,3.95022412109375,-0.03380298614501953,0.00012265145778656006,-0.0010657012462615967
1772594797747487000,3.970487060546875,-0.042240142822265625,0.00014988332986831665,-0.0013345181941986084
1772594797767751000,3.9907509765625,-0.04607963562011719,0.00016319751739501953,-0.001458674669265747
1772594797788015000,4.01101513671875,-0.045189857482910156,0.00016461312770843506,-0.0014323592185974121
1772594797808278000,4.031278076171875,-0.04070091247558594,0.00015740841627120972,-0.0012860596179962158
1772594797828542000,4.0515419921875,-0.03479480743408203,0.0001449398696422577,-0.0010967850685119629
1772594797848806000,4.071805908203125,-0.027848243713378906,0.00012508034706115723,-0.0008764863014221191
1772594797869069000,4.092069091796875,-0.01854419708251953,0.00008835643529891968,-0.0005806088447570801
1772594797889333000,4.1123330078125,-0.009786605834960938,0.000048857182264328,-0.00030559301376342773
1772594797909597000,4.132596923828125,-0.0029306411743164062,0.00001539289951324463,-0.00009143352508544922
1772594797929860000,4.152860107421875,0.0018320083618164062,-0.000009797513484954834,0.00005698204040527344
1772594797950124000,4.1731240234375,0.00653839111328125,-0.00003541633486747742,0.00020232796669006348
1772594797970388000,4.193387939453125,0.008791923522949219,-0.00004798173904418945,0.0002702176570892334
1772594797990652000,4.21365185546875,0.008482933044433594,-0.00004568323493003845,0.0002586841583251953
1772594798010915000,4.2339150390625,0.0071258544921875,-0.00003761798143386841,0.00021660327911376953
1772594798031179000,4.254178955078125,0.007587432861328125,-0.000038854777812957764,0.0002301931381225586
1772594798051443000,4.27444287109375,0.00884246826171875,-0.00004486367106437683,0.00026854872703552246
1772594798071706000,4.2947060546875,0.011896133422851562,-0.0000588148832321167,0.0003630518913269043
1772594798091970000,4.314969970703125,0.017661094665527344,-0.00008697807788848877,0.0005407929420471191
1772594798112234000,4.33523388671875,0.02732372283935547,-0.000128917396068573,0.000836789608001709
1772594798132497000,4.355496826171875,0.03851032257080078,-0.00018031150102615356,0.0011818408966064453
1772594798152761000,4.375760986328125,0.048370361328125,-0.00022824853658676147,0.0014822185039520264
1772594798173025000,4.39602490234375,0.058783531188964844,-0.0002815127372741699,0.00180131196975708
1772594798193288000,4.416287841796875,0.0686483383178711,-0.0003388896584510803,0.0021015703678131104
1772594798213552000,4.43655224609375,0.0755910873413086,-0.0003760680556297302,0.002300858497619629
1772594798233816000,4.456816162109375,0.07932662963867188,-0.0003896839916706085,0.002397507429122925
1772594798254079000,4.477078857421875,0.07872200012207031,-0.0003699474036693573,0.0023539066314697266
1772594798274343000,4.497343017578125,0.07546138763427734,-0.00034449249505996704,0.002233356237411499
1772594798294607000,4.517607177734375,0.07144641876220703,-0.00031116604804992676,0.0020950138568878174
1772594798314870000,4.5378701171875,0.06630420684814453,-0.0002831071615219116,0.001940608024597168
1772594798335134000,4.558134033203125,0.0615234375,-0.00025290995836257935,0.001804262399673462
1772594798355398000,4.57839794921875,0.058058738708496094,-0.00023472309112548828,0.0017054378986358643
1772594798375661000,4.5986611328125,0.05561542510986328,-0.00021341443061828613,0.0016433894634246826
1772594798395925000,4.618925048828125,0.05494976043701172,-0.00019645318388938904,0.001637786626815796
1772594798416189000,4.63918896484375,0.056876182556152344,-0.000196896493434906,0.0017043054103851318
1772594798436452000,4.6594521484375,0.058852195739746094,-0.00020007416605949402,0.0017824769020080566
1772594798456716000,4.679716064453125,0.06233692169189453,-0.00021250545978546143,0.0019064247608184814
1772594798476980000,4.69997998046875,0.06359577178955078,-0.00021935999393463135,0.001957833766937256
1772594798497243000,4.720242919921875,0.06321334838867188,-0.00023186951875686646,0.0019568204879760742
1772594798517507000,4.740507080078125,0.060596466064453125,-0.00023772194981575012,0.0018838047981262207
1772594798537771000,4.76077099609375,0.055777549743652344,-0.00023637712001800537,0.0017357468605041504
1772594798558034000,4.781033935546875,0.046828269958496094,-0.00020382925868034363,0.001456230878829956
1772594798578298000,4.801298095703125,0.03474617004394531,-0.00015712901949882507,0.0010786652565002441
1772594798598562000,4.82156201171875,0.020163536071777344,-0.0000937730073928833,0.0006239116191864014
1772594798618825000,4.841824951171875,0.005389213562011719,-0.0000253431499004364,0.00016623735427856445
1772594798639089000,4.8620888671875,-0.005908012390136719,0.000028535723686218262,-0.00018087029457092285
1772594798659353000,4.88235302734375,-0.013390541076660156,0.0000670216977596283,-0.0004070401191711426
1772594798679616000,4.902615966796875,-0.01676177978515625,0.00008595362305641174,-0.0005071461200714111
1772594798699880000,4.9228798828125,-0.01923084259033203,0.00009820237755775452,-0.0005781352519989014
1772594798720144000,4.943143798828125,-0.020841598510742188,0.00010523572564125061,-0.0006239712238311768
1772594798740407000,4.963406982421875,-0.024277687072753906,0.0001178160309791565,-0.0007248818874359131
1772594798760671000,4.9836708984375,-0.027048110961914062,0.00012908503413200378,-0.0008073747158050537
1772594798780935000,5.003934814453125,-0.029166221618652344,0.00013830512762069702,-0.0008662045001983643
1772594798801198000,5.024197998046875,-0.03127574920654297,0.0001489594578742981,-0.0009240210056304932
1772594798821462000,5.0444619140625,-0.03545665740966797,0.00016886740922927856,-0.001046687364578247
1772594798841726000,5.064725830078125,-0.04219341278076172,0.0001969560980796814,-0.001246631145477295
1772594798861989000,5.084989013671875,-0.048623085021972656,0.00021949410438537598,-0.0014400184154510498
1772594798882253000,5.105253173828125,-0.05418586730957031,0.0002376064658164978,-0.0016071498394012451
1772594798902517000,5.12551708984375,-0.05701637268066406,0.0002486109733581543,-0.00170058012008667
1772594798922780000,5.14577978515625,-0.05731010437011719,0.0002446025609970093,-0.0017096996307373047
1772594798943044000,5.166044189453125,-0.05337810516357422,0.0002262890338897705,-0.0015946626663208008
1772594798963308000,5.18630810546875,-0.04744720458984375,0.00020074471831321716,-0.001414865255355835
1772594798983571000,5.206571044921875,-0.03895092010498047,0.00016330182552337646,-0.0011665523052215576
1772594799003835000,5.2268349609375,-0.028662681579589844,0.00012185797095298767,-0.0008608996868133545
1772594799024099000,5.24709912109375,-0.016193389892578125,0.00006935000419616699,-0.0004882216453552246
1772594799044362000,5.267362060546875,-0.0026674270629882812,0.000011447817087173462,-0.00008058547973632812
1772594799064626000,5.2876259765625,0.009116172790527344,-0.00003850087523460388,0.000275343656539917
1772594799084890000,5.30789013671875,0.019715309143066406,-0.0000819861888885498,0.000597149133682251
1772594799105153000,5.328153076171875,0.029440879821777344,-0.00012069568037986755,0.0008913576602935791
1772594799125417000,5.3484169921875,0.035050392150878906,-0.00014431774616241455,0.0010624825954437256
1772594799145681000,5.368680908203125,0.040863990783691406,-0.00016792118549346924,0.0012407302856445312
1772594799165944000,5.388944091796875,0.04763507843017578,-0.00018999353051185608,0.00145721435546875
1772594799186208000,5.4092080078125,0.05296802520751953,-0.00021146610379219055,0.0016257762908935547
1772594799206472000,5.429471923828125,0.058624267578125,-0.0002252720296382904,0.0018030405044555664
1772594799226735000,5.449735107421875,0.06493949890136719,-0.00024386495351791382,0.001992166042327881
1772594799246999000,5.4699990234375,0.0712575912475586,-0.00026187673211097717,0.0021841228008270264
1772594799267263000,5.490262939453125,0.07744216918945312,-0.00029232725501060486,0.0023771822452545166
1772594799287527000,5.51052685546875,0.08391094207763672,-0.00032934173941612244,0.002582937479019165
1772594799307790000,5.5307900390625,0.08963203430175781,-0.00036575645208358765,0.0027746260166168213
1772594799328054000,5.551053955078125,0.09609508514404297,-0.000402793288230896,0.002984076738357544
1772594799348318000,5.57131787109375,0.09876823425292969,-0.0004163607954978943,0.003076702356338501
1772594799368581000,5.5915810546875,0.09979438781738281,-0.00041799992322921753,0.003110170364379883
1772594799388845000,5.611844970703125,0.10046195983886719,-0.00040405988693237305,0.003135502338409424
1772594799409109000,5.63210888671875,0.10090065002441406,-0.00040430203080177307,0.0031561851501464844
1772594799429372000,5.652371826171875,0.09989738464355469,-0.0004010796546936035,0.003136187791824341
1772594799449636000,5.672635986328125,0.0975332260131836,-0.0003987252712249756,0.003064185380935669
1772594799469900000,5.692900146484375,0.09211444854736328,-0.00037682801485061646,0.0028952360153198242
1772594799490163000,5.713162841796875,0.08341407775878906,-0.0003429800271987915,0.002610325813293457
1772594799510427000,5.733427001953125,0.07440567016601562,-0.0003040209412574768,0.0023087263107299805
1772594799530691000,5.753691162109375,0.06805896759033203,-0.0002751760184764862,0.002096205949783325
1772594799550954000,5.7739541015625,0.0651559829711914,-0.0002620778977870941,0.001980394124984741
1772594799571218000,5.794218017578125,0.06380081176757812,-0.00025906413793563843,0.0019151568412780762
1772594799591482000,5.814482177734375,0.06065654754638672,-0.0002492479979991913,0.0017957687377929688
1772594799611745000,5.8347451171875,0.05516529083251953,-0.00022753700613975525,0.0016128122806549072
1772594799632009000,5.855009033203125,0.04761791229248047,-0.0001904405653476715,0.0013809800148010254
1772594799652273000,5.87527294921875,0.04040718078613281,-0.0001576840877532959,0.0011667609214782715
1772594799672536000,5.8955361328125,0.03726768493652344,-0.00014128908514976501,0.001069396734237671
1772594799692800000,5.915800048828125,0.03734588623046875,-0.00013326853513717651,0.0010651946067810059
1772594799713064000,5.93606396484375,0.0382537841796875,-0.00013309717178344727,0.001088261604309082
1772594799733327000,5.9563271484375,0.037781715393066406,-0.00013003870844841003,0.0010758638381958008
1772594799753591000,5.976591064453125,0.034811973571777344,-0.00011604651808738708,0.0009975731372833252
1772594799773855000,5.99685498046875,0.028839111328125,-0.00009777024388313293,0.0008286833763122559
1772594799794118000,6.017117919921875,0.025101661682128906,-0.00008634477853775024,0.0007245540618896484
1772594799814382000,6.037382080078125,0.02465343475341797,-0.00008419901132583618,0.0007153749465942383
1772594799834646000,6.05764599609375,0.02851104736328125,-0.00009819865226745605,0.000828176736831665
1772594799854909000,6.077908935546875,0.03275585174560547,-0.00011560320854187012,0.0009547770023345947
1772594799875173000,6.098173095703125,0.036022186279296875,-0.00012755393981933594,0.001055002212524414
1772594799895437000,6.11843701171875,0.03821086883544922,-0.00013748928904533386,0.0011237263679504395
1772594799915700000,6.138699951171875,0.0418548583984375,-0.00014439597725868225,0.0012354552745819092
1772594799935964000,6.1589638671875,0.04381084442138672,-0.00014343112707138062,0.0012934505939483643
1772594799956228000,6.17922802734375,0.04704761505126953,-0.0001491345465183258,0.0013896524906158447
1772594799976491000,6.199490966796875,0.05169868469238281,-0.00015897862613201141,0.0015347301959991455
1772594799996755000,6.2197548828125,0.05648517608642578,-0.0001683514565229416,0.0016812682151794434
1772594800017019000,6.240018798828125,0.060959815979003906,-0.00018300674855709076,0.0018172264099121094
1772594800037282000,6.260281982421875,0.060904502868652344,-0.00018438883125782013,0.0018252134323120117
1772594800057546000,6.2805458984375,0.05931377410888672,-0.00017997436225414276,0.0017789602279663086
1772594800077810000,6.300809814453125,0.05456352233886719,-0.00017485767602920532,0.001640617847442627
1772594800098073000,6.321072998046875,0.047013282775878906,-0.00015966594219207764,0.0014184117317199707
1772594800118337000,6.3413369140625,0.03534507751464844,-0.00012887269258499146,0.0010711848735809326
1772594800138601000,6.36160107421875,0.023461341857910156,-0.00009344890713691711,0.0007159709930419922
1772594800158864000,6.38186376953125,0.01015472412109375,-0.00004443526268005371,0.00031176209449768066
1772594800179128000,6.402128173828125,-0.002826690673828125,0.000013150274753570557,-0.00008696317672729492
1772594800199392000,6.42239208984375,-0.01629638671875,0.00007966533303260803,-0.0005022585391998291
1772594800219655000,6.442655029296875,-0.03206348419189453,0.00016258284449577332,-0.0009935498237609863
1772594800239919000,6.462919189453125,-0.043204307556152344,0.00023311004042625427,-0.0013409554958343506
1772594800260183000,6.48318310546875,-0.049823760986328125,0.0002774149179458618,-0.00154799222946167
1772594800280446000,6.503446044921875,-0.05231285095214844,0.00029262155294418335,-0.0016253292560577393
1772594800300710000,6.5237099609375,-0.04931354522705078,0.00027491524815559387,-0.0015349388122558594
1772594800320974000,6.54397412109375,-0.043786048889160156,0.0002433769404888153,-0.0013630688190460205
1772594800341237000,6.564237060546875,-0.03469276428222656,0.00019026920199394226,-0.0010812878608703613
1772594800361501000,6.5845009765625,-0.02212047576904297,0.00012104213237762451,-0.000690162181854248
1772594800381765000,6.60476513671875,-0.00882720947265625,0.00004718080163002014,-0.00027555227279663086
1772594800402028000,6.625028076171875,0.005123138427734375,-0.000026728957891464233,0.00016030669212341309
1772594800422292000,6.6452919921875,0.021140098571777344,-0.0001065470278263092,0.000659555196762085
1772594800442556000,6.665555908203125,0.03612804412841797,-0.0001684725284576416,0.0011240839958190918
1772594800462819000,6.685819091796875,0.044661521911621094,-0.0001996271312236786,0.0013907253742218018
1772594800483083000,6.7060830078125,0.049368858337402344,-0.00021120533347129822,0.0015317797660827637
1772594800503347000,6.726346923828125,0.04956245422363281,-0.00020786374807357788,0.0015267729759216309
1772594800523610000,6.746610107421875,0.04835987091064453,-0.00019963830709457397,0.0014843344688415527
1772594800543874000,6.7668740234375,0.043529510498046875,-0.00017707794904708862,0.0013281404972076416
1772594800564138000,6.787137939453125,0.03790092468261719,-0.000146474689245224,0.0011480450630187988
1772594800584402000,6.80740185546875,0.032692909240722656,-0.00012420490384101868,0.0009874999523162842
1772594800604665000,6.8276650390625,0.027718544006347656,-0.00010694563388824463,0.0008317530155181885
1772594800624929000,6.847928955078125,0.02302837371826172,-0.00008968263864517212,0.0006860196590423584
1772594800645193000,6.86819287109375,0.017694473266601562,-0.0000723227858543396,0.0005247890949249268
1772594800665456000,6.8884560546875,0.01596546173095703,-0.0000656619668006897,0.0004718899726867676
1772594800685720000,6.908719970703125,0.01733875274658203,-0.00007343664765357971,0.0005129575729370117
1772594800705984000,6.92898388671875,0.021604537963867188,-0.00009139254689216614,0.0006420910358428955
1772594800726247000,6.949246826171875,0.0261383056640625,-0.00010822340846061707,0.0007800757884979248
1772594800746511000,6.969510986328125,0.030651092529296875,-0.00012307614088058472,0.0009158551692962646
1772594800766775000,6.989775146484375,0.03266429901123047,-0.0001295618712902069,0.0009773969650268555
1772594800787038000,7.010037841796875,0.03424358367919922,-0.00013646483421325684,0.001025080680847168
1772594800807302000,7.030302001953125,0.03626060485839844,-0.00014128535985946655,0.001093149185180664
1772594800827566000,7.050566162109375,0.03697490692138672,-0.00014431029558181763,0.001121819019317627
1772594800847829000,7.0708291015625,0.03664970397949219,-0.0001395493745803833,0.001118302345275879
1772594800868093000,7.091093017578125,0.03398323059082031,-0.00012413784861564636,0.0010364353656768799
1772594800888357000,7.111357177734375,0.029134750366210938,-0.00009997189044952393,0.0008880794048309326
1772594800908620000,7.1316201171875,0.021305084228515625,-0.00006935372948646545,0.0006470978260040283
1772594800928884000,7.151884033203125,0.013905525207519531,-0.00004328042268753052,0.00041925907135009766
1772594800949148000,7.17214794921875,0.010278701782226562,-0.00003056041896343231,0.0003089606761932373
1772594800969411000,7.1924111328125,0.008930206298828125,-0.000026522204279899597,0.000267714262008667
1772594800989675000,7.212675048828125,0.00933074951171875,-0.000027097761631011963,0.0002792775630950928
1772594801009939000,7.23293896484375,0.009247779846191406,-0.000026755034923553467,0.0002758204936981201
1772594801030202000,7.2532021484375,0.009355545043945312,-0.00002652779221534729,0.0002785325050354004
1772594801050466000,7.273466064453125,0.011629104614257812,-0.000032160431146621704,0.00034540891647338867
1772594801070730000,7.29372998046875,0.017604827880859375,-0.00004978477954864502,0.0005233585834503174
1772594801090993000,7.313992919921875,0.026195526123046875,-0.00007499754428863525,0.0007800161838531494
1772594801111257000,7.334257080078125,0.03698253631591797,-0.0001082736998796463,0.0011007189750671387
1772594801131521000,7.35452099609375,0.04781532287597656,-0.000146402046084404,0.0014247000217437744
1772594801151784000,7.374783935546875,0.0579833984375,-0.00018610060214996338,0.001727759838104248
1772594801172048000,7.3950478515625,0.06752300262451172,-0.0002137068659067154,0.0020093917846679688
1772594801192312000,7.41531201171875,0.0745401382446289,-0.00023108534514904022,0.0022159218788146973
1772594801212575000,7.435574951171875,0.08066272735595703,-0.00025104545056819916,0.002393960952758789
1772594801232839000,7.4558388671875,0.08564949035644531,-0.00026428140699863434,0.002542734146118164
1772594801253103000,7.47610302734375,0.09045600891113281,-0.0002724863588809967,0.00268709659576416
1772594801273344000,7.496343994140625,0.09340667724609375,-0.00026864930987358093,0.002783656120300293
1772594801293608000,7.51660791015625,0.09489154815673828,-0.00026391632854938507,0.0028412938117980957
1772594801313871000,7.53687109375,0.09387397766113281,-0.0002532247453927994,0.002843916416168213
1772594801334135000,7.557135009765625,0.09305191040039062,-0.00024576298892498016,0.002846658229827881
1772594801354399000,7.57739892578125,0.09201812744140625,-0.0002401992678642273,0.0028392374515533447
1772594801374662000,7.597661865234375,0.0910329818725586,-0.0002495087683200836,0.002836942672729492
1772594801394926000,7.617926025390625,0.08981800079345703,-0.0002564322203397751,0.0028089582920074463
1772594801415190000,7.63818994140625,0.0899209976196289,-0.00025408342480659485,0.002816438674926758
1772594801435453000,7.658452880859375,0.09161949157714844,-0.0002693869173526764,0.002871006727218628
1772594801455717000,7.678717041015625,0.09273242950439453,-0.00030075013637542725,0.002904444932937622
1772594801475981000,7.69898095703125,0.09457111358642578,-0.00033972784876823425,0.0029552876949310303
1772594801496244000,7.719243896484375,0.09619140625,-0.00038510560989379883,0.0029903650283813477
1772594801516508000,7.7395078125,0.10033416748046875,-0.00042936205863952637,0.0031017661094665527
1772594801536772000,7.759772216796875,0.10552120208740234,-0.00046410784125328064,0.0032581686973571777
1772594801557035000,7.780034912109375,0.10941410064697266,-0.0004943609237670898,0.0033714771270751953
1772594801577299000,7.800298828125,0.11376762390136719,-0.0005191825330257416,0.0035081803798675537
1772594801597563000,7.82056298828125,0.1149301528930664,-0.0005401745438575745,0.003560364246368408
1772594801617826000,7.840825927734375,0.1126241683959961,-0.0005512535572052002,0.003510415554046631
1772594801638090000,7.861090087890625,0.10641860961914062,-0.0005275681614875793,0.003344118595123291
1772594801658354000,7.88135400390625,0.09691524505615234,-0.000477571040391922,0.0030654072761535645
1772594801678617000,7.9016171875,0.08410358428955078,-0.00040129944682121277,0.002674102783203125
1772594801698881000,7.921881103515625,0.06916999816894531,-0.0003152415156364441,0.002208530902862549
1772594801719145000,7.94214501953125,0.05621623992919922,-0.0002479627728462219,0.0018038451671600342
1772594801739408000,7.962407958984375,0.04326820373535156,-0.00018711388111114502,0.0013918876647949219
1772594801759672000,7.982672119140625,0.033718109130859375,-0.00013791024684906006,0.0010851919651031494
1772594801779936000,8.00293603515625,0.024565696716308594,-0.0000919140875339508,0.0007867813110351562
1772594801800199000,8.023198974609375,0.01918792724609375,-0.00006464868783950806,0.0006105303764343262
1772594801820463000,8.043463134765625,0.014088630676269531,-0.000043760985136032104,0.0004439353942871094
1772594801840727000,8.06372705078125,0.010123252868652344,-0.00003060884773731232,0.0003151893615722656
1772594801860990000,8.083989990234375,0.0070667266845703125,-0.000021474435925483704,0.00021699070930480957
1772594801881254000,8.10425390625,0.005481719970703125,-0.000017236918210983276,0.00016647577285766602
1772594801901518000,8.12451806640625,0.006951332092285156,-0.000022940337657928467,0.00020876526832580566
1772594801921781000,8.144781005859375,0.007399559020996094,-0.00002514570951461792,0.00021985173225402832
1772594801942045000,8.165044921875,0.00738525390625,-0.00002512708306312561,0.0002162456512451172
1772594801962309000,8.18530908203125,0.006592750549316406,-0.000023398548364639282,0.00019171833992004395
1772594801982572000,8.205572021484375,0.005850791931152344,-0.000021982938051223755,0.00016963481903076172
1772594802002836000,8.2258359375,0.0056018829345703125,-0.00002215057611465454,0.00016242265701293945
1772594802023100000,8.246099853515625,0.0075092315673828125,-0.000030644237995147705,0.00021851062774658203
1772594802043363000,8.266363037109375,0.010678291320800781,-0.00004328787326812744,0.00031250715255737305
1772594802063627000,8.286626953125,0.0145416259765625,-0.000057600438594818115,0.00042933225631713867
1772594802083891000,8.306890869140625,0.020635604858398438,-0.00008130446076393127,0.0006137192249298096
1772594802104154000,8.327154052734375,0.026790618896484375,-0.00010200962424278259,0.0008017420768737793
1772594802124418000,8.34741796875,0.03335380554199219,-0.00012683868408203125,0.000998854637145996
1772594802144682000,8.367681884765625,0.04002666473388672,-0.00015874579548835754,0.0012058019638061523
1772594802164946000,8.38794580078125,0.045203208923339844,-0.00018533319234848022,0.0013686120510101318
1772594802185209000,8.408208984375,0.049345970153808594,-0.00021227076649665833,0.0014962553977966309
1772594802205473000,8.42847314453125,0.0537109375,-0.00023714080452919006,0.001629561185836792
1772594802225737000,8.448737060546875,0.057053565979003906,-0.0002562813460826874,0.0017263591289520264
1772594802246000000,8.469000244140625,0.06254863739013672,-0.00028766319155693054,0.00188523530960083
1772594802266264000,8.48926416015625,0.06922626495361328,-0.0003248974680900574,0.0020710229873657227
1772594802286528000,8.509528076171875,0.07548999786376953,-0.00034996122121810913,0.0022301077842712402
1772594802306791000,8.529791015625,0.0812215805053711,-0.0003745816648006439,0.002374798059463501
1772594802327055000,8.55005517578125,0.08456802368164062,-0.00038031116127967834,0.0024642646312713623
1772594802347319000,8.570319091796875,0.08561325073242188,-0.0003757178783416748,0.002490788698196411
1772594802367582000,8.59058203125,0.08385562896728516,-0.00035393238067626953,0.002419590950012207
1772594802387846000,8.610845947265625,0.0787515640258789,-0.0003263130784034729,0.002260267734527588
1772594802408110000,8.631110107421875,0.07356548309326172,-0.000302731990814209,0.002097487449645996
1772594802428373000,8.651373046875,0.07051658630371094,-0.0002927742898464203,0.002005070447921753
1772594802448637000,8.671636962890625,0.06806659698486328,-0.000289279967546463,0.0019338726997375488
1772594802468901000,8.691901123046875,0.06656932830810547,-0.00029394030570983887,0.0018973052501678467
1772594802489164000,8.7121640625,0.06431388854980469,-0.00029559433460235596,0.0018542110919952393
1772594802509428000,8.732427978515625,0.06293487548828125,-0.0003078356385231018,0.001833200454711914
1772594802529692000,8.75269189453125,0.06350994110107422,-0.00033297017216682434,0.0018558800220489502
1772594802549955000,8.772955078125,0.06578254699707031,-0.00036612898111343384,0.0019176900386810303
1772594802570219000,8.793218994140625,0.07052803039550781,-0.00041762739419937134,0.0020563900470733643
1772594802590483000,8.81348291015625,0.07817649841308594,-0.00048556551337242126,0.0022798776626586914
1772594802610746000,8.83374609375,0.08169841766357422,-0.0005269497632980347,0.002380579710006714
1772594802631010000,8.854010009765625,0.08161640167236328,-0.0005342960357666016,0.002367854118347168
1772594802651274000,8.87427392578125,0.08064651489257812,-0.0005357712507247925,0.002319842576980591
1772594802671537000,8.894536865234375,0.079010009765625,-0.0005266740918159485,0.0022546052932739258
1772594802691801000,8.914801025390625,0.07769393920898438,-0.0005209073424339294,0.002192378044128418
