time,seconds_elapsed,z,y,x
1772594793998617000,0.2216171875,0.004922041669487953,0.0011972533538937569,-0.001064225216396153
1772594794018758000,0.2417578125,-0.004256900865584612,-0.002128450432792306,0.0023945067077875137
1772594794039052000,0.262052001953125,-0.0019954221788793802,0.0011972533538937569,-0.0035917600616812706
1772594794059316000,0.28231591796875,-0.0034587320405989885,-0.0038578163366764784,-0.0022614786867052317
1772594794079580000,0.302579833984375,-0.0025275349617004395,0.0023945067077875137,0.0018623941577970982
1772594794099843000,0.322843017578125,0.0015963378828018904,-0.0011972533538937569,-0.004123872611671686
1772594794120107000,0.34310693359375,0.0034587320405989885,0.0018623941577970982,0.0025275349617004395
1772594794140371000,0.363370849609375,0.0025275349617004395,-0.0026605629827827215,0.0031926757656037807
1772594794160634000,0.383634033203125,0.0022614786867052317,0.0025275349617004395,-0.0007981689414009452
1772594794180898000,0.40389794921875,0.0023945067077875137,0.0031926757656037807,0.004389929119497538
1772594794201162000,0.424161865234375,-0.0027935912366956472,0.004655985161662102,-0.0038578163366764784
1772594794221425000,0.4444248046875,-0.0035917600616812706,0.002128450432792306,0.00013302815204951912
1772594794241689000,0.464689208984375,0.00026605630409903824,-0.0039908443577587605,-0.002128450432792306
1772594794261953000,0.484953125,-0.0031926757656037807,0.0022614786867052317,-0.0003990844707004726
1772594794282216000,0.5052158203125,-0.001064225216396153,-0.0003990844707004726,0.0007981689414009452
1772594794302480000,0.52547998046875,0.0025275349617004395,-0.0034587320405989885,0.0015963378828018904
1772594794322744000,0.545744140625,-0.002128450432792306,-0.0047890134155750275,-0.0026605629827827215
1772594794343007000,0.566007080078125,0,0.0029266192577779293,0.004655985161662102
1772594794363271000,0.58627099609375,-0.0018623941577970982,-0.003325703786686063,-0.0015963378828018904
1772594794383535000,0.60653515625,0.00026605630409903824,0.0005321126081980765,0.0037247883155941963
1772594794403798000,0.626798095703125,0.00026605630409903824,0.0038578163366764784,-0.0039908443577587605
1772594794424062000,0.64706201171875,0.0039908443577587605,-0.004389929119497538,0.004256900865584612
1772594794444326000,0.667325927734375,0.0037247883155941963,-0.0014633096288889647,-0.0026605629827827215
1772594794464589000,0.687589111328125,-0.0018623941577970982,-0.0047890134155750275,-0.0011972533538937569
1772594794484853000,0.70785302734375,-0.00013302815204951912,-0.0019954221788793802,0.0017293660202994943
1772594794505117000,0.728116943359375,-0.0023945067077875137,0.0031926757656037807,0.0005321126081980765
1772594794525381000,0.748381103515625,-0.0031926757656037807,0.0037247883155941963,0.0034587320405989885
1772594794545644000,0.76864404296875,-0.0039908443577587605,-0.0014633096288889647,-0.0027935912366956472
1772594794565908000,0.788907958984375,-0.004256900865584612,-0.0026605629827827215,-0.003325703786686063
1772594794586172000,0.809171875,-0.0037247883155941963,-0.0009311970788985491,0.004123872611671686
1772594794606435000,0.82943505859375,-0.0027935912366956472,0.0023945067077875137,0.0037247883155941963
1772594794626699000,0.849698974609375,-0.0029266192577779293,-0.0019954221788793802,-0.0037247883155941963
1772594794646963000,0.869962890625,-0.004389929119497538,0.004655985161662102,-0.0035917600616812706
1772594794667226000,0.89022607421875,0.004522957373410463,0.0035917600616812706,0.003325703786686063
1772594794687490000,0.910489990234375,-0.002128450432792306,0.0013302814913913608,-0.0014633096288889647
1772594794707754000,0.93075390625,0.0047890134155750275,0.00013302815204951912,0.004256900865584612
1772594794728017000,0.951016845703125,0.004522957373410463,0.0039908443577587605,-0.0013302814913913608
1772594794748281000,0.971281005859375,-0.003325703786686063,-0.0029266192577779293,-0.0025275349617004395
1772594794768545000,0.991544921875,-0.0023945067077875137,0.0006651407456956804,0.0009311970788985491
1772594794788808000,1.011807861328125,-0.0023945067077875137,0.0015963378828018904,-0.0025275349617004395
1772594794809072000,1.032072021484375,-0.003325703786686063,0.0019954221788793802,0.004522957373410463
1772594794829336000,1.052336181640625,0.0038578163366764784,-0.001064225216396153,0.0015963378828018904
1772594794849599000,1.072598876953125,-0.0039908443577587605,-0.0025275349617004395,0.0029266192577779293
1772594794869863000,1.09286279296875,-0.0035917600616812706,-0.00013302815204951912,-0.003059647511690855
1772594794890127000,1.113127197265625,0.002128450432792306,-0.0013302814913913608,-0.003325703786686063
1772594794910390000,1.13339013671875,0.0034587320405989885,-0.004123872611671686,-0.0011972533538937569
1772594794930654000,1.153654052734375,0.0047890134155750275,-0.004655985161662102,0.004256900865584612
1772594794950918000,1.17391796875,-0.0029266192577779293,-0.0025275349617004395,0.0039908443577587605
1772594794971181000,1.19418115234375,0.004522957373410463,0.0026605629827827215,-0.004256900865584612
1772594794991445000,1.214445068359375,-0.0037247883155941963,0.0023945067077875137,-0.004389929119497538
1772594795011709000,1.234708984375,-0.004389929119497538,-0.0037247883155941963,0.0035917600616812706
1772594795031972000,1.25497216796875,-0.004123872611671686,0.0035917600616812706,-0.0047890134155750275
1772594795052236000,1.275236083984375,0,0.003059647511690855,-0.002128450432792306
1772594795072500000,1.2955,0.0015963378828018904,-0.0035917600616812706,-0.0034587320405989885
1772594795092763000,1.315762939453125,-0.002128450432792306,0.00026605630409903824,-0.004522957373410463
1772594795113027000,1.336027099609375,-0.00013302815204951912,0.0006651407456956804,0.0019954221788793802
1772594795133291000,1.356291015625,-0.004389929119497538,-0.0026605629827827215,-0.0031926757656037807
1772594795153554000,1.376553955078125,0.0007981689414009452,-0.00026605630409903824,-0.004389929119497538
1772594795173818000,1.396818115234375,-0.0017293660202994943,0.0035917600616812706,-0.004922041669487953
1772594795194082000,1.41708203125,0.002128450432792306,-0.003059647511690855,-0.0039908443577587605
1772594795214345000,1.437344970703125,-0.00026605630409903824,-0.0003990844707004726,-0.0047890134155750275
1772594795234609000,1.45760888671875,-0.0025275349617004395,0.0022614786867052317,-0.0007981689414009452
1772594795254873000,1.477873046875,-0.0014633096288889647,-0.0023945067077875137,0
1772594795275136000,1.498135986328125,0.0014633096288889647,-0.004522957373410463,0.0015963378828018904
1772594795295400000,1.51839990234375,-0.002128450432792306,-0.001064225216396153,0.001064225216396153
1772594795315664000,1.538663818359375,0.0034587320405989885,-0.0026605629827827215,0.004522957373410463
1772594795335927000,1.558927001953125,0.004389929119497538,0.004922041669487953,-0.0031926757656037807
1772594795356191000,1.57919091796875,0.0029266192577779293,0.0014633096288889647,-0.0037247883155941963
1772594795376455000,1.599454833984375,0.0018623941577970982,-0.004123872611671686,0.0022614786867052317
1772594795396718000,1.619718017578125,-0.004123872611671686,-0.0018623941577970982,-0.004922041669487953
1772594795416982000,1.63998193359375,-0.0038578163366764784,-0.0027935912366956472,-0.0009311970788985491
1772594795437246000,1.660245849609375,-0.004123872611671686,-0.0019954221788793802,-0.0025275349617004395
1772594795457509000,1.680509033203125,0.00013302815204951912,0.004922041669487953,-0.0015963378828018904
1772594795477773000,1.70077294921875,0.0006651407456956804,-0.0047890134155750275,0.0038578163366764784
1772594795498037000,1.721037109375,-0.0023945067077875137,0.0029266192577779293,-0.00026605630409903824
1772594795518484000,1.74148388671875,0.0034587320405989885,0.0006651407456956804,-0.0014633096288889647
1772594795538747000,1.761746826171875,-0.0017293660202994943,-0.003059647511690855,-0.0022614786867052317
1772594795559011000,1.782010986328125,0.0026605629827827215,0.0003990844707004726,-0.0047890134155750275
1772594795579275000,1.80227490234375,-0.0018623941577970982,-0.00026605630409903824,0.0009311970788985491
1772594795599538000,1.822537841796875,-0.003059647511690855,-0.0039908443577587605,-0.00026605630409903824
1772594795619802000,1.842802001953125,0,0.004522957373410463,-0.0006651407456956804
1772594795640066000,1.863066162109375,-0.004922041669487953,0.0018623941577970982,0.0006651407456956804
1772594795660329000,1.883328857421875,-0.0019954221788793802,-0.004655985161662102,0.004123872611671686
1772594795680593000,1.903593017578125,0.0038578163366764784,-0.0047890134155750275,-0.00026605630409903824
1772594795700857000,1.923857177734375,0.004389929119497538,0.0039908443577587605,0.0019954221788793802
1772594795721120000,1.9441201171875,0.0005321126081980765,-0.0013302814913913608,0.0025275349617004395
1772594795741384000,1.964384033203125,-0.004922041669487953,0.0011972533538937569,0.004655985161662102
1772594795761648000,1.984648193359375,-0.0003990844707004726,0.0015963378828018904,0.003325703786686063
1772594795781911000,2.0049111328125,0.003059647511690855,0.005055069923400879,-0.0009311970788985491
1772594795802175000,2.025175048828125,-0.00013302815204951912,-0.0023945067077875137,-0.0009311970788985491
1772594795822439000,2.04543896484375,-0.004922041669487953,0.004123872611671686,0.004522957373410463
1772594795842702000,2.0657021484375,0.004522957373410463,-0.0039908443577587605,0.0009311970788985491
1772594795862966000,2.085966064453125,-0.0029266192577779293,-0.0025275349617004395,-0.0035917600616812706
1772594795883230000,2.10622998046875,0.0013302814913913608,0,-0.004256900865584612
1772594795903493000,2.1264931640625,0.003059647511690855,-0.002128450432792306,0.0007981689414009452
1772594795923757000,2.146757080078125,-0.004922041669487953,-0.00026605630409903824,0.002128450432792306
1772594795944021000,2.16702099609375,-0.0022614786867052317,0.004655985161662102,0.00026605630409903824
1772594795964284000,2.187283935546875,-0.0026605629827827215,0.0005321126081980765,0.0022614786867052317
1772594795984548000,2.207548095703125,0.001064225216396153,0.0038578163366764784,-0.0029266192577779293
1772594796004812000,2.22781201171875,-0.003325703786686063,-0.0006651407456956804,0.0006651407456956804
1772594796025075000,2.248074951171875,-0.001064225216396153,-0.0026605629827827215,0.0026605629827827215
1772594796045339000,2.2683388671875,-0.0035917600616812706,0.0013302814913913608,-0.0026605629827827215
1772594796065603000,2.28860302734375,0.0022614786867052317,-0.0007981689414009452,0.004256900865584612
1772594796085866000,2.308865966796875,0.0027935912366956472,0.0006651407456956804,-0.0037247883155941963
1772594796106130000,2.3291298828125,-0.003059647511690855,-0.0005321126081980765,0.0031926757656037807
1772594796126394000,2.34939404296875,0.004655985161662102,-0.0014633096288889647,-0.004389929119497538
1772594796146657000,2.369656982421875,-0.0013302814913913608,0.0009311970788985491,0.004922041669487953
1772594796166921000,2.3899208984375,0.004389929119497538,0.0034587320405989885,-0.0011972533538937569
1772594796187185000,2.410184814453125,0.002128450432792306,0.0047890134155750275,0.0034587320405989885
1772594796207448000,2.430447998046875,0.0011972533538937569,-0.001064225216396153,-0.0003990844707004726
1772594796227712000,2.4507119140625,-0.003059647511690855,-0.003325703786686063,0.004123872611671686
1772594796247976000,2.470975830078125,0.004522957373410463,0.0022614786867052317,0.0027935912366956472
1772594796268239000,2.491239013671875,-0.002128450432792306,-0.0017293660202994943,-0.0034587320405989885
1772594796288503000,2.5115029296875,-0.0022614786867052317,-0.0009311970788985491,0.0011972533538937569
1772594796308767000,2.53176708984375,-0.0039908443577587605,-0.0018623941577970982,0.0034587320405989885
1772594796329030000,2.55202978515625,-0.0009311970788985491,0.0029266192577779293,0.0013302814913913608
1772594796349294000,2.572294189453125,0.003059647511690855,0.004389929119497538,-0.0034587320405989885
1772594796369558000,2.59255810546875,0.003059647511690855,0.004922041669487953,-0.0017293660202994943
1772594796389821000,2.612821044921875,-0.004389929119497538,-0.0037247883155941963,-0.00026605630409903824
1772594796410085000,2.633085205078125,0.0034587320405989885,-0.0039908443577587605,0.004522957373410463
1772594796430349000,2.65334912109375,0.0023945067077875137,-0.0023945067077875137,-0.0026605629827827215
1772594796450612000,2.673612060546875,0.0014633096288889647,-0.001064225216396153,0.0026605629827827215
1772594796470876000,2.6938759765625,0.003059647511690855,-0.0034587320405989885,-0.0017293660202994943
1772594796491140000,2.71414013671875,-0.0018623941577970982,-0.004922041669487953,0.0011972533538937569
1772594796511403000,2.734403076171875,-0.0023945067077875137,0.0035917600616812706,-0.0025275349617004395
1772594796531667000,2.7546669921875,-0.0009311970788985491,0.0003990844707004726,-0.0037247883155941963
1772594796551931000,2.774930908203125,0.0031926757656037807,-0.0011972533538937569,-0.004389929119497538
1772594796572194000,2.795194091796875,0.0017293660202994943,0.0013302814913913608,-0.0039908443577587605
1772594796592458000,2.8154580078125,-0.0035917600616812706,-0.0025275349617004395,-0.0027935912366956472
1772594796612722000,2.835721923828125,-0.0047890134155750275,0.00026605630409903824,0.002128450432792306
1772594796632985000,2.855985107421875,-0.0017293660202994943,0.0003990844707004726,0
1772594796653249000,2.8762490234375,-0.004655985161662102,-0.0009311970788985491,0.002128450432792306
1772594796673513000,2.896512939453125,0.0014633096288889647,-0.0014633096288889647,-0.0013302814913913608
1772594796693777000,2.91677685546875,-0.0007981689414009452,0.004123872611671686,-0.0037247883155941963
1772594796714040000,2.9370400390625,0.004922041669487953,-0.0029266192577779293,0.004522957373410463
1772594796734304000,2.957303955078125,0.0029266192577779293,0.004123872611671686,0.0003990844707004726
1772594796754568000,2.97756787109375,-0.0027935912366956472,0.004655985161662102,0.004256900865584612
1772594796774831000,2.9978310546875,-0.004922041669487953,0.0014633096288889647,-0.0014633096288889647
1772594796795095000,3.018094970703125,-0.0013302814913913608,-0.0019954221788793802,-0.0009311970788985491
1772594796815359000,3.03835888671875,0.0019954221788793802,-0.004256900865584612,-0.0017293660202994943
1772594796835622000,3.058621826171875,-0.0005321126081980765,-0.0018623941577970982,0.0023945067077875137
1772594796855886000,3.078885986328125,-0.003059647511690855,0.00013302815204951912,0.0027935912366956472
1772594796876150000,3.09914990234375,0.002128450432792306,0.00026605630409903824,-0.0005321126081980765
1772594796896413000,3.119412841796875,0.0019954221788793802,-0.0039908443577587605,0.0005321126081980765
1772594796916677000,3.139677001953125,0.004522957373410463,-0.0017293660202994943,-0.00013302815204951912
1772594796936941000,3.159941162109375,-0.0037247883155941963,0,-0.0018623941577970982
1772594796957204000,3.180203857421875,0.0034587320405989885,-0.003059647511690855,-0.004655985161662102
1772594796977468000,3.200468017578125,-0.004922041669487953,0.0015963378828018904,0.0029266192577779293
1772594796997732000,3.220732177734375,0.0003990844707004726,0.0019954221788793802,0
1772594797017995000,3.2409951171875,-0.004922041669487953,-0.004922041669487953,0
1772594797038259000,3.261259033203125,0.0007981689414009452,-0.003059647511690855,0.0011972533538937569
1772594797058523000,3.28152294921875,-0.004256900865584612,0.0003990844707004726,0.0035917600616812706
1772594797078786000,3.3017861328125,-0.0005321126081980765,0.001064225216396153,-0.004123872611671686
1772594797099050000,3.322050048828125,0.004256900865584612,-0.00026605630409903824,-0.004522957373410463
1772594797119314000,3.34231396484375,-0.004922041669487953,0.0047890134155750275,-0.0035917600616812706
1772594797139577000,3.3625771484375,0.0027935912366956472,0.002128450432792306,-0.0003990844707004726
1772594797159841000,3.382841064453125,-0.0037247883155941963,0.0029266192577779293,0.0011972533538937569
1772594797180105000,3.40310498046875,-0.004655985161662102,0.0038578163366764784,-0.0023945067077875137
1772594797200368000,3.4233681640625,0.001064225216396153,-0.0035917600616812706,0.0047890134155750275
1772594797220632000,3.443632080078125,-0.0023945067077875137,0.004922041669487953,-0.004655985161662102
1772594797240896000,3.46389599609375,0.0039908443577587605,0.0035917600616812706,-0.0006651407456956804
1772594797261159000,3.484158935546875,0.003325703786686063,0.0005321126081980765,-0.002128450432792306
1772594797281423000,3.504423095703125,-0.0022614786867052317,0.0022614786867052317,-0.0007981689414009452
1772594797301687000,3.52468701171875,0.003059647511690855,0.0007981689414009452,-0.0047890134155750275
1772594797321950000,3.544949951171875,0.004389929119497538,0.004655985161662102,0.0034587320405989885
1772594797342214000,3.5652138671875,0.0005321126081980765,0.0039908443577587605,0.00013302815204951912
1772594797362478000,3.58547802734375,-0.0019954221788793802,0.0026605629827827215,0.0031926757656037807
1772594797382741000,3.605740966796875,0.0006651407456956804,-0.004256900865584612,0.0029266192577779293
1772594797403005000,3.6260048828125,0.004522957373410463,-0.0018623941577970982,0.0025275349617004395
1772594797423269000,3.64626904296875,-0.0017293660202994943,0.004389929119497538,0.0025275349617004395
1772594797443532000,3.666531982421875,0.0047890134155750275,0.0006651407456956804,0.0038578163366764784
1772594797463796000,3.6867958984375,0.004123872611671686,-0.0017293660202994943,0.0029266192577779293
1772594797484060000,3.707059814453125,0.004389929119497538,-0.003059647511690855,0.0006651407456956804
1772594797504323000,3.727322998046875,0.004522957373410463,0.0019954221788793802,-0.0039908443577587605
1772594797524587000,3.7475869140625,-0.0047890134155750275,0.0011972533538937569,0.0022614786867052317
1772594797544851000,3.767850830078125,-0.0026605629827827215,0.0014633096288889647,-0.0038578163366764784
1772594797565114000,3.788114013671875,0.0026605629827827215,-0.0027935912366956472,-0.0038578163366764784
1772594797585378000,3.8083779296875,-0.004389929119497538,0.0014633096288889647,-0.00013302815204951912
1772594797605642000,3.82864208984375,-0.004123872611671686,0.0015963378828018904,-0.00026605630409903824
1772594797625905000,3.84890478515625,-0.0014633096288889647,0.0015963378828018904,-0.0047890134155750275
1772594797646169000,3.869169189453125,0.0023945067077875137,0.0017293660202994943,-0.0047890134155750275
1772594797666433000,3.88943310546875,-0.00013302815204951912,-0.0015963378828018904,-0.004256900865584612
1772594797686696000,3.909696044921875,-0.00013302815204951912,0.0005321126081980765,-0.0014633096288889647
1772594797706960000,3.9299599609375,-0.00013302815204951912,-0.0029266192577779293,0.0018623941577970982
1772594797727224000,3.95022412109375,0.0035917600616812706,-0.0031926757656037807,-0.0034587320405989885
1772594797747487000,3.970487060546875,-0.004389929119497538,0.004522957373410463,0.004655985161662102
1772594797767751000,3.9907509765625,-0.0035917600616812706,-0.00013302815204951912,-0.003325703786686063
1772594797788015000,4.01101513671875,-0.004123872611671686,-0.004123872611671686,-0.0035917600616812706
1772594797808278000,4.031278076171875,-0.0039908443577587605,-0.0025275349617004395,-0.0035917600616812706
1772594797828542000,4.0515419921875,0.001064225216396153,0.0003990844707004726,-0.0038578163366764784
1772594797848806000,4.071805908203125,-0.0018623941577970982,-0.0007981689414009452,0.0017293660202994943
1772594797869069000,4.092069091796875,0.0003990844707004726,-0.0047890134155750275,-0.0027935912366956472
1772594797889333000,4.1123330078125,0.0025275349617004395,0.00013302815204951912,-0.003059647511690855
1772594797909597000,4.132596923828125,0.00013302815204951912,-0.004655985161662102,0.0003990844707004726
1772594797929860000,4.152860107421875,0.00013302815204951912,-0.001064225216396153,0.0047890134155750275
1772594797950124000,4.1731240234375,-0.00026605630409903824,-0.0009311970788985491,-0.0009311970788985491
1772594797970388000,4.193387939453125,0.0017293660202994943,-0.0031926757656037807,0.00013302815204951912
1772594797990652000,4.21365185546875,-0.0003990844707004726,0.0025275349617004395,-0.0009311970788985491
1772594798010915000,4.2339150390625,-0.0035917600616812706,-0.003325703786686063,-0.0005321126081980765
1772594798031179000,4.254178955078125,-0.0031926757656037807,-0.001064225216396153,0.004922041669487953
1772594798051443000,4.27444287109375,0.004522957373410463,0.0015963378828018904,-0.0019954221788793802
1772594798071706000,4.2947060546875,-0.004655985161662102,-0.00026605630409903824,-0.0006651407456956804
1772594798091970000,4.314969970703125,-0.002128450432792306,0.0009311970788985491,0.0011972533538937569
1772594798112234000,4.33523388671875,0.0013302814913913608,0.0026605629827827215,0.004389929119497538
1772594798132497000,4.355496826171875,-0.003325703786686063,0.004522957373410463,0.0031926757656037807
1772594798152761000,4.375760986328125,0.0029266192577779293,-0.0039908443577587605,-0.0031926757656037807
1772594798173025000,4.39602490234375,-0.0031926757656037807,-0.004389929119497538,-0.004256900865584612
1772594798193288000,4.416287841796875,0.0019954221788793802,0.00026605630409903824,0.00013302815204951912
1772594798213552000,4.43655224609375,0.004655985161662102,-0.0025275349617004395,0.001064225216396153
1772594798233816000,4.456816162109375,-0.004123872611671686,0.0011972533538937569,-0.0029266192577779293
1772594798254079000,4.477078857421875,0.0014633096288889647,-0.004256900865584612,-0.0022614786867052317
1772594798274343000,4.497343017578125,-0.0013302814913913608,-0.0017293660202994943,0.003059647511690855
1772594798294607000,4.517607177734375,-0.0026605629827827215,0.0025275349617004395,0.0034587320405989885
1772594798314870000,4.5378701171875,-0.0038578163366764784,0.0017293660202994943,-0.004522957373410463
1772594798335134000,4.558134033203125,0.004522957373410463,0.003325703786686063,0.004655985161662102
1772594798355398000,4.57839794921875,-0.0013302814913913608,-0.0014633096288889647,-0.0029266192577779293
1772594798375661000,4.5986611328125,-0.004522957373410463,-0.0003990844707004726,-0.0031926757656037807
1772594798395925000,4.618925048828125,0.0009311970788985491,0.004655985161662102,-0.0047890134155750275
1772594798416189000,4.63918896484375,0.0038578163366764784,0.004922041669487953,0.00026605630409903824
1772594798436452000,4.6594521484375,-0.00013302815204951912,0.00013302815204951912,-0.0022614786867052317
1772594798456716000,4.679716064453125,-0.0029266192577779293,0.0015963378828018904,-0.0006651407456956804
1772594798476980000,4.69997998046875,-0.0035917600616812706,0.0005321126081980765,0.0029266192577779293
1772594798497243000,4.720242919921875,-0.0038578163366764784,0.00013302815204951912,0.0047890134155750275
1772594798517507000,4.740507080078125,0.001064225216396153,0.004256900865584612,-0.0037247883155941963
1772594798537771000,4.76077099609375,0.0017293660202994943,-0.004123872611671686,-0.0031926757656037807
1772594798558034000,4.781033935546875,0.0011972533538937569,0.0029266192577779293,0.004389929119497538
1772594798578298000,4.801298095703125,-0.0029266192577779293,-0.0039908443577587605,0.0018623941577970982
1772594798598562000,4.82156201171875,-0.0014633096288889647,0.0015963378828018904,0.0005321126081980765
1772594798618825000,4.841824951171875,-0.0025275349617004395,0.0038578163366764784,0.0029266192577779293
1772594798639089000,4.8620888671875,-0.0003990844707004726,-0.0015963378828018904,-0.00026605630409903824
1772594798659353000,4.88235302734375,-0.0031926757656037807,-0.004922041669487953,0.004522957373410463
1772594798679616000,4.902615966796875,0.001064225216396153,0.0013302814913913608,-0.0014633096288889647
1772594798699880000,4.9228798828125,-0.0019954221788793802,0.0018623941577970982,0.0047890134155750275
1772594798720144000,4.943143798828125,-0.0003990844707004726,0.0007981689414009452,0.0006651407456956804
1772594798740407000,4.963406982421875,0.0009311970788985491,0.0034587320405989885,-0.0018623941577970982
1772594798760671000,4.9836708984375,0.003325703786686063,-0.0007981689414009452,0.0017293660202994943
1772594798780935000,5.003934814453125,0.0047890134155750275,-0.0005321126081980765,0.00013302815204951912
1772594798801198000,5.024197998046875,0.0005321126081980765,-0.002128450432792306,-0.004256900865584612
1772594798821462000,5.0444619140625,-0.0031926757656037807,-0.004123872611671686,0.0018623941577970982
1772594798841726000,5.064725830078125,0.00026605630409903824,0.004256900865584612,-0.0014633096288889647
1772594798861989000,5.084989013671875,0.0039908443577587605,0.0013302814913913608,-0.004922041669487953
1772594798882253000,5.105253173828125,0.0022614786867052317,0.0013302814913913608,-0.0003990844707004726
1772594798902517000,5.12551708984375,-0.0011972533538937569,-0.0038578163366764784,0.0022614786867052317
1772594798922780000,5.14577978515625,0.0023945067077875137,-0.0013302814913913608,-0.0009311970788985491
1772594798943044000,5.166044189453125,-0.0014633096288889647,0.004256900865584612,-0.003325703786686063
1772594798963308000,5.18630810546875,-0.0039908443577587605,0.0006651407456956804,0.0027935912366956472
1772594798983571000,5.206571044921875,0.0039908443577587605,-0.0029266192577779293,0.004256900865584612
1772594799003835000,5.2268349609375,0.0038578163366764784,0.0018623941577970982,-0.00013302815204951912
1772594799024099000,5.24709912109375,0.003325703786686063,-0.0007981689414009452,-0.0031926757656037807
1772594799044362000,5.267362060546875,0,-0.0014633096288889647,0.0031926757656037807
1772594799064626000,5.2876259765625,0.0029266192577779293,0.0011972533538937569,0.0027935912366956472
1772594799084890000,5.30789013671875,-0.0031926757656037807,-0.0022614786867052317,0.00026605630409903824
1772594799105153000,5.328153076171875,-0.0014633096288889647,-0.0037247883155941963,0.0047890134155750275
1772594799125417000,5.3484169921875,-0.0005321126081980765,-0.004123872611671686,0
1772594799145681000,5.368680908203125,0.001064225216396153,-0.0027935912366956472,0.0035917600616812706
1772594799165944000,5.388944091796875,0.0018623941577970982,-0.0039908443577587605,0.0039908443577587605
1772594799186208000,5.4092080078125,-0.0017293660202994943,0.0047890134155750275,-0.004522957373410463
1772594799206472000,5.429471923828125,-0.0007981689414009452,0.004655985161662102,-0.0022614786867052317
1772594799226735000,5.449735107421875,0,-0.0015963378828018904,-0.0023945067077875137
1772594799246999000,5.4699990234375,0.0014633096288889647,0.0023945067077875137,-0.0011972533538937569
1772594799267263000,5.490262939453125,0.004655985161662102,0.0013302814913913608,0.004256900865584612
1772594799287527000,5.51052685546875,0.0039908443577587605,-0.0034587320405989885,-0.003325703786686063
1772594799307790000,5.5307900390625,0,-0.003059647511690855,0.0037247883155941963
1772594799328054000,5.551053955078125,0.0003990844707004726,0.004389929119497538,0.0018623941577970982
1772594799348318000,5.57131787109375,-0.0006651407456956804,-0.0013302814913913608,0.0015963378828018904
1772594799368581000,5.5915810546875,-0.0038578163366764784,-0.0023945067077875137,-0.0005321126081980765
1772594799388845000,5.611844970703125,-0.0022614786867052317,0.00026605630409903824,0.0023945067077875137
1772594799409109000,5.63210888671875,-0.0038578163366764784,-0.0017293660202994943,0.00026605630409903824
1772594799429372000,5.652371826171875,0.004123872611671686,0.004389929119497538,-0.0014633096288889647
1772594799449636000,5.672635986328125,-0.0017293660202994943,-0.0006651407456956804,-0.0027935912366956472
1772594799469900000,5.692900146484375,0.003325703786686063,-0.0003990844707004726,-0.0022614786867052317
1772594799490163000,5.713162841796875,-0.0007981689414009452,-0.0029266192577779293,-0.0003990844707004726
1772594799510427000,5.733427001953125,0.0027935912366956472,0.0025275349617004395,0.0013302814913913608
1772594799530691000,5.753691162109375,0.004389929119497538,-0.0037247883155941963,0.004522957373410463
1772594799550954000,5.7739541015625,-0.004123872611671686,0.0003990844707004726,0.002128450432792306
1772594799571218000,5.794218017578125,0.00026605630409903824,-0.004655985161662102,0.0005321126081980765
1772594799591482000,5.814482177734375,-0.0039908443577587605,0.0019954221788793802,0.0007981689414009452
1772594799611745000,5.8347451171875,0.004389929119497538,0.0007981689414009452,0.004123872611671686
1772594799632009000,5.855009033203125,0.0017293660202994943,0.0047890134155750275,-0.002128450432792306
1772594799652273000,5.87527294921875,0,-0.004522957373410463,-0.004256900865584612
1772594799672536000,5.8955361328125,0.004522957373410463,-0.004922041669487953,0.0017293660202994943
1772594799692800000,5.915800048828125,-0.0026605629827827215,0.004655985161662102,0
1772594799713064000,5.93606396484375,0.0029266192577779293,0.003325703786686063,-0.0039908443577587605
1772594799733327000,5.9563271484375,-0.0009311970788985491,-0.0027935912366956472,0.0005321126081980765
1772594799753591000,5.976591064453125,0.004522957373410463,-0.0037247883155941963,0.0047890134155750275
1772594799773855000,5.99685498046875,-0.0031926757656037807,0.0015963378828018904,0.0006651407456956804
1772594799794118000,6.017117919921875,-0.004123872611671686,-0.003059647511690855,0.003059647511690855
1772594799814382000,6.037382080078125,0.0022614786867052317,0.005055069923400879,-0.0022614786867052317
1772594799834646000,6.05764599609375,-0.00026605630409903824,-0.0047890134155750275,-0.0006651407456956804
1772594799854909000,6.077908935546875,-0.004922041669487953,-0.0022614786867052317,0.0013302814913913608
1772594799875173000,6.098173095703125,-0.0019954221788793802,0.004655985161662102,0.0027935912366956472
1772594799895437000,6.11843701171875,0.0015963378828018904,-0.004522957373410463,0.0018623941577970982
1772594799915700000,6.138699951171875,0.0018623941577970982,0.002128450432792306,-0.0023945067077875137
1772594799935964000,6.1589638671875,0.0025275349617004395,0.004922041669487953,0.0005321126081980765
1772594799956228000,6.17922802734375,-0.0037247883155941963,-0.0047890134155750275,-0.004256900865584612
1772594799976491000,6.199490966796875,-0.0006651407456956804,0.0031926757656037807,0.0039908443577587605
1772594799996755000,6.2197548828125,-0.003059647511690855,-0.00026605630409903824,0.00026605630409903824
1772594800017019000,6.240018798828125,0.0039908443577587605,0.0047890134155750275,0.0023945067077875137
1772594800037282000,6.260281982421875,0.003059647511690855,-0.0026605629827827215,-0.0034587320405989885
1772594800057546000,6.2805458984375,0.0038578163366764784,-0.0034587320405989885,0.0031926757656037807
1772594800077810000,6.300809814453125,0.004922041669487953,0.0019954221788793802,-0.0034587320405989885
1772594800098073000,6.321072998046875,0.0025275349617004395,-0.004123872611671686,-0.0005321126081980765
1772594800118337000,6.3413369140625,-0.0039908443577587605,-0.001064225216396153,0.0003990844707004726
1772594800138601000,6.36160107421875,-0.004522957373410463,0.0027935912366956472,0.0019954221788793802
1772594800158864000,6.38186376953125,-0.004123872611671686,-0.0011972533538937569,0.0019954221788793802
1772594800179128000,6.402128173828125,0.004655985161662102,-0.004389929119497538,0.004256900865584612
1772594800199392000,6.42239208984375,0.0039908443577587605,-0.0003990844707004726,-0.0037247883155941963
1772594800219655000,6.442655029296875,0.00013302815204951912,-0.0037247883155941963,-0.0035917600616812706
1772594800239919000,6.462919189453125,0.0027935912366956472,-0.0009311970788985491,-0.0009311970788985491
1772594800260183000,6.48318310546875,-0.004655985161662102,0.004123872611671686,-0.0003990844707004726
1772594800280446000,6.503446044921875,0.0007981689414009452,0.00013302815204951912,-0.0038578163366764784
1772594800300710000,6.5237099609375,-0.004522957373410463,0.0009311970788985491,-0.0027935912366956472
1772594800320974000,6.54397412109375,0.0007981689414009452,0.0009311970788985491,-0.0047890134155750275
1772594800341237000,6.564237060546875,0.003059647511690855,-0.0022614786867052317,0.00013302815204951912
1772594800361501000,6.5845009765625,0.00013302815204951912,-0.0007981689414009452,0.001064225216396153
1772594800381765000,6.60476513671875,-0.0022614786867052317,0.002128450432792306,0.0011972533538937569
1772594800402028000,6.625028076171875,0.0013302814913913608,-0.0037247883155941963,-0.0022614786867052317
1772594800422292000,6.6452919921875,0.004123872611671686,-0.004922041669487953,-0.0039908443577587605
1772594800442556000,6.665555908203125,0.0034587320405989885,0.00026605630409903824,-0.0047890134155750275
1772594800462819000,6.685819091796875,0.0027935912366956472,0.0037247883155941963,-0.0029266192577779293
1772594800483083000,6.7060830078125,0.004522957373410463,0.0029266192577779293,-0.0019954221788793802
1772594800503347000,6.726346923828125,-0.0018623941577970982,-0.004655985161662102,0.0007981689414009452
1772594800523610000,6.746610107421875,-0.004522957373410463,0.0009311970788985491,-0.0025275349617004395
1772594800543874000,6.7668740234375,0.0035917600616812706,0,-0.002128450432792306
1772594800564138000,6.787137939453125,0.0037247883155941963,-0.0018623941577970982,0.0003990844707004726
1772594800584402000,6.80740185546875,-0.0025275349617004395,-0.0011972533538937569,0.0006651407456956804
1772594800604665000,6.8276650390625,0.0023945067077875137,0.0031926757656037807,0.00026605630409903824
1772594800624929000,6.847928955078125,-0.003059647511690855,0.004522957373410463,0.0017293660202994943
1772594800645193000,6.86819287109375,-0.004256900865584612,-0.0037247883155941963,0.0003990844707004726
1772594800665456000,6.8884560546875,-0.0017293660202994943,0.0026605629827827215,0.0022614786867052317
1772594800685720000,6.908719970703125,-0.00026605630409903824,0.001064225216396153,-0.001064225216396153
1772594800705984000,6.92898388671875,0.004256900865584612,0.0013302814913913608,-0.003059647511690855
1772594800726247000,6.949246826171875,0.0015963378828018904,-0.0011972533538937569,-0.0023945067077875137
1772594800746511000,6.969510986328125,-0.0023945067077875137,-0.0007981689414009452,0.0027935912366956472
1772594800766775000,6.989775146484375,-0.0019954221788793802,-0.0009311970788985491,-0.0035917600616812706
1772594800787038000,7.010037841796875,0.001064225216396153,0.0019954221788793802,-0.004522957373410463
1772594800807302000,7.030302001953125,0.002128450432792306,0.004522957373410463,0.0005321126081980765
1772594800827566000,7.050566162109375,-0.004123872611671686,-0.0038578163366764784,-0.0023945067077875137
1772594800847829000,7.0708291015625,0.004922041669487953,-0.0047890134155750275,0.0018623941577970982
1772594800868093000,7.091093017578125,0.0027935912366956472,0.0022614786867052317,0.0011972533538937569
1772594800888357000,7.111357177734375,0.0011972533538937569,0.0006651407456956804,0.002128450432792306
1772594800908620000,7.1316201171875,0.0037247883155941963,0.0014633096288889647,-0.0013302814913913608
1772594800928884000,7.151884033203125,0.0022614786867052317,-0.0031926757656037807,-0.004922041669487953
1772594800949148000,7.17214794921875,0.0029266192577779293,0.0009311970788985491,-0.004389929119497538
1772594800969411000,7.1924111328125,0.0018623941577970982,-0.0019954221788793802,-0.0038578163366764784
1772594800989675000,7.212675048828125,0.00013302815204951912,0.0025275349617004395,-0.0003990844707004726
1772594801009939000,7.23293896484375,-0.0007981689414009452,0.0013302814913913608,0.0017293660202994943
1772594801030202000,7.2532021484375,0.0017293660202994943,-0.001064225216396153,-0.0027935912366956472
1772594801050466000,7.273466064453125,-0.0007981689414009452,-0.004655985161662102,0.0039908443577587605
1772594801070730000,7.29372998046875,0.00026605630409903824,0.0031926757656037807,-0.0038578163366764784
1772594801090993000,7.313992919921875,-0.0039908443577587605,-0.002128450432792306,0.004522957373410463
1772594801111257000,7.334257080078125,-0.0005321126081980765,-0.004389929119497538,0.0025275349617004395
1772594801131521000,7.35452099609375,-0.004256900865584612,0.0022614786867052317,0.0009311970788985491
1772594801151784000,7.374783935546875,-0.0025275349617004395,-0.0014633096288889647,0.0017293660202994943
1772594801172048000,7.3950478515625,0.0019954221788793802,-0.0006651407456956804,-0.0014633096288889647
1772594801192312000,7.41531201171875,-0.0018623941577970982,-0.00013302815204951912,0.0026605629827827215
1772594801212575000,7.435574951171875,0.004922041669487953,0.0037247883155941963,-0.0027935912366956472
1772594801232839000,7.4558388671875,0.004256900865584612,0.0022614786867052317,0.0035917600616812706
1772594801253103000,7.47610302734375,-0.0023945067077875137,-0.002128450432792306,-0.0035917600616812706
1772594801273344000,7.496343994140625,-0.004256900865584612,-0.004922041669487953,-0.0029266192577779293
1772594801293608000,7.51660791015625,-0.004922041669487953,0.004655985161662102,-0.003059647511690855
1772594801313871000,7.53687109375,-0.00013302815204951912,0.004389929119497538,0.004389929119497538
1772594801334135000,7.557135009765625,0.0037247883155941963,-0.0005321126081980765,-0.0023945067077875137
1772594801354399000,7.57739892578125,-0.00013302815204951912,0.003325703786686063,0.004256900865584612
1772594801374662000,7.597661865234375,0.004123872611671686,0.0015963378828018904,-0.0047890134155750275
1772594801394926000,7.617926025390625,0.0031926757656037807,-0.0035917600616812706,-0.0015963378828018904
1772594801415190000,7.63818994140625,-0.0007981689414009452,0.0039908443577587605,-0.0039908443577587605
1772594801435453000,7.658452880859375,-0.0015963378828018904,-0.0017293660202994943,0.0009311970788985491
1772594801455717000,7.678717041015625,0.0031926757656037807,0.0034587320405989885,-0.0031926757656037807
1772594801475981000,7.69898095703125,-0.0015963378828018904,-0.004922041669487953,-0.0019954221788793802
1772594801496244000,7.719243896484375,-0.0035917600616812706,-0.004655985161662102,0.00026605630409903824
1772594801516508000,7.7395078125,0.004922041669487953,-0.001064225216396153,0.001064225216396153
1772594801536772000,7.759772216796875,0.004922041669487953,0.0013302814913913608,-0.0038578163366764784
1772594801557035000,7.780034912109375,-0.004123872611671686,-0.0013302814913913608,-0.0026605629827827215
1772594801577299000,7.800298828125,-0.004123872611671686,0.0029266192577779293,0.0014633096288889647
1772594801597563000,7.82056298828125,0,0.0015963378828018904,-0.0025275349617004395
1772594801617826000,7.840825927734375,0.0038578163366764784,0.00013302815204951912,-0.0017293660202994943
1772594801638090000,7.861090087890625,-0.004389929119497538,-0.001064225216396153,0.0034587320405989885
1772594801658354000,7.88135400390625,0.002128450432792306,-0.0029266192577779293,-0.004123872611671686
1772594801678617000,7.9016171875,-0.0039908443577587605,-0.0034587320405989885,-0.0031926757656037807
1772594801698881000,7.921881103515625,-0.003059647511690855,-0.0026605629827827215,0.0029266192577779293
1772594801719145000,7.94214501953125,-0.0037247883155941963,-0.003059647511690855,-0.0037247883155941963
1772594801739408000,7.962407958984375,-0.00026605630409903824,0.0035917600616812706,0.002128450432792306
1772594801759672000,7.982672119140625,-0.0029266192577779293,0,0.004123872611671686
1772594801779936000,8.00293603515625,-0.004522957373410463,0.004922041669487953,0.0026605629827827215
1772594801800199000,8.023198974609375,0.0035917600616812706,-0.0003990844707004726,0.0015963378828018904
1772594801820463000,8.043463134765625,0.0006651407456956804,0.0005321126081980765,-0.0035917600616812706
1772594801840727000,8.06372705078125,0.0027935912366956472,-0.003059647511690855,-0.0019954221788793802
1772594801860990000,8.083989990234375,0.005055069923400879,-0.0035917600616812706,-0.0018623941577970982
1772594801881254000,8.10425390625,0.0034587320405989885,0.0025275349617004395,0.004655985161662102
1772594801901518000,8.12451806640625,-0.0018623941577970982,0.004655985161662102,0.0009311970788985491
1772594801921781000,8.144781005859375,0.003059647511690855,0.0031926757656037807,0.004389929119497538
1772594801942045000,8.165044921875,0.0014633096288889647,0.0017293660202994943,0.0014633096288889647
1772594801962309000,8.18530908203125,-0.0038578163366764784,-0.0037247883155941963,-0.0047890134155750275
1772594801982572000,8.205572021484375,-0.004655985161662102,0.0047890134155750275,-0.0029266192577779293
1772594802002836000,8.2258359375,0.001064225216396153,-0.0017293660202994943,0.002128450432792306
1772594802023100000,8.246099853515625,0.0022614786867052317,0.004655985161662102,0.0035917600616812706
1772594802043363000,8.266363037109375,-0.0003990844707004726,-0.0005321126081980765,0.003325703786686063
1772594802063627000,8.286626953125,0.0031926757656037807,0.0014633096288889647,-0.004655985161662102
1772594802083891000,8.306890869140625,0.001064225216396153,0.0006651407456956804,0.001064225216396153
1772594802104154000,8.327154052734375,-0.0034587320405989885,-0.0047890134155750275,0.004123872611671686
1772594802124418000,8.34741796875,-0.004522957373410463,0.003325703786686063,-0.0034587320405989885
1772594802144682000,8.367681884765625,-0.0034587320405989885,0.0031926757656037807,-0.0034587320405989885
1772594802164946000,8.38794580078125,0.004123872611671686,0.0027935912366956472,-0.0013302814913913608
1772594802185209000,8.408208984375,-0.0011972533538937569,0.0006651407456956804,0.0015963378828018904
1772594802205473000,8.42847314453125,-0.002128450432792306,-0.0011972533538937569,-0.004123872611671686
1772594802225737000,8.448737060546875,-0.0013302814913913608,-0.0007981689414009452,0.0014633096288889647
1772594802246000000,8.469000244140625,0,-0.0014633096288889647,-0.0014633096288889647
1772594802266264000,8.48926416015625,0.0019954221788793802,-0.0013302814913913608,0.0037247883155941963
1772594802286528000,8.509528076171875,0.004123872611671686,-0.0047890134155750275,0.0009311970788985491
1772594802306791000,8.529791015625,-0.0019954221788793802,0.0009311970788985491,0.003325703786686063
1772594802327055000,8.55005517578125,-0.004123872611671686,0.004123872611671686,-0.00026605630409903824
1772594802347319000,8.570319091796875,-0.0013302814913913608,-0.0017293660202994943,-0.0023945067077875137
1772594802367582000,8.59058203125,-0.004123872611671686,-0.0006651407456956804,-0.0039908443577587605
1772594802387846000,8.610845947265625,0.004655985161662102,-0.004922041669487953,0.0034587320405989885
1772594802408110000,8.631110107421875,-0.0035917600616812706,-0.002128450432792306,-0.0017293660202994943
1772594802428373000,8.651373046875,-0.0017293660202994943,0.0026605629827827215,0.0015963378828018904
1772594802448637000,8.671636962890625,-0.0007981689414009452,-0.003325703786686063,-0.0009311970788985491
1772594802468901000,8.691901123046875,-0.004522957373410463,-0.0005321126081980765,0.0017293660202994943
1772594802489164000,8.7121640625,0.003325703786686063,0.0003990844707004726,0.0011972533538937569
1772594802509428000,8.732427978515625,0.0009311970788985491,0.0023945067077875137,0.0006651407456956804
1772594802529692000,8.75269189453125,0.004123872611671686,-0.004256900865584612,-0.0039908443577587605
1772594802549955000,8.772955078125,0.0038578163366764784,0.0031926757656037807,-0.004655985161662102
1772594802570219000,8.793218994140625,0.0013302814913913608,0.0037247883155941963,0.0037247883155941963
1772594802590483000,8.81348291015625,0.0007981689414009452,0.0019954221788793802,0.003325703786686063
1772594802610746000,8.83374609375,0.0015963378828018904,0.0018623941577970982,-0.0019954221788793802
1772594802631010000,8.854010009765625,-0.0019954221788793802,-0.004655985161662102,0.0019954221788793802
1772594802651274000,8.87427392578125,0.004655985161662102,0.0013302814913913608,-0.004522957373410463
1772594802671537000,8.894536865234375,0.0039908443577587605,0.004522957373410463,-0.0034587320405989885
1772594802691801000,8.914801025390625,0.0029266192577779293,-0.003059647511690855,-0.0037247883155941963
1772594802712065000,8.93506494140625,-0.0037247883155941963,-0.004922041669487953,-0.001064225216396153
