time,seconds_elapsed,z,y,x
1772384383294566100,0.042566162109375,0.020353000611066818,-0.10686799883842468,0.007710000034421682
1772384383314623500,0.06262353515625,-0.02531599998474121,-0.06629399955272675,0.010168000124394894
1772384383334680800,0.082680908203125,0.021345999091863632,-0.05863500013947487,0.017734000459313393
1772384383354738200,0.10273828125,-0.0037219999358057976,-0.06610800325870514,0.021386999636888504
1772384383374795500,0.12279541015625,-0.01257800031453371,-0.0512860007584095,0.011509999632835388
1772384383394852600,0.1428525390625,0.003536999924108386,-0.04102899879217148,0.00520800007507205
1772384383414910200,0.16291015625,0.002828999888151884,-0.04002299904823303,0.010565999895334244
1772384383434967300,0.18296728515625,0.01906299963593483,-0.023218000307679176,0.011652999557554722
1772384383455024600,0.203024658203125,0.027250999584794044,-0.010575000196695328,0.007722000125795603
1772384383475082000,0.22308203125,0.009800000116229057,-0.019659999758005142,0.017378000542521477
1772384383495139000,0.24313916015625,-0.008957999758422375,-0.02932799980044365,-0.010897000320255756
1772384383515196700,0.26319677734375,-0.02076599933207035,-0.023461999371647835,-0.010317999869585037
1772384383535254000,0.28325390625,-0.020611999556422234,-0.01076900027692318,-0.001053999993018806
1772384383555311000,0.30331103515625,-0.014089999720454216,-0.01501499954611063,-0.013643000274896622
1772384383575368400,0.323368408203125,0.003926999866962433,-0.009611999616026878,-0.016513999551534653
1772384383595425800,0.34342578125,0.010342000052332878,0.0035089999437332153,0.011587999761104584
1772384383615483100,0.363483154296875,0.016272999346256256,0.006806999910622835,0.005270000081509352
1772384383635540200,0.383540283203125,0.0034179999493062496,0.00304599991068244,0.005816000048071146
1772384383655597600,0.40359765625,0.002735000103712082,-0.010362000204622746,-0.0009459999855607748
1772384383675655000,0.423655029296875,-0.013011000119149685,0.0029090000316500664,-0.00795700028538704
1772384383695712300,0.443712158203125,-0.01040900032967329,0.006326999980956316,-0.00876499991863966
1772384383715769600,0.46376953125,-0.00672700023278594,0.00906199961900711,0.0025869999080896378
1772384383735826700,0.48382666015625,0.005818000063300133,-0.00795000046491623,0.002068999921903014
1772384383755884000,0.503884033203125,0.0014540000120177865,-0.003160000080242753,0.00005500000042957254
1772384383775941400,0.52394140625,0.010762999765574932,0.003071000101044774,-0.003955000080168247
1772384383795998500,0.54399853515625,0.010209999978542328,0.002457000082358718,-0.0015640000347048044
1772384383816055800,0.564055908203125,-0.0014309999532997608,-0.0012339999666437507,-0.00445100013166666
1772384383836113200,0.584113037109375,-0.010745000094175339,-0.0009869999485090375,0.005237999837845564
1772384383856170200,0.604170166015625,-0.008596000261604786,0.0008099999977275729,0.0065910001285374165
1772384383876227800,0.624227783203125,-0.008477999828755856,0.0006479999865405262,-0.008326999843120575
1772384383896285000,0.644284912109375,0.012416999787092209,0.006118000019341707,0.0013379999436438084
1772384383916342300,0.66434228515625,-0.005266000051051378,-0.0007050000131130219,0.004269999917596579
1772384383936399600,0.684399658203125,0.0029869999270886183,-0.006163999903947115,-0.0021830000914633274
1772384383956457000,0.70445703125,0.023189999163150787,-0.0009309999877586961,0.015853000804781914
1772384383976514300,0.724514404296875,0.0017509999452158809,-0.004745000042021275,-0.0009169999975711107
1772384383996571400,0.7445712890625,-0.0009970000246539712,0.005803000181913376,-0.0007329999934881926
1772384384016628700,0.764628662109375,0.0032019999343901873,0.00624299980700016,0.0034119999036192894
1772384384036686000,0.78468603515625,-0.004637999925762415,0.007393999956548214,0.00033000000985339284
1772384384056743200,0.8047431640625,-0.007710000034421682,-0.0004839999892283231,-0.01253500021994114
1772384384076800800,0.82480078125,-0.004567999858409166,-0.007586999796330929,-0.00042799999937415123
1772384384096857900,0.84485791015625,-0.005253999959677458,-0.002068999921903014,0.005257000215351582
1772384384116915200,0.864915283203125,-0.00020399999630171806,-0.0072559998370707035,0.005805000197142363
1772384384136972500,0.88497265625,-0.002561999950557947,-0.005803999956697226,-0.0025549998972564936
1772384384157029600,0.905029541015625,-0.005249999929219484,0.0009560000034980476,0.0035550000611692667
1772384384177087200,0.925087158203125,0.004598999861627817,0.0007639999967068434,-0.0011549999471753836
1772384384197144300,0.945144287109375,0.0076790000312030315,0.000610999995842576,-0.004923999775201082
1772384384217201700,0.96520166015625,-0.003456000005826354,-0.0035099999513477087,-0.001538999960757792
1772384384237259000,0.985259033203125,0.00523399980738759,0.006790999788790941,-0.0012309999438002706
1772384384257316000,1.005316162109375,0.00418699998408556,-0.00016599999798927456,-0.0009850000496953726
1772384384277373400,1.02537353515625,-0.004648999776691198,-0.009732999838888645,-0.004788000136613846
1772384384297430800,1.0454306640625,0.0002800000074785203,-0.0005859999801032245,0.00016900000628083944
1772384384317488000,1.065488037109375,-0.006976000033318996,-0.0036689999978989363,0.007335000205785036
1772384384337545500,1.08554541015625,0.0032190000638365746,-0.006934999953955412,0.00826799962669611
1772384384357602600,1.1056025390625,-0.000623999978415668,-0.0015480000292882323,-0.006984999869018793
1772384384377660000,1.125659912109375,0.0010999999940395355,0.009960999712347984,0.0016110000433400273
1772384384397717000,1.145717041015625,-0.0031190000008791685,0.005568999797105789,-0.0003100000030826777
1772384384417774600,1.165774658203125,-0.00009600000339560211,-0.006744000129401684,-0.0018479999853298068
1772384384437831700,1.185831787109375,0.00152299995534122,0.005803999956697226,-0.003877999959513545
1772384384457889000,1.205888916015625,0.0012179999612271786,0.0030429998878389597,0.002495999913662672
1772384384477946400,1.2259462890625,0.004974000155925751,0.013633999973535538,0.0019970000721514225
1772384384498003700,1.246003662109375,0.007978999987244606,-0.005892000161111355,-0.004000999964773655
1772384384518061000,1.26606103515625,0.003984000068157911,-0.006312999874353409,0.0047980002127587795
1772384384538118100,1.2861181640625,0.007185999769717455,0.002148000057786703,0.003837999887764454
1772384384558175500,1.306175537109375,0.001749000046402216,-0.00788000039756298,-0.0009280000231228769
1772384384578232800,1.32623291015625,-0.00979899987578392,-0.0023040000814944506,-0.0023429999127984047
1772384384598290000,1.3462900390625,-0.007840000092983246,0.0021559998858720064,0.0013249999610707164
1772384384618347500,1.366347412109375,0.0009270000155083835,0.004925000015646219,-0.0005389999714680016
1772384384638404600,1.386404541015625,-0.008058000355958939,-0.011258999817073345,0.003567999927327037
1772384384658462000,1.4064619140625,-0.006446000188589096,-0.002607000060379505,0.00045399999362416565
1772384384678519300,1.426519287109375,0.0004419999895617366,0.005113000050187111,-0.008435999974608421
1772384384698576400,1.446576416015625,-0.0036440000403672457,0.00009000000136438757,-0.010749000124633312
1772384384718633700,1.4666337890625,-0.01091499999165535,0.002471999963745475,0.0026000000070780516
1772384384738691000,1.486691162109375,0.0008670000243000686,0.0035780000034719706,0.0060800001956522465
1772384384758748400,1.50674853515625,-0.0009050000226125121,0.0012619999470189214,0.004863999783992767
1772384384778805800,1.5268056640625,0.012873999774456024,0.004209999926388264,0.007891000248491764
1772384384798863000,1.546863037109375,0.0270990002900362,0.012968000024557114,0.0023129999171942472
1772384384818920200,1.566920166015625,0.0024800000246614218,0.007174000144004822,0.0018500000005587935
1772384384838977500,1.5869775390625,0.0019839999731630087,-0.011859999969601631,-0.004118999931961298
1772384384859035000,1.607034912109375,-0.004011999815702438,-0.016688000410795212,-0.00889500044286251
1772384384879092200,1.62709228515625,-0.014410000294446945,-0.01334999967366457,-0.0015160000184550881
1772384384899149300,1.6471494140625,-0.019526999443769455,-0.009080000221729279,0.0019859999883919954
1772384384919206700,1.66720654296875,-0.0020210000220686197,0.0023350000847131014,-0.004009999800473452
1772384384939264000,1.687263916015625,0.0023819999769330025,-0.006130999885499477,0.002391000045463443
1772384384959321000,1.707321044921875,0.011505999602377415,-0.008104999549686909,0.0003129999968223274
1772384384979378400,1.72737841796875,-0.021994000300765038,0.011915000155568123,-0.018949000164866447
1772384384999435500,1.747435546875,0.019204000011086464,-0.007267000153660774,-0.007158999796956778
1772384385019493000,1.7674931640625,0.01296399999409914,-0.00021300000662449747,0.024671999737620354
1772384385039550500,1.787550537109375,-0.004827999975532293,0.03422800078988075,0.006136999931186438
1772384385059607600,1.807607666015625,-0.0014619999565184116,0.0065830000676214695,-0.00788899976760149
1772384385079665000,1.827664794921875,0.02522899955511093,0.005266000051051378,0.02568800002336502
1772384385099722000,1.847721923828125,0.037783000618219376,0.029013000428676605,0.005350000225007534
1772384385119779300,1.867779296875,-0.016171999275684357,0.024809999391436577,0.023479999974370003
1772384385139836700,1.887836669921875,-0.028138000518083572,-0.021750999614596367,0.005183999892324209
1772384385159894000,1.90789404296875,-0.014511000365018845,-0.01740100048482418,-0.03185199946165085
1772384385179951000,1.927951171875,-0.029208000749349594,0.026079000905156136,0.004918000195175409
1772384385200008400,1.948008544921875,-0.019365999847650528,0.019262999296188354,-0.053665000945329666
1772384385220065800,1.968065673828125,-0.03309300169348717,-0.003788999980315566,-0.019732000306248665
1772384385240123000,1.988122802734375,-0.04727400094270706,-0.016630999743938446,-0.007784999907016754
1772384385260180200,2.00818017578125,-0.024219000712037086,-0.02130500040948391,-0.003028000006452203
1772384385280237300,2.0282373046875,0.05902300029993057,0.004554999992251396,0.04557599872350693
1772384385300294700,2.048294677734375,0.09921900182962418,-0.0003549999964889139,0.038860999047756195
1772384385320351700,2.068351806640625,0.061774998903274536,-0.0002840000088326633,0.005489000119268894
1772384385340409300,2.088409423828125,0.02861900068819523,-0.011427000164985657,0.02039100043475628
1772384385360466400,2.108466552734375,0.00929499976336956,-0.030741000548005104,0.006713000126183033
1772384385380523800,2.128523681640625,-0.03256399929523468,-0.04139300063252449,-0.004228999838232994
1772384385400581000,2.1485810546875,-0.0572500005364418,-0.008314000442624092,-0.032182998955249786
1772384385420638200,2.16863818359375,-0.02979999966919422,0.015747999772429466,-0.012145999819040298
1772384385440695600,2.188695556640625,-0.007040000054985285,0.030198000371456146,-0.002517000073567033
1772384385460753000,2.2087529296875,-0.005632000043988228,0.016157999634742737,-0.0036140000447630882
1772384385480810000,2.22881005859375,-0.008504999801516533,0.012927000410854816,-0.0012910000514239073
1772384385500867300,2.248867431640625,0.006794999819248915,0.026341000571846962,0.0005670000100508332
1772384385520924700,2.268924560546875,-0.0017640000442042947,-0.007726000156253576,0.0004529999860096723
1772384385540982000,2.28898193359375,-0.013410000130534172,-0.018180999904870987,-0.014836999587714672
1772384385561039000,2.3090390625,0.0012710000155493617,-0.008144999854266644,-0.007868999615311623
1772384385581096400,2.329096435546875,0.012215999886393547,0.00228299992159009,0.007304000202566385
1772384385601153500,2.349153564453125,0.00977300014346838,-0.006972000002861023,0.015443000011146069
1772384385621211000,2.3692109375,0.015018999576568604,-0.015177999623119831,0.016354000195860863
1772384385641268200,2.389268310546875,0.012014999985694885,-0.0009420000133104622,0.010683000087738037
1772384385661325600,2.40932568359375,0.004011999815702438,0.006444999948143959,0.008546999655663967
1772384385681382700,2.429382568359375,-0.0007900000200606883,0.01475599966943264,0.006837000139057636
1772384385701440000,2.44943994140625,-0.025431999936699867,0.01420500036329031,-0.00812899973243475
1772384385721497000,2.4694970703125,-0.02594500035047531,0.008964000269770622,-0.0025029999669641256
1772384385741554400,2.489554443359375,-0.015155999921262264,-0.009627999737858772,-0.002002999885007739
1772384385761611800,2.50961181640625,-0.00572500005364418,-0.007701999973505735,-0.011202000081539154
1772384385781669000,2.529669189453125,0.005018999800086021,-0.0005619999719783664,0.004637999925762415
1772384385801726200,2.549726318359375,0.011215999722480774,0.0035500000230968,0.003710000077262521
1772384385821783600,2.569783447265625,0.016971999779343605,-0.005158999934792519,0.004567999858409166
1772384385841841000,2.5898408203125,-0.000019999999494757503,-0.00012700000661425292,0.0020540000405162573
1772384385861898000,2.60989794921875,-0.00001700000029813964,-0.009701999835669994,0.000043000000005122274
1772384385881955300,2.629955322265625,0.0015849999617785215,-0.0021609999239444733,0.0032339999452233315
1772384385902012700,2.6500126953125,0.0012679999927058816,0.01027000043541193,-0.0006120000034570694
1772384385922069800,2.67006982421875,0.0010140000376850367,0.00021600000036414713,0.005109999794512987
1772384385942127000,2.690127197265625,-0.015987999737262726,0.00017299999308306724,0.005688000004738569
1772384385962184200,2.71018408203125,0.0024079999420791864,-0.00546099990606308,-0.006649000104516745
1772384385982241500,2.730241455078125,0.0003260000084992498,0.001230000052601099,-0.009318999946117401
1772384386002298600,2.750298583984375,-0.0021379999816417694,0.0009840000420808792,-0.007455000188201666
1772384386022356200,2.770356201171875,-0.0033110000658780336,0.011986999772489071,-0.001964000053703785
1772384386042413300,2.790413330078125,0.00855099968612194,0.00798999983817339,0.002428000094369054
1772384386062470400,2.810470458984375,-0.0003589999978430569,0.0007919999770820141,-0.0004569999873638153
1772384386082527500,2.830527587890625,-0.006686999928206205,-0.004966000095009804,0.003633999964222312
1772384386102584800,2.850584716796875,-0.002950000111013651,-0.006372999865561724,-0.0026920000091195107
1772384386122642200,2.87064208984375,0.008840000256896019,-0.008298000320792198,-0.0005540000274777412
1772384386142699500,2.890699462890625,0.0014720000326633453,-0.010638000443577766,-0.00044299999717622995
1772384386162756600,2.910756591796875,0.010777000337839127,-0.004509999882429838,-0.007553999777883291
1772384386182814000,2.93081396484375,0.0030219999607652426,0.0051910001784563065,-0.008442999795079231
1772384386202871000,2.95087109375,-0.0015810000477358699,-0.007046999875456095,-0.0067540002055466175
1772384386222928400,2.970928466796875,-0.0012639999622479081,-0.0032369999680668116,0.01219599973410368
1772384386242985700,2.99098583984375,-0.002612000098451972,0.0030090000946074724,0.013756000436842442
1772384386263042800,3.011042724609375,0.0011109999613836408,0.00800700020045042,0.004604999907314777
1772384386283100200,3.03110009765625,0.00648800004273653,0.0024059999268501997,0.00608400022611022
1772384386303157200,3.0511572265625,0.0035910001024603844,0.00032500000088475645,0.002466999925673008
1772384386323214600,3.071214599609375,-0.0011269999668002129,0.00026000000070780516,0.00037399999564513564
1772384386343272000,3.09127197265625,-0.004102000035345554,-0.00939099956303835,-0.02290000021457672
1772384386363329000,3.1113291015625,-0.011281000450253487,0.0076859998516738415,-0.0007200000109151006
1772384386383386400,3.131386474609375,0.0005740000051446259,0.003748999908566475,0.0010229999898001552
1772384386403443500,3.151443359375,0.0020580000709742308,0.0029990000184625387,0.000818000000435859
1772384386423500800,3.171500732421875,0.005646999925374985,0.004798999987542629,0.00305499997921288
1772384386443558000,3.191557861328125,0.00611699977889657,-0.0041600000113248825,0.002443999983370304
1772384386463615200,3.211615234375,-0.0007050000131130219,0.0046709999442100525,-0.0020439999643713236
1772384386483672600,3.231672607421875,-0.0021639999467879534,-0.007462000008672476,-0.0040350002236664295
1772384386503729700,3.251729736328125,0.0022670000325888395,-0.0027699999045580626,0.0031709999311715364
1772384386523787000,3.271787109375,0.0034149999264627695,0.0057830000296235085,0.004137000069022179
1772384386543844000,3.291843994140625,-0.012467999942600727,0.0046270000748336315,-0.0006900000153109431
1772384386563901400,3.3119013671875,-0.00037399999564513564,0.0013010000111535192,-0.0005520000122487545
1772384386583958500,3.33195849609375,0.0012989999959245324,-0.0005579999997280538,0.005158000160008669
1772384386604015900,3.352015869140625,0.0010389999952167273,-0.0020459999796003103,0.004126000218093395
1772384386624073200,3.3720732421875,0.000830999983008951,-0.011237000115215778,0.0073009999468922615
1772384386644130300,3.39213037109375,0.006264999974519014,-0.004989999812096357,0.0002410000015515834
1772384386664187600,3.412187744140625,0.0018110000528395176,0.0016070000128820539,-0.003806999884545803
1772384386684244700,3.43224462890625,-0.013749999925494194,0.004486000165343285,-0.000645000021904707
1772384386704302000,3.452302001953125,-0.0013989999424666166,-0.005210000090301037,-0.00291600008495152
1772384386724359200,3.472359130859375,0.0004799999878741801,0.0014309999532997608,-0.011932999826967716
1772384386744416500,3.49241650390625,0.00038400001358240843,0.00434499979019165,-0.003945999778807163
1772384386764473600,3.5124736328125,-0.00369199994020164,-0.003722999943420291,-0.004757000133395195
1772384386784531000,3.532531005859375,-0.0029539999086409807,-0.004579000174999237,-0.00380500010214746
1772384386804588000,3.552588134765625,0.00003600000127335079,-0.0020630001090466976,0.0009549999958835542
1772384386824645400,3.572645263671875,0.005628000013530254,-0.0016499999910593033,0.0007639999967068434
1772384386844702500,3.592702392578125,0.00610300013795495,-0.0013200000394135714,-0.001787999994121492
1772384386864759800,3.612759765625,0.0032820000778883696,0.0005430000019259751,0.00496899988502264
1772384386884817000,3.63281689453125,0.0026259999722242355,0.01003399956971407,0.0015750000020489097
1772384386904874000,3.6528740234375,0.003702000016346574,0.0008270000107586384,0.009259999729692936
1772384386924931300,3.672931396484375,-0.0026370000559836626,-0.0017369999550282955,-0.0005910000181756914
1772384386944988400,3.692988525390625,0.0018889999482780695,0.004209000151604414,0.007526000030338764
1772384386965045800,3.713045654296875,-0.0024880000855773687,-0.007832000032067299,0.003621000098064542
1772384386985102800,3.733102783203125,0.00520800007507205,-0.0006649999995715916,-0.0043020001612603664
1772384387005160200,3.75316015625,-0.004631999880075455,0.005067000165581703,-0.003441999899223447
1772384387025217500,3.773217529296875,-0.002104999963194132,0.006453000009059906,-0.0011530000483617187
1772384387045274600,3.793274658203125,-0.0016840000171214342,-0.0004360000020824373,-0.00092299998505041
1772384387065332000,3.81333203125,0.004251999780535698,-0.0003490000090096146,-0.0007379999733529985
1772384387085389000,3.83338916015625,0.003401000052690506,0.0013200000394135714,-0.0045900000259280205
1772384387105446400,3.8534462890625,0.001120000029914081,0.002655999967828393,0.005927000194787979
1772384387125503700,3.873503662109375,-0.0015020000282675028,-0.003473999910056591,0.003140999935567379
1772384387145560800,3.893560791015625,0.0027979998849332333,0.0012199999764561653,0.004112999886274338
1772384387165618000,3.913617919921875,-0.003360999980941415,-0.004623000044375658,-0.0039090001955628395
1772384387185675300,3.93367529296875,-0.0010890000266954303,0.0003000000142492354,-0.0031270000617951155
1772384387205732400,3.953732421875,0.004728000145405531,-0.0021589999087154865,0.0014979999978095293
1772384387225789700,3.973789794921875,-0.001816999982111156,0.006271999794989824,-0.006800999864935875
1772384387245846800,3.9938466796875,0.0009449999779462814,-0.0029810001142323017,-0.003840999910607934
1772384387265904000,4.013904052734375,0.0023560000117868185,0.000014000000192027073,0.004927000030875206
1772384387285961200,4.033961181640625,0.0018850000342354178,0.005611000116914511,0.002340999897569418
1772384387306018300,4.054018310546875,-0.005692000035196543,-0.005109999794512987,0.0034729999024420977
1772384387326075600,4.07407568359375,0.0010460000485181808,0.0015109999803826213,-0.0012209999840706587
1772384387346132700,4.0941328125,0.0024369999300688505,0.0028089999686926603,-0.0009769999887794256
1772384387366190000,4.114190185546875,0.0003490000090096146,0.006246999837458134,0.00481799989938736
1772384387386247200,4.1342470703125,0.0018789999885484576,-0.007801999803632498,-0.005745000205934048
1772384387406304500,4.154304443359375,-0.002495999913662672,-0.0006409999914467335,0.0034030000679194927
1772384387426361600,4.174361572265625,-0.001996000064536929,-0.0005130000063218176,0.002722000004723668
1772384387446419000,4.1944189453125,0.006401999853551388,-0.004410000052303076,0.003777999896556139
1772384387466476000,4.21447607421875,0.0011220000451430678,-0.005127999931573868,0.0014220000011846423
1772384387486533400,4.234533447265625,0.0024969999212771654,-0.004102000035345554,-0.00686099985614419
1772384387506590700,4.2545908203125,-0.0012019999558106065,-0.00008199999865610152,-0.0014890000456944108
1772384387526647800,4.274647705078125,-0.004960999824106693,0.007934000343084335,0.0012080000014975667
1772384387546705200,4.294705078125,0.000029999999242136255,0.007946999743580818,0.0025659999810159206
1772384387566762000,4.314761962890625,-0.003973999992012978,0.002357000019401312,0.002053000032901764
1772384387586819300,4.3348193359375,0.0008190000080503523,-0.003713000100106001,0.0016420000465586782
1772384387606876400,4.35487646484375,0.0022559999488294125,-0.0005699999746866524,0.0013139999937266111
1772384387626933800,4.374933837890625,0.0018050000071525574,-0.0004560000088531524,-0.008547999896109104
1772384387646991000,4.3949912109375,0.003043999895453453,-0.0027650000993162394,-0.0012379999971017241
1772384387667048200,4.415048095703125,-0.004763999953866005,-0.005412000231444836,-0.000990999978967011
1772384387687105500,4.43510546875,-0.0038109999150037766,0.0028699999675154686,0.003206999972462654
1772384387707162600,4.45516259765625,0.0025500000920146704,-0.0017030000453814864,0.0025649999734014273
1772384387727220000,4.475219970703125,-0.001959000015631318,0.0026360000483691692,-0.0019470000406727195
1772384387747277000,4.495277099609375,0.0024309998843818903,-0.0018899999558925629,0.0008420000085607171
1772384387767334400,4.51533447265625,0.0059449998661875725,-0.003111999947577715,-0.0033259999472647905
1772384387787391500,4.5353916015625,0.004755000118166208,-0.00808900035917759,-0.0010610000463202596
1772384387807448600,4.555448486328125,-0.007393999956548214,0.008728000335395336,0.0015510000521317124
1772384387827506000,4.575505859375,-0.0027149999514222145,0.010982000268995762,-0.002759000053629279
1772384387847563000,4.59556298828125,0.00582600012421608,0.0023849999997764826,-0.004606999922543764
1772384387867620400,4.615620361328125,-0.0033370000310242176,0.000307999987853691,0.002713999943807721
1772384387887677400,4.635677490234375,-0.0026700000744313,-0.0053530000150203705,0.002171000000089407
1772384387907734800,4.65573486328125,-0.0021359999664127827,0.0013170000165700912,-0.0006619999767281115
1772384387927791900,4.6757919921875,0.006289999932050705,0.001053999993018806,-0.0005300000193528831
1772384387947849200,4.69584912109375,0.002633000025525689,-0.0007559999939985573,0.00917499978095293
1772384387967906300,4.71590625,0.000506000011228025,0.0025939999613910913,-0.0022589999716728926
1772384387987963400,4.73596337890625,-0.003594999900087714,-0.009123999625444412,-0.0018070000223815441
1772384388008020500,4.7560205078125,0.0027230000123381615,-0.007298999931663275,0.0009529999806545675
1772384388028077800,4.776077880859375,-0.0034199999645352364,0.00535999983549118,0.002363000065088272
1772384388048135000,4.796135009765625,-0.008337000384926796,0.010688000358641148,-0.0021089999936521053
1772384388068192300,4.816192138671875,0.0013289999915286899,-0.0034489999525249004,0.0007120000082068145
1772384388088249300,4.836249267578125,0.004263000097125769,-0.00595899997279048,-0.005830000154674053
1772384388108306700,4.856306640625,-0.0021879998967051506,0.004031999967992306,-0.0006639999919570982
1772384388128363800,4.87636376953125,-0.004951000213623047,0.00002499999936844688,0.0034680000972002745
1772384388148420900,4.8964208984375,-0.002360000042244792,0.0016199999954551458,0.0011749999830499291
1772384388168478000,4.91647802734375,0.002111000008881092,0.0012959999730810523,0.0025400000158697367
1772384388188535300,4.936535400390625,-0.0023089998867362738,-0.010161999613046646,-0.005967999808490276
1772384388208592400,4.95659228515625,-0.0002469999890308827,0.0014690000098198652,0.0032250001095235348
1772384388228649700,4.976649658203125,0.0022009999956935644,-0.0012240000069141388,0.0009800000116229057
1772384388248706800,4.996706787109375,0.004960999824106693,0.0014199999859556556,0.002383999992161989
1772384388268764200,5.01676416015625,-0.0016299999551847577,0.004335999954491854,-0.00369199994020164
1772384388288821200,5.0368212890625,-0.006903999950736761,0.0002690000110305846,-0.0053530000150203705
1772384388308878600,5.056878662109375,-0.0031240000389516354,0.00021499999274965376,-0.004282999783754349
1772384388328935700,5.076935791015625,-0.002498999936506152,0.003372000064700842,-0.0010260000126436353
1772384388348992800,5.09699267578125,0.006800000090152025,0.0010969999711960554,-0.0008210000232793391
1772384388369050000,5.117050048828125,-0.00015900000289548188,-0.0007210000185295939,0.0009430000209249556
1772384388389107200,5.137107177734375,-0.005727000068873167,-0.008577000349760056,0.008754000067710876
1772384388409164500,5.15716455078125,-0.002182000083848834,-0.0084610003978014,0.003003000048920512
1772384388429221600,5.1772216796875,-0.004145000129938126,0.0028299998957663774,-0.007197000086307526
1772384388449279000,5.197279052734375,-0.0033160001039505005,0.0038640000857412815,-0.00015700000221841037
1772384388469336000,5.217336181640625,-0.0002530000056140125,0.0014909999445080757,0.0022730000782757998
1772384388489393200,5.23739306640625,-0.0026020000223070383,0.00279300007969141,-0.004579999949783087
1772384388509450500,5.257450439453125,0.0035180000122636557,0.002234000014141202,0.004335000179708004
1772384388529507600,5.277507568359375,0.006814000196754932,0.007387000136077404,-0.0005310000269673765
1772384388549565000,5.29756494140625,0.009449999779462814,0.005909999832510948,0.001973999897018075
1772384388569622000,5.3176220703125,-0.00043799998820759356,-0.006471000146120787,0.012779000215232372
1772384388589679000,5.33767919921875,-0.0019509999547153711,-0.005177000071853399,0.0006230000290088356
1772384388609736200,5.357736083984375,0.002437999937683344,-0.005741999950259924,-0.001101000001654029
1772384388629793500,5.37779345703125,0.0019509999547153711,0.006606000009924173,-0.003280000062659383
1772384388649850600,5.3978505859375,0.0031610000878572464,-0.00031400000443682075,0.0029750000685453415
1772384388669907700,5.41790771484375,0.0009280000231228769,0.002948000095784664,-0.0032190000638365746
1772384388689965000,5.437965087890625,-0.0016560000367462635,0.0007580000092275441,-0.002575000049546361
1772384388710022100,5.458022216796875,-0.004526000004261732,-0.003392999991774559,0.005938999820500612
1772384388730079200,5.478079345703125,0.0019779999274760485,0.001285000005736947,-0.0072479997761547565
1772384388750136600,5.498136474609375,0.004782999865710735,0.001028000027872622,0.0038010000716894865
1772384388770193700,5.518193603515625,0.0006259999936446548,-0.00877700001001358,-0.00015900000289548188
1772384388790251000,5.5382509765625,-0.0018970000091940165,-0.007021000143140554,-0.00012700000661425292
1772384388810308000,5.55830810546875,-0.012718000449240208,-0.0016169999726116657,0.0014979999978095293
1772384388830365400,5.578365478515625,0.00342399999499321,0.009906000457704067,-0.004401000216603279
1772384388850422300,5.59842236328125,0.012338999658823013,-0.0016749999485909939,0.0020779999904334545
1772384388870479600,5.618479736328125,-0.00532800005748868,0.002658999990671873,-0.006335999816656113
1772384388890537000,5.638536865234375,0.006936999969184399,0.0037269999738782644,-0.006668999791145325
1772384388910594000,5.658593994140625,-0.004048999864608049,0.001382000045850873,0.009863999672234058
1772384388930651100,5.678651123046875,0.0063599999994039536,0.0027050001081079245,0.0022909999825060368
1772384388950708500,5.69870849609375,-0.0005119999987073243,-0.0010349999647587538,0.001832999987527728
1772384388970765600,5.718765625,0.00279000005684793,-0.004827999975532293,-0.002532999962568283
1772384388990822700,5.73882275390625,-0.003367000026628375,0.00013699999544769526,0.00037299998803064227
1772384389010880000,5.7588798828125,0.005305000115185976,0.003309000050649047,-0.007701000198721886
1772384389030937000,5.77893701171875,0.00024500000290572643,-0.0061519998125731945,-0.0021609999239444733
1772384389050994200,5.798994140625,0.000195999993593432,-0.008921000175178051,-0.00012799999967683107
1772384389071051500,5.819051513671875,-0.0038429999258369207,0.002461999887600541,-0.00010299999848939478
1772384389091108600,5.839108642578125,-0.0030739998910576105,0.001970000099390745,0.0023169999476522207
1772384389111165700,5.859165771484375,-0.00005999999848427251,0.0031759999692440033,0.005053000058978796
1772384389131223000,5.87922314453125,-0.0024470000062137842,0.0009399999980814755,0.0024429999757558107
1772384389151280000,5.899280029296875,0.00044100001105107367,-0.0016469999682158232,-0.002044999971985817
1772384389171337500,5.91933740234375,0.007553999777883291,0.006682000122964382,-0.005636000074446201
1772384389191394600,5.93939453125,0.0060430001467466354,-0.00025400001322850585,-0.0061090001836419106
1772384389211452000,5.959451904296875,-0.0007639999967068434,-0.005803000181913376,0.003111999947577715
1772384389231508700,5.9795087890625,-0.0006120000034570694,0.0025569999124854803,-0.0015089999651536345
1772384389251566000,5.999566162109375,-0.002090000081807375,-0.005154000129550695,-0.0012069999938830733
1772384389271623200,6.019623046875,0.003926999866962433,0.001475999946705997,0.0006329999887384474
1772384389291680500,6.039680419921875,0.0007409999961964786,-0.004418000113219023,0.0029060000088065863
1772384389311737600,6.059737548828125,0.002991999965161085,0.005264999810606241,-0.00407399982213974
1772384389331794700,6.079794677734375,-0.0016049999976530671,0.002612000098451972,0.004739999771118164
1772384389351852000,6.09985205078125,0.004315999802201986,0.0004889999981969595,0.005392000079154968
1772384389371909000,6.1199091796875,-0.0005469999741762877,-0.002007999923080206,-0.005286000203341246
1772384389391966200,6.13996630859375,0.001961000030860305,-0.0032059999648481607,-0.0002280000044265762
1772384389412023300,6.160023193359375,-0.006428999826312065,0.008634000085294247,0.002216000109910965
1772384389432080600,6.18008056640625,0.000455000001238659,0.0029070000164210796,0.0033730000723153353
1772384389452137700,6.2001376953125,-0.0028359999414533377,0.002326000016182661,-0.0053010000847280025
1772384389472195000,6.220195068359375,-0.004668000154197216,-0.005338999908417463,-0.00023999999393709004
1772384389492252200,6.240252197265625,0.008263999596238136,-0.00027099999715574086,0.003806999884545803
1772384389512309500,6.2603095703125,-0.0029879999347031116,0.002982999896630645,-0.004954000003635883
1772384389532366300,6.280366455078125,-0.0007900000200606883,-0.000813000020571053,0.008035999722778797
1772384389552423700,6.300423583984375,0.0033660000190138817,0.002549000084400177,-0.005570000037550926
1772384389572480800,6.320480712890625,-0.001306000049225986,-0.0035600000992417336,0.005142999812960625
1772384389592538000,6.3405380859375,-0.0010450000409036875,-0.0044479998759925365,-0.0014850000152364373
1772384389612595200,6.36059521484375,-0.0008360000210814178,0.007641000207513571,-0.005187999922782183
1772384389632652300,6.38065234375,0.003329999977722764,-0.003487000009045005,0.002248999895527959
1772384389652709600,6.400709716796875,-0.00133500003721565,0.0028099999763071537,-0.0006000000284984708
1772384389672766700,6.4207666015625,-0.0010679999832063913,0.0006479999865405262,-0.0004799999878741801
1772384389692823800,6.44082373046875,-0.0008539999835193157,0.006118000019341707,-0.00038400001358240843
1772384389712881200,6.460881103515625,0.003315000096336007,0.000893999997060746,0.0020920000970363617
1772384389732938200,6.480938232421875,0.0002530000056140125,-0.0024840000551193953,0.004873999860137701
1772384389752995300,6.500995361328125,0.004201999865472317,-0.005987000185996294,-0.0032999999821186066
1772384389773052700,6.521052734375,0.0017610000213608146,-0.0007890000124461949,-0.0010400000028312206
1772384389793109800,6.54110986328125,-0.002589999930933118,0.0025679999962449074,0.003166999900713563
1772384389813167000,6.5611669921875,-0.0036720000207424164,0.0020540000405162573,-0.005464999936521053
1772384389833224000,6.581223876953125,0.004261999856680632,-0.0015559999737888575,-0.00037200000951997936
1772384389853281300,6.60128125,-0.002188999904319644,-0.006845000199973583,-0.005898000206798315
1772384389873338600,6.621338623046875,-0.0017509999452158809,-0.00227600010111928,-0.0007179999956861138
1772384389893395700,6.641395751953125,0.0025969999842345715,0.0037789999041706324,0.005024999845772982
1772384389913452800,6.661452880859375,-0.009120999835431576,-0.00017600000137463212,0.004019999876618385
1772384389933510000,6.681510009765625,0.0039019999094307423,-0.009740999899804592,0.0016159999649971724
1772384389953567200,6.701567138671875,-0.0008769999840296805,-0.0021929999347776175,-0.008306999690830708
1772384389973624300,6.721624267578125,-0.0007009999826550484,0.002245000097900629,0.0005540000274777412
1772384389993681400,6.741681396484375,-0.0005610000225715339,0.0049959998577833176,0.0028429999947547913
1772384390013738800,6.76173876953125,0.005150000099092722,0.002397000091150403,-0.004124999977648258
1772384390033795800,6.7817958984375,0.00011999999696854502,0.0003169999981764704,-0.0008999999845400453
1772384390053853000,6.80185302734375,0.00009600000339560211,-0.003745000110939145,0.0008789999992586672
1772384390073910000,6.821909912109375,0.00647599995136261,0.0010029999539256096,-0.004896000027656555
1772384390093967400,6.84196728515625,0.005181000102311373,0.004002000205218792,0.009682999923825264
1772384390114024400,6.8620244140625,0.0017450000159442425,-0.0079969996586442,0.007745999842882156
1772384390134081800,6.882081787109375,0.0013960000360384583,-0.006397999823093414,0.0005970000056549907
1772384390154138600,6.902138671875,-0.0004830000107176602,0.00048099999548867345,0.002076999982818961
1772384390174196000,6.922196044921875,0.005212000105530024,0.004385000094771385,-0.007937000133097172
1772384390194253000,6.942253173828125,-0.001429000054486096,0.003507999936118722,-0.0023499999660998583
1772384390214310100,6.96231005859375,-0.00914200022816658,0.0028059999458491802,-0.004279999993741512
1772384390234367500,6.982367431640625,-0.0017140000127255917,0.000645000021904707,-0.005024000070989132
1772384390254424600,7.002424560546875,0.005026999861001968,-0.001883000019006431,0.00558000011369586
1772384390274481700,7.022481689453125,0.004021999891847372,0.002492000116035342,-0.0011350000277161598
1772384390294538800,7.042538818359375,-0.006380999926477671,0.003593999892473221,-0.0009079999872483313
1772384390314595800,7.062595947265625,0.006093000061810017,-0.0003239999932702631,0.004873000085353851
1772384390334653400,7.0826533203125,0.0032740000169724226,0.001339999958872795,-0.004100999794900417
1772384390354710300,7.102710205078125,-0.0037789999041706324,0.0010720000136643648,0.004718000069260597
1772384390374767600,7.122767578125,0.0033760000951588154,0.010456999763846397,0.005375000182539225
1772384390394824700,7.14282470703125,-0.005297999829053879,0.0003659999929368496,0.0027000000700354576
1772384390414881800,7.1628818359375,0.003759999992325902,-0.005305999889969826,0.0005600000149570405
1772384390434939000,7.18293896484375,-0.004991000052541494,-0.01144499983638525,0.00044800000614486635
1772384390454996200,7.202996337890625,-0.009592999704182148,-0.005156000144779682,0.00035799999022856355
1772384390475053300,7.22305322265625,-0.0036750000435858965,0.0030739998910576105,-0.002113000024110079
1772384390495110700,7.243110595703125,0.004259999841451645,0.0024590000975877047,0.0007089999853633344
1772384390515167700,7.263167724609375,-0.0005920000257901847,-0.002032000105828047,-0.00583200016990304
1772384390535224800,7.283224853515625,0.0019249999895691872,0.0007740000146441162,0.007333999965339899
1772384390555282000,7.303281982421875,0.005539999809116125,0.0038189999759197235,0.00026699999580159783
1772384390575339300,7.32333935546875,0.00443200021982193,-0.00254400004632771,-0.0021860001143068075
1772384390595396400,7.343396240234375,-0.006053000222891569,0.007563999854028225,-0.0033480001147836447
1772384390615453700,7.36345361328125,-0.007242000196129084,0.000450999999884516,-0.002678999910131097
1772384390635510800,7.3835107421875,-0.005793000105768442,-0.009238000027835369,0.007455999962985516
1772384390655568000,7.40356787109375,-0.0022350000217556953,0.0022090000566095114,-0.0076339999213814735
1772384390675625000,7.423625,-0.00018699999782256782,-0.0038320000749081373,0.005092000123113394
1772384390695682300,7.443682373046875,0.003848999971523881,0.0009330000029876828,0.006473000161349773
1772384390715739400,7.463739501953125,0.000678999989759177,0.002346999943256378,-0.006819999776780605
1772384390735796500,7.48379638671875,0.0005430000019259751,-0.007722000125795603,-0.005456000100821257
1772384390755853800,7.503853759765625,0.004433999769389629,0.005022000055760145,-0.00596500001847744
1772384390775911000,7.523910888671875,-0.00045200000749900937,-0.0015820000553503633,0.004827000200748444
1772384390795968300,7.54396826171875,-0.00036100001307204366,-0.00446499977260828,-0.007337000221014023
1772384390816025000,7.564025146484375,-0.0018889999482780695,-0.00037200000951997936,0.006928999908268452
1772384390836082400,7.58408251953125,0.00008800000068731606,-0.0018980000168085098,0.007942999713122845
1772384390856139800,7.604139892578125,-0.003129000077024102,-0.0015180000336840749,0.002355000004172325
1772384390876196900,7.62419677734375,0.0030950000509619713,0.008384999819099903,0.0002840000088326633
1772384390896254000,7.64425390625,0.004075999837368727,0.0011080000549554825,0.0074269999749958515
1772384390916311000,7.66431103515625,-0.0007379999733529985,0.0008859999943524599,0.00034100000630132854
1772384390936368400,7.684368408203125,-0.0037899999879300594,-0.0016899999463930726,-0.010925999842584133
1772384390956425500,7.704425537109375,-0.0030320000369101763,-0.00455200020223856,0.008058000355958939
1772384390976482800,7.72448291015625,0.004774000030010939,-0.0004419999895617366,-0.0007529999711550772
1772384390996539600,7.74453955078125,-0.0033809999004006386,0.0036460000555962324,-0.007002000231295824
1772384391016597000,7.764596923828125,-0.0027050001081079245,-0.002681999932974577,0.0007980000227689743
1772384391036654000,7.784654052734375,-0.0021639999467879534,0.003452999982982874,-0.003360999980941415
1772384391056711400,7.80471142578125,0.007867000065743923,0.006761999800801277,-0.0010890000266954303
1772384391076768500,7.8247685546875,-0.0017049999441951513,-0.00018899999849963933,-0.0024709999561309814
1772384391096825600,7.84482568359375,-0.0029639999847859144,-0.00015100000018719584,0.005222000181674957
1772384391116882700,7.864882568359375,0.0032279998995363712,-0.004120999947190285,0.000977999996393919
1772384391136940000,7.88493994140625,-0.0030169999226927757,0.007902000099420547,-0.003217000048607588
1772384391156997000,7.9049970703125,-0.000813000020571053,0.0023219999857246876,-0.0009730000165291131
1772384391177054200,7.92505419921875,-0.0006500000017695129,0.0058570001274347305,0.003220000071451068
1772384391197111300,7.945111328125,-0.0021200000774115324,-0.006513000000268221,0.004176000133156776
1772384391217168600,7.965168701171875,-0.0016959999920800328,-0.006810000166296959,-0.002257999964058399
1772384391237225700,7.985225830078125,-0.0013569999719038606,0.003350999904796481,-0.0018060000147670507
1772384391257283000,8.005282958984376,-0.0034839999862015247,-0.0005189999938011169,-0.007044999860227108
1772384391277340000,8.02533984375,0.0052109998650848866,-0.0028150000143796206,-0.001636000000871718
1772384391297397200,8.045397216796875,-0.0014299999456852674,-0.002251999918371439,0.002689999993890524
1772384391317454300,8.065454345703126,-0.006744000129401684,0.000598000013269484,0.009352000430226326
1772384391337511700,8.08551171875,0.007404999807476997,0.0076779997907578945,0.00028199999360367656
1772384391357568500,8.105568603515625,0.005923999939113855,0.006142000202089548,0.003425000002607703
1772384391377625900,8.1256259765625,0.004738999996334314,-0.0006849999772384763,0.0011399999493733048
1772384391397683000,8.145682861328124,-0.005807000212371349,-0.004548000171780586,0.002512000035494566
1772384391417740300,8.165740234375,-0.0006459999713115394,-0.0012379999971017241,0.0004090000002179295
1772384391437797400,8.18579736328125,-0.004517000168561935,0.006207999773323536,-0.0052720000967383385
1772384391457854500,8.2058544921875,0.004383999854326248,-0.0006319999811239541,-0.006616999860852957
1772384391477911600,8.22591162109375,-0.0004910000134259462,-0.011706000193953514,-0.0012939999578520656
1772384391497969000,8.245968994140625,-0.000391999987186864,0.0018339999951422215,-0.005034999921917915
1772384391518026000,8.26602587890625,0.009283999912440777,0.00546699995175004,-0.000028000000384054147
1772384391538083000,8.2860830078125,0.0018279999494552612,-0.006825000047683716,-0.000022000000171829015
1772384391558140200,8.30614013671875,-0.0009360000258311629,-0.003860000055283308,0.009580999612808228
1772384391578197500,8.326197509765626,-0.0007489999989047647,0.0009110000100918114,-0.003533999901264906
1772384391598254600,8.346254638671875,-0.0005990000208839774,0.00392899988219142,0.001171999960206449
1772384391618311700,8.366311767578125,0.0035200000274926424,-0.000056000000768108293,-0.007062000222504139
1772384391638368800,8.38636865234375,0.00521499989554286,-0.0024449999909847975,-0.004048999864608049
1772384391658426000,8.406426025390624,-0.0054270001128315926,-0.00355600006878376,0.003160000080242753
1772384391678483200,8.426483154296875,-0.012341000139713287,0.00835500005632639,0.00012799999967683107
1772384391698540500,8.44654052734375,0.007726000156253576,0.006684000138193369,0.0057020001113414764
1772384391718597400,8.466597412109374,0.006180999800562859,0.0013470000121742487,-0.0026370000559836626
1772384391738654700,8.48665478515625,-0.0030529999639838934,-0.002122000092640519,-0.004509999882429838
1772384391758711800,8.5067119140625,-0.004042999818921089,-0.00009699999645818025,0.0059910002164542675
1772384391778769200,8.52676904296875,-0.005634000059217215,0.003920999821275473,-0.0024059999268501997
1772384391798826200,8.546826171875,-0.004507000092417002,0.000737000023946166,-0.0019249999895691872
1772384391818883300,8.56688330078125,0.00039400000241585076,-0.005009999964386225,0.00005900000178371556
1772384391838940400,8.5869404296875,0.004315000027418137,0.003990999888628721,-0.001551999943330884
1772384391858997800,8.606997802734375,-0.004546999931335449,-0.004805999808013439,-0.0012410000199452043
1772384391879054800,8.627054931640625,0.001962000038474798,-0.0014449999434873462,0.0006060000159777701
1772384391899112000,8.64711181640625,0.003969000186771154,-0.00355600006878376,0.00048499999684281647
1772384391919169000,8.6671689453125,0.0071749999187886715,-0.006043999921530485,0.000387999985832721
1772384391939226400,8.687226318359375,-0.0006580000044777989,-0.008834999985992908,0.005909999832510948
1772384391959283500,8.707283447265626,0.0018720000516623259,0.0025309999473392963,0.0015279999934136868
1772384391979340500,8.727340576171875,-0.004102000035345554,0.0036249998956918716,-0.006777000147849321
1772384391999398000,8.74739794921875,-0.0032820000778883696,0.002899999963119626,-0.001420999993570149
1772384392019455000,8.767455078125,-0.005024999845772982,-0.0016799999866634607,0.0028619999065995216
1772384392039512000,8.787511962890624,-0.000019999999494757503,0.004255000036209822,0.007890000008046627
1772384392059569200,8.807569091796875,0.0015829999465495348,0.011404000222682953,0.002311999909579754
1772384392079626200,8.827626220703126,0.010866000317037106,0.005123000126332045,0.00024900000425986946
1772384392099683600,8.84768359375,0.003092000028118491,-0.0071000000461936,0.005799000151455402
1772384392119740700,8.86774072265625,-0.003126000054180622,-0.009680000133812428,0.002239000052213669
1772384392139797800,8.8877978515625,-0.0024999999441206455,-0.009344000369310379,0.001791000016964972
1772384392159854800,8.907854736328124,0.0035989999305456877,0.005324000027030706,-0.004166000057011843
1772384392179912200,8.927912109375,0.0012779999524354935,0.002658999990671873,-0.008933000266551971
1772384392199969300,8.94796923828125,0.006622999906539917,-0.0034719998948276043,-0.0015460000140592456
1772384392220026400,8.9680263671875,-0.0027000000700354576,-0.006777000147849321,-0.0012369999894872308
1772384392240083500,8.98808349609375,0.007439000066369772,0.004176999907940626,0.003010000102221966
1772384392260140800,9.008140869140625,-0.003648000070825219,0.0017419999931007624,0.004007999785244465
1772384392280198000,9.028197998046876,-0.006118999794125557,0.004592999815940857,-0.003992999903857708
1772384392300255000,9.0482548828125,-0.004896000027656555,-0.0019249999895691872,-0.0015940000303089619
1772384392320312000,9.06831201171875,-0.006316000130027533,0.0024590000975877047,-0.005274999886751175
1772384392340369400,9.088369384765626,0.0029460000805556774,-0.002032000105828047,-0.00022000000171829015
1772384392360426500,9.108426513671875,-0.0056409998796880245,0.0007740000146441162,-0.00017600000137463212
1772384392380483600,9.128483642578125,0.0050860000774264336,-0.003379999892786145,0.005458000116050243
1772384392400540700,9.148540771484376,0.0024689999409019947,0.004495000001043081,0.002767000114545226
1772384392420598000,9.168597900390624,-0.00762300007045269,0.001996000064536929,-0.0033859999384731054
1772384392440655000,9.188655029296875,-0.010099000297486782,0.0031969998963177204,0.004490000195801258
1772384392460712200,9.208712158203125,0.0015200000489130616,-0.008642000146210194,0.000391999987186864
1772384392480769300,9.228769287109374,-0.0027830000035464764,-0.0013129999861121178,0.00031400000443682075
1772384392500826600,9.24882666015625,0.005772000178694725,-0.0010509999701753259,0.001851000008173287
1772384392520883500,9.268883544921875,-0.0033809999004006386,-0.004040000028908253,-0.006517999805510044
1772384392540940800,9.28894091796875,0.005293000023812056,0.0023670000955462456,-0.00521499989554286
1772384392560998000,9.308997802734375,0.00023499999952036887,0.001892999978736043,0.0022269999608397484
1772384392581055000,9.329054931640625,0.001787999994121492,0.0015150000108405948,0.003381999908015132
1772384392601112000,9.349112060546876,-0.005768999923020601,-0.0011869999580085278,0.0011050000321120024
1772384392621169400,9.36916943359375,-0.003014999907463789,0.00304899993352592,0.0024840000551193953
1772384392641226500,9.3892265625,0.00558600015938282,-0.001560000004246831,0.001986999996006489
1772384392661283600,9.40928369140625,-0.005129000172019005,0.002750999992713332,0.0015899999998509884
1772384392681341000,9.4293408203125,-0.00010399999882793054,0.0006009999779053032,0.0028719999827444553
1772384392701398000,9.44939794921875,0.0055160000920295715,-0.0019180000526830554,0.0006970000104047358
1772384392721455000,9.469455078125,-0.0035860000643879175,-0.0015350000467151403,0.0005579999997280538
1772384392741512200,9.48951220703125,-0.006070000119507313,-0.0028280001133680344,-0.009153000079095364
1772384392761569300,9.5095693359375,0.002343999920412898,0.0033370000310242176,-0.0057219997979700565
1772384392781626600,9.529626708984376,0.005874000024050474,-0.006928999908268452,0.0018210000125691295
1772384392801683700,9.54968359375,0.004699000157415867,0.000056000000768108293,0.004656999837607145
1772384392821740800,9.56974072265625,0.0013589999871328473,-0.001554999966174364,0.0021250001154839993
1772384392841798100,9.589798095703125,0.003487000009045005,0.004354999866336584,0.0017000000225380063
1772384392861855200,9.609855224609374,0.00279000005684793,0.005084000062197447,-0.0002390000008745119
1772384392881912300,9.629912353515625,-0.00016599999798927456,-0.0031320000998675823,0.003008000086992979
1772384392901969400,9.649969482421875,-0.0017330000409856439,0.003094000043347478,0.0008060000254772604
1772384392922026800,9.67002685546875,-0.005386999808251858,-0.0015239999629557133,-0.0009539999882690609
1772384392942083800,9.690083740234375,0.001290000043809414,0.001180000021122396,-0.003163000103086233
1772384392962141000,9.710140869140625,-0.010168000124394894,0.00254400004632771,-0.0065299998968839645
1772384392982198000,9.730197998046876,-0.0025339999701827765,-0.0035639998968690634,0.0043750000186264515
1772384393002255400,9.75025537109375,-0.00202700006775558,-0.0028510000556707382,-0.006099000107496977
1772384393022312200,9.770312255859375,0.002377999946475029,0.0033179998863488436,-0.0024790000170469284
1772384393042369500,9.79036962890625,0.0003020000003743917,0.001053999993018806,0.003616000059992075
1772384393062426600,9.810426513671874,-0.003756999969482422,0.0008430000161752105,0.002891999902203679
1772384393082483700,9.830483642578125,-0.004606000147759914,-0.0017239999724552035,0.0023139999248087406
1772384393102540800,9.850540771484376,-0.0004839999892283231,-0.002979000099003315,0.00025099999038502574
1772384393122598100,9.87059814453125,0.0036120000295341015,0.0032160000409930944,-0.0037980000488460064
1772384393142655200,9.8906552734375,0.0012890000361949205,-0.0046270000748336315,0.006560000125318766
1772384393162712300,9.91071240234375,0.0010310000507161021,0.005098000168800354,0.00684799998998642
1772384393182769400,9.930769287109374,-0.003172999946400523,0.0008779999916441739,-0.004120999947190285
1772384393202826800,9.95082666015625,0.0014600000577047467,-0.0016969999996945262,0.002303000073879957
1772384393222883600,9.970883544921875,0.006767999846488237,-0.0013569999719038606,-0.0013569999719038606
1772384393242941000,9.99094091796875,-0.0001849999971454963,0.006912999786436558,-0.0010849999962374568
1772384393262998000,10.010998046875,0.0014519999967887998,-0.0024679999332875013,0.008731000125408173
1772384393283055000,10.03105517578125,0.002761000068858266,-0.0019749999046325684,-0.00661400007084012
1772384393303112200,10.0511123046875,-0.0009899999713525176,0.004019000101834536,0.0019079999765381217
1772384393323169500,10.07116943359375,0.0024079999420791864,-0.003984000068157911,-0.005673000123351812
1772384393343226600,10.0912265625,-0.006874000187963247,-0.007187000010162592,-0.0005380000220611691
1772384393363283700,10.11128369140625,-0.005497999954968691,-0.001749000046402216,-0.002830999903380871
1772384393383340800,10.1313408203125,0.004401000216603279,0.00019999999494757503,0.0017350000562146306
1772384393403398100,10.151398193359375,0.00031999999191612005,0.0081599997356534,-0.00021100000594742596
1772384393423455000,10.171455078125,-0.009344000369310379,0.004127999767661095,-0.00016900000628083944
1772384393443512300,10.19151220703125,0.0037249999586492777,0.0073020001873373985,-0.004135000053793192
1772384393463569400,10.2115693359375,0.006978000048547983,0.0002410000015515834,-0.0033080000430345535
1772384393483626200,10.231626220703125,0.0015839999541640282,-0.0054060001857578754,0.001353000057861209
1772384393503683600,10.25168359375,-0.00433199992403388,-0.00432500010356307,0.0010819999733939767
1772384393523740700,10.27174072265625,0.002133999951183796,0.0005389999714680016,-0.0015330000314861536
1772384393543797800,10.2917978515625,-0.005493000149726868,-0.003567999927327037,0.004372000228613615
1772384393563854800,10.311854736328126,-0.004393999930471182,0.0011449999874457717,0.0018980000168085098
1772384393583912000,10.331911865234375,-0.00031400000443682075,0.0009159999899566174,0.005518000107258558
1772384393603969000,10.351968994140625,0.005348000209778547,-0.0032659999560564756,0.002013999968767166
1772384393624026400,10.3720263671875,0.0026779999025166035,-0.0026130001060664654,0.000011000000085914508
1772384393644083500,10.39208349609375,-0.0050570000894367695,-0.0004900000058114529,-0.00798999983817339
1772384393664140500,10.412140625,-0.004044999834150076,0.007606999948620796,-0.003992000129073858
1772384393684197600,10.43219775390625,-0.00003600000127335079,0.002085000043734908,0.0024059999268501997
1772384393704254700,10.452254638671874,0.002369999885559082,0.00006800000119255856,0.0019239999819546938
1772384393724312000,10.47231201171875,-0.0021019999403506517,-0.005545000080019236,-0.002460000105202198
1772384393744369000,10.492368896484376,-0.0032820000778883696,-0.0012359999818727374,-0.00916799996048212
1772384393764426200,10.51242626953125,-0.001025000005029142,0.001411000033840537,-0.0001340000017080456
1772384393784483300,10.5324833984375,-0.004819000139832497,0.0027280000504106283,-0.001706999959424138
1772384393804540400,10.55254052734375,-0.003855000017210841,0.0005830000154674053,0.00023299999884329736
1772384393824597800,10.57259765625,0.0049149999395012856,-0.0035329998936504126,0.005787000060081482
1772384393844654600,10.592654541015625,0.003930999897420406,-0.0012260000221431255,0.001429000054486096
1772384393864712000,10.6127119140625,0.004745999816805124,0.003017999930307269,0.002742999931797385
1772384393884769000,10.63276904296875,-0.0018019999843090773,0.0008140000281855464,-0.003404000075533986
1772384393904826000,10.652826171875,-0.0014410000294446945,-0.0017480000387877226,-0.0011230000527575612
1772384393924883200,10.67288330078125,0.002845000009983778,-0.0045980000868439674,-0.006498999893665314
1772384393944940500,10.6929404296875,-0.0017219999572262168,-0.0004780000017490238,0.00279999990016222
1772384393964997600,10.71299755859375,-0.0029780000913888216,-0.00038300000596791506,0.002240000059828162
1772384393985054700,10.7330546875,-0.0007820000173524022,-0.0003060000017285347,0.007391999941319227
1772384394005111600,10.753111572265626,-0.0006249999860301614,0.0021540001034736633,-0.0020860000513494015
1772384394025169000,10.7731689453125,-0.0005000000237487257,0.0017229999648407102,-0.005667999852448702
1772384394045226000,10.79322607421875,0.0011990000493824482,0.006978999823331833,0.003464000066742301
1772384394065283000,10.813282958984376,0.0033579999580979347,0.003183000022545457,-0.0012280000373721123
1772384394085340200,10.833340087890624,0.005886999890208244,-0.0030529999639838934,0.0030169999226927757
1772384394105397500,10.8533974609375,0.0015089999651536345,-0.0056420001201331615,0.006413999944925308
1772384394125454300,10.873454345703125,-0.004391999915242195,0.002684999955818057,-0.002867999952286482
1772384394145511400,10.893511474609374,-0.003513999981805682,0.0037479999009519815,-0.0022950000129640102
1772384394165568800,10.91356884765625,0.005989000201225281,-0.002601000014692545,0.00216299993917346
1772384394185625900,10.9336259765625,0.0031900000758469105,-0.005280000157654285,-0.003868000116199255
1772384394205683000,10.953682861328126,-0.004648000001907349,-0.004224000032991171,-0.0014949999749660492
1772384394225739800,10.97373974609375,0.0034809999633580446,0.007819999940693378,-0.00279600010253489
1772384394245797000,10.993797119140625,0.0011840000515803695,0.00785600021481514,0.0033629999961704016
1772384394265854200,11.013854248046876,0.0009469999931752682,0.0006840000278316438,0.004290000069886446
1772384394285911300,11.033911376953125,0.0007580000092275441,-0.010652000084519386,0.0018319999799132347
1772384394305968400,11.053968505859375,-0.004993000067770481,0.0042779999785125256,-0.0001340000017080456
1772384394326025700,11.074025634765626,0.008806000463664532,0.003421999979764223,-0.002506999997422099
1772384394346082600,11.09408251953125,0.0014440000522881746,0.0051380000077188015,0.0019940000493079424
1772384394366139600,11.1141396484375,-0.0028429999947547913,-0.003889000043272972,0.0031950001139193773
1772384394386197000,11.134197021484376,0.003323999932035804,-0.0047109997831285,0.0009560000034980476
1772384394406254000,11.154254150390624,-0.004540000110864639,0.00343000004068017,0.0007650000043213367
1772384394426311200,11.174311279296875,-0.005231999792158604,-0.01245499961078167,-0.0009869999485090375
1772384394446368300,11.1943681640625,0.0014130000490695238,-0.022763999179005623,-0.012790000066161156
1772384394466425300,11.21442529296875,-0.0012679999927058816,-0.001411000033840537,0.001766999950632453
1772384394486482400,11.234482421875,0.0029849999118596315,0.019670000299811363,0.007013999857008457
1772384394506539500,11.25453955078125,0.003988000098615885,0.008535999804735184,0.000011000000085914508
1772384394526596600,11.2745966796875,0.0031900000758469105,0.004428999964147806,0.012808999978005886
1772384394546653700,11.29465380859375,0.028152000159025192,-0.0036559998989105225,0.02224699966609478
1772384394566710800,11.314710693359375,0.02812100015580654,0.0010740000288933516,0.008197000250220299
1772384394586768000,11.334767822265626,0.012896999716758728,0.0024590000975877047,0.004157999996095896
1772384394606825200,11.3548251953125,-0.011281000450253487,0.00036700000055134296,-0.021472999826073647
1772384394626882300,11.37488232421875,-0.03142499923706055,-0.005305000115185976,-0.01317800022661686
1772384394646939400,11.394939453125,-0.011540999636054039,-0.01624399982392788,-0.0025420000310987234
1772384394666996500,11.41499658203125,-0.034832000732421875,0.004604000132530928,-0.02923399955034256
1772384394687053600,11.435053466796875,-0.03746600076556206,0.03408300131559372,-0.02898699976503849
1772384394707110700,11.455110595703125,-0.03717200085520744,0.02166599966585636,-0.03279000148177147
1772384394727167700,11.475167724609374,-0.0033370000310242176,-0.015465999953448772,-0.011032000184059143
1772384394747224800,11.495224853515625,-0.008270000107586384,-0.008372999727725983,0.006374000106006861
1772384394767282000,11.515281982421875,0.006982999853789806,0.023700999096035957,0.020299000665545464
1772384394787339300,11.53533935546875,0.02638700045645237,0.009360999800264835,0.022639000788331032
1772384394807396000,11.55539599609375,0.0747079998254776,-0.006111000198870897,0.02371099963784218
1772384394827453400,11.575453369140625,0.07176700234413147,-0.0024880000855773687,0.049368999898433685
1772384394847510300,11.59551025390625,0.007013999857008457,-0.004391000140458345,0.013094999827444553
1772384394867567600,11.615567626953125,-0.01358800008893013,-0.016311999410390854,0.016076000407338142
1772384394887624700,11.635624755859375,-0.03327000141143799,-0.025049999356269836,0.003260999917984009
1772384394907681800,11.655681884765626,-0.04021599888801575,-0.0024399999529123306,-0.030191000550985336
1772384394927739000,11.67573876953125,-0.0401730015873909,-0.00035200000274926424,-0.0241519995033741
1772384394947796000,11.6957958984375,0.0214610006660223,-0.00988100003451109,0.00787699967622757
1772384394967853000,11.71585302734375,0.021167999133467674,0.01369400043040514,-0.0016969999996945262
1772384394987910100,11.73591015625,-0.005464000161737204,-0.013844000175595284,-0.010958000086247921
1772384395007967200,11.75596728515625,-0.010769999586045742,0.020924000069499016,-0.014365999959409237
1772384395028024600,11.776024658203125,0.15058299899101257,0.011138999834656715,-0.0042929998598992825
1772384395048081700,11.79608154296875,-0.14593300223350525,0.058511000126600266,0.027765000239014626
1772384395068138800,11.816138671875,0.01765199936926365,0.02440899983048439,0.010212000459432602
1772384395088195800,11.83619580078125,0.01572199910879135,0.01712699979543686,-0.004629999864846468
1772384395108253000,11.8562529296875,0.0013780000153928995,-0.020697999745607376,0.01709499955177307
