time,seconds_elapsed,z,y,x
1772384383314623500,0.06262353515625,-0.002337499987334013,0.0030249999836087227,0.020075000822544098
1772384383334680800,0.082680908203125,-0.002337499987334013,0.005087499972432852,0.017875000834465027
1772384383354738200,0.10273828125,-0.002337499987334013,0.005087499972432852,0.015812499448657036
1772384383374795500,0.12279541015625,-0.002337499987334013,0.003987499978393316,0.017875000834465027
1772384383394852600,0.1428525390625,-0.002337499987334013,0.003987499978393316,0.01691249944269657
1772384383414910200,0.16291015625,-0.002337499987334013,0.003987499978393316,0.017875000834465027
1772384383434967300,0.18296728515625,-0.002337499987334013,0.003987499978393316,0.01691249944269657
1772384383455024600,0.203024658203125,-0.002337499987334013,0.007287499960511923,0.015812499448657036
1772384383475082000,0.22308203125,-0.0012374999932944775,0.008249999955296516,0.0147124994546175
1772384383495139000,0.24313916015625,-0.002337499987334013,0.009349999949336052,0.015812499448657036
1772384383515196700,0.26319677734375,-0.0012374999932944775,0.007287499960511923,0.015812499448657036
1772384383535254000,0.28325390625,-0.0012374999932944775,0.006187499966472387,0.01691249944269657
1772384383555311000,0.30331103515625,-0.0012374999932944775,0.006187499966472387,0.017875000834465027
1772384383575368400,0.323368408203125,-0.0012374999932944775,0.005087499972432852,0.017875000834465027
1772384383595425800,0.34342578125,-0.002337499987334013,0.005087499972432852,0.018975000828504562
1772384383615483100,0.363483154296875,-0.0034374999813735485,0.006187499966472387,0.018975000828504562
1772384383635540200,0.383540283203125,-0.0012374999932944775,0.007287499960511923,0.017875000834465027
1772384383655597600,0.40359765625,-0.0012374999932944775,0.006187499966472387,0.017875000834465027
1772384383675655000,0.423655029296875,-0.002337499987334013,0.006187499966472387,0.018975000828504562
1772384383695712300,0.443712158203125,-0.0012374999932944775,0.006187499966472387,0.018975000828504562
1772384383715769600,0.46376953125,-0.0012374999932944775,0.005087499972432852,0.017875000834465027
1772384383735826700,0.48382666015625,-0.0012374999932944775,0.006187499966472387,0.017875000834465027
1772384383755884000,0.503884033203125,-0.0012374999932944775,0.006187499966472387,0.01691249944269657
1772384383775941400,0.52394140625,-0.002337499987334013,0.006187499966472387,0.017875000834465027
1772384383795998500,0.54399853515625,-0.0012374999932944775,0.006187499966472387,0.017875000834465027
1772384383816055800,0.564055908203125,-0.002337499987334013,0.006187499966472387,0.017875000834465027
1772384383836113200,0.584113037109375,-0.002337499987334013,0.006187499966472387,0.017875000834465027
1772384383856170200,0.604170166015625,-0.0034374999813735485,0.005087499972432852,0.017875000834465027
1772384383876227800,0.624227783203125,-0.002337499987334013,0.006187499966472387,0.018975000828504562
1772384383896285000,0.644284912109375,-0.0034374999813735485,0.005087499972432852,0.017875000834465027
1772384383916342300,0.66434228515625,-0.0034374999813735485,0.005087499972432852,0.018975000828504562
1772384383936399600,0.684399658203125,-0.002337499987334013,0.005087499972432852,0.018975000828504562
1772384383956457000,0.70445703125,-0.0034374999813735485,0.006187499966472387,0.017875000834465027
1772384383976514300,0.724514404296875,-0.002337499987334013,0.006187499966472387,0.018975000828504562
1772384383996571400,0.7445712890625,-0.002337499987334013,0.006187499966472387,0.017875000834465027
1772384384016628700,0.764628662109375,-0.002337499987334013,0.006187499966472387,0.017875000834465027
1772384384036686000,0.78468603515625,-0.002337499987334013,0.006187499966472387,0.017875000834465027
1772384384056743200,0.8047431640625,-0.002337499987334013,0.006187499966472387,0.01691249944269657
1772384384076800800,0.82480078125,-0.002337499987334013,0.006187499966472387,0.01691249944269657
1772384384096857900,0.84485791015625,-0.002337499987334013,0.006187499966472387,0.017875000834465027
1772384384116915200,0.864915283203125,-0.002337499987334013,0.006187499966472387,0.017875000834465027
1772384384136972500,0.88497265625,-0.002337499987334013,0.006187499966472387,0.017875000834465027
1772384384157029600,0.905029541015625,-0.002337499987334013,0.005087499972432852,0.018975000828504562
1772384384177087200,0.925087158203125,-0.002337499987334013,0.005087499972432852,0.017875000834465027
1772384384197144300,0.945144287109375,-0.002337499987334013,0.005087499972432852,0.017875000834465027
1772384384217201700,0.96520166015625,-0.002337499987334013,0.006187499966472387,0.017875000834465027
1772384384237259000,0.985259033203125,-0.002337499987334013,0.006187499966472387,0.018975000828504562
1772384384257316000,1.005316162109375,-0.0034374999813735485,0.006187499966472387,0.017875000834465027
1772384384277373400,1.02537353515625,-0.002337499987334013,0.007287499960511923,0.017875000834465027
1772384384297430800,1.0454306640625,-0.002337499987334013,0.005087499972432852,0.018975000828504562
1772384384317488000,1.065488037109375,-0.002337499987334013,0.005087499972432852,0.017875000834465027
1772384384337545500,1.08554541015625,-0.0012374999932944775,0.005087499972432852,0.017875000834465027
1772384384357602600,1.1056025390625,-0.002337499987334013,0.005087499972432852,0.018975000828504562
1772384384377660000,1.125659912109375,-0.0012374999932944775,0.006187499966472387,0.018975000828504562
1772384384397717000,1.145717041015625,-0.002337499987334013,0.006187499966472387,0.018975000828504562
1772384384417774600,1.165774658203125,-0.002337499987334013,0.005087499972432852,0.018975000828504562
1772384384437831700,1.185831787109375,-0.002337499987334013,0.005087499972432852,0.018975000828504562
1772384384457889000,1.205888916015625,-0.002337499987334013,0.005087499972432852,0.018975000828504562
1772384384477946400,1.2259462890625,-0.002337499987334013,0.005087499972432852,0.018975000828504562
1772384384498003700,1.246003662109375,-0.002337499987334013,0.006187499966472387,0.017875000834465027
1772384384518061000,1.26606103515625,-0.002337499987334013,0.006187499966472387,0.018975000828504562
1772384384538118100,1.2861181640625,-0.002337499987334013,0.006187499966472387,0.01691249944269657
1772384384558175500,1.306175537109375,-0.0012374999932944775,0.007287499960511923,0.01691249944269657
1772384384578232800,1.32623291015625,-0.002337499987334013,0.007287499960511923,0.01691249944269657
1772384384598290000,1.3462900390625,-0.002337499987334013,0.007287499960511923,0.017875000834465027
1772384384618347500,1.366347412109375,-0.0012374999932944775,0.006187499966472387,0.017875000834465027
1772384384638404600,1.386404541015625,-0.0012374999932944775,0.007287499960511923,0.017875000834465027
1772384384658462000,1.4064619140625,-0.002337499987334013,0.006187499966472387,0.018975000828504562
1772384384678519300,1.426519287109375,-0.002337499987334013,0.006187499966472387,0.017875000834465027
1772384384698576400,1.446576416015625,-0.002337499987334013,0.006187499966472387,0.018975000828504562
1772384384718633700,1.4666337890625,-0.0034374999813735485,0.005087499972432852,0.018975000828504562
1772384384738691000,1.486691162109375,-0.002337499987334013,0.005087499972432852,0.018975000828504562
1772384384758748400,1.50674853515625,-0.0034374999813735485,0.003987499978393316,0.020075000822544098
1772384384778805800,1.5268056640625,-0.002337499987334013,0.005087499972432852,0.018975000828504562
1772384384798863000,1.546863037109375,-0.002337499987334013,0.006187499966472387,0.017875000834465027
1772384384818920200,1.566920166015625,-0.0012374999932944775,0.007287499960511923,0.01691249944269657
1772384384838977500,1.5869775390625,-0.0012374999932944775,0.007287499960511923,0.01691249944269657
1772384384859035000,1.607034912109375,-0.0034374999813735485,0.007287499960511923,0.01691249944269657
1772384384879092200,1.62709228515625,-0.002337499987334013,0.006187499966472387,0.017875000834465027
1772384384899149300,1.6471494140625,-0.002337499987334013,0.005087499972432852,0.018975000828504562
1772384384919206700,1.66720654296875,-0.002337499987334013,0.005087499972432852,0.020075000822544098
1772384384939264000,1.687263916015625,-0.002337499987334013,0.005087499972432852,0.021175000816583633
1772384384959321000,1.707321044921875,-0.002337499987334013,0.005087499972432852,0.020075000822544098
1772384384979378400,1.72737841796875,-0.0034374999813735485,0.003987499978393316,0.021175000816583633
1772384384999435500,1.747435546875,-0.002337499987334013,0.003987499978393316,0.02213750034570694
1772384385019493000,1.7674931640625,-0.0034374999813735485,0.005087499972432852,0.020075000822544098
1772384385039550500,1.787550537109375,-0.002337499987334013,0.005087499972432852,0.020075000822544098
1772384385059607600,1.807607666015625,-0.002337499987334013,0.003987499978393316,0.018975000828504562
1772384385079665000,1.827664794921875,-0.002337499987334013,0.005087499972432852,0.017875000834465027
1772384385099722000,1.847721923828125,-0.0012374999932944775,0.008249999955296516,0.015812499448657036
1772384385119779300,1.867779296875,-0.0012374999932944775,0.008249999955296516,0.0147124994546175
1772384385139836700,1.887836669921875,-0.00013749999925494194,0.005087499972432852,0.0147124994546175
1772384385159894000,1.90789404296875,0.0008249999955296516,0.009349999949336052,0.01691249944269657
1772384385179951000,1.927951171875,0.0008249999955296516,0.007287499960511923,0.017875000834465027
1772384385200008400,1.948008544921875,-0.00013749999925494194,0.003987499978393316,0.015812499448657036
1772384385220065800,1.968065673828125,-0.002337499987334013,0.0030249999836087227,0.018975000828504562
1772384385240123000,1.988122802734375,-0.0034374999813735485,-0.0002749999985098839,0.021175000816583633
1772384385260180200,2.00818017578125,-0.0034374999813735485,-0.005499999970197678,0.02433750033378601
1772384385280237300,2.0282373046875,-0.0034374999813735485,-0.006599999964237213,0.025437500327825546
1772384385300294700,2.048294677734375,-0.0034374999813735485,-0.002337499987334013,0.02213750034570694
1772384385320351700,2.068351806640625,-0.002337499987334013,0.003987499978393316,0.020075000822544098
1772384385340409300,2.088409423828125,-0.002337499987334013,0.009349999949336052,0.015812499448657036
1772384385360466400,2.108466552734375,-0.0012374999932944775,0.010449999943375587,0.013612499460577965
1772384385380523800,2.128523681640625,-0.00013749999925494194,0.011549999937415123,0.012649999931454659
1772384385400581000,2.1485810546875,-0.0012374999932944775,0.009349999949336052,0.013612499460577965
1772384385420638200,2.16863818359375,-0.0012374999932944775,0.006187499966472387,0.015812499448657036
1772384385440695600,2.188695556640625,-0.0012374999932944775,0.006187499966472387,0.01691249944269657
1772384385460753000,2.2087529296875,-0.002337499987334013,0.006187499966472387,0.015812499448657036
1772384385480810000,2.22881005859375,-0.0012374999932944775,0.005087499972432852,0.018975000828504562
1772384385500867300,2.248867431640625,-0.002337499987334013,0.006187499966472387,0.020075000822544098
1772384385520924700,2.268924560546875,-0.002337499987334013,0.006187499966472387,0.020075000822544098
1772384385540982000,2.28898193359375,-0.002337499987334013,0.003987499978393316,0.020075000822544098
1772384385561039000,2.3090390625,-0.002337499987334013,0.0030249999836087227,0.020075000822544098
1772384385581096400,2.329096435546875,-0.0034374999813735485,0.0030249999836087227,0.020075000822544098
1772384385601153500,2.349153564453125,-0.002337499987334013,0.0030249999836087227,0.018975000828504562
1772384385621211000,2.3692109375,-0.0034374999813735485,0.003987499978393316,0.017875000834465027
1772384385641268200,2.389268310546875,-0.0034374999813735485,0.005087499972432852,0.01691249944269657
1772384385661325600,2.40932568359375,-0.0012374999932944775,0.007287499960511923,0.017875000834465027
1772384385681382700,2.429382568359375,-0.0012374999932944775,0.007287499960511923,0.01691249944269657
1772384385701440000,2.44943994140625,-0.002337499987334013,0.007287499960511923,0.015812499448657036
1772384385721497000,2.4694970703125,-0.002337499987334013,0.006187499966472387,0.01691249944269657
1772384385741554400,2.489554443359375,-0.002337499987334013,0.005087499972432852,0.017875000834465027
1772384385761611800,2.50961181640625,-0.002337499987334013,0.003987499978393316,0.018975000828504562
1772384385781669000,2.529669189453125,-0.002337499987334013,0.003987499978393316,0.018975000828504562
1772384385801726200,2.549726318359375,-0.002337499987334013,0.003987499978393316,0.017875000834465027
1772384385821783600,2.569783447265625,-0.0034374999813735485,0.005087499972432852,0.018975000828504562
1772384385841841000,2.5898408203125,-0.0012374999932944775,0.005087499972432852,0.017875000834465027
1772384385861898000,2.60989794921875,-0.002337499987334013,0.006187499966472387,0.017875000834465027
1772384385881955300,2.629955322265625,-0.002337499987334013,0.005087499972432852,0.017875000834465027
1772384385902012700,2.6500126953125,-0.002337499987334013,0.007287499960511923,0.017875000834465027
1772384385922069800,2.67006982421875,-0.0012374999932944775,0.006187499966472387,0.01691249944269657
1772384385942127000,2.690127197265625,-0.0012374999932944775,0.007287499960511923,0.017875000834465027
1772384385962184200,2.71018408203125,-0.002337499987334013,0.007287499960511923,0.017875000834465027
1772384385982241500,2.730241455078125,-0.0012374999932944775,0.006187499966472387,0.018975000828504562
1772384386002298600,2.750298583984375,-0.002337499987334013,0.006187499966472387,0.018975000828504562
1772384386022356200,2.770356201171875,-0.0034374999813735485,0.005087499972432852,0.01691249944269657
1772384386042413300,2.790413330078125,-0.0034374999813735485,0.005087499972432852,0.01691249944269657
1772384386062470400,2.810470458984375,-0.002337499987334013,0.006187499966472387,0.01691249944269657
1772384386082527500,2.830527587890625,-0.002337499987334013,0.005087499972432852,0.01691249944269657
1772384386102584800,2.850584716796875,-0.0012374999932944775,0.005087499972432852,0.01691249944269657
1772384386122642200,2.87064208984375,-0.002337499987334013,0.005087499972432852,0.017875000834465027
1772384386142699500,2.890699462890625,-0.002337499987334013,0.005087499972432852,0.017875000834465027
1772384386162756600,2.910756591796875,-0.002337499987334013,0.006187499966472387,0.017875000834465027
1772384386182814000,2.93081396484375,-0.002337499987334013,0.006187499966472387,0.017875000834465027
1772384386202871000,2.95087109375,-0.002337499987334013,0.005087499972432852,0.017875000834465027
1772384386222928400,2.970928466796875,-0.002337499987334013,0.006187499966472387,0.018975000828504562
1772384386242985700,2.99098583984375,-0.0034374999813735485,0.005087499972432852,0.017875000834465027
1772384386263042800,3.011042724609375,-0.002337499987334013,0.005087499972432852,0.017875000834465027
1772384386283100200,3.03110009765625,-0.002337499987334013,0.006187499966472387,0.01691249944269657
1772384386303157200,3.0511572265625,-0.002337499987334013,0.006187499966472387,0.017875000834465027
1772384386323214600,3.071214599609375,-0.002337499987334013,0.006187499966472387,0.017875000834465027
1772384386343272000,3.09127197265625,-0.002337499987334013,0.007287499960511923,0.017875000834465027
1772384386363329000,3.1113291015625,-0.002337499987334013,0.006187499966472387,0.018975000828504562
1772384386383386400,3.131386474609375,-0.002337499987334013,0.006187499966472387,0.017875000834465027
1772384386403443500,3.151443359375,-0.002337499987334013,0.006187499966472387,0.017875000834465027
1772384386423500800,3.171500732421875,-0.002337499987334013,0.006187499966472387,0.017875000834465027
1772384386443558000,3.191557861328125,-0.002337499987334013,0.006187499966472387,0.017875000834465027
1772384386463615200,3.211615234375,-0.002337499987334013,0.006187499966472387,0.017875000834465027
1772384386483672600,3.231672607421875,-0.002337499987334013,0.006187499966472387,0.018975000828504562
1772384386503729700,3.251729736328125,-0.002337499987334013,0.006187499966472387,0.017875000834465027
1772384386523787000,3.271787109375,-0.002337499987334013,0.006187499966472387,0.01691249944269657
1772384386543844000,3.291843994140625,-0.002337499987334013,0.006187499966472387,0.018975000828504562
1772384386563901400,3.3119013671875,-0.002337499987334013,0.006187499966472387,0.017875000834465027
1772384386583958500,3.33195849609375,-0.002337499987334013,0.006187499966472387,0.01691249944269657
1772384386604015900,3.352015869140625,-0.002337499987334013,0.005087499972432852,0.01691249944269657
1772384386624073200,3.3720732421875,-0.0012374999932944775,0.006187499966472387,0.01691249944269657
1772384386644130300,3.39213037109375,-0.002337499987334013,0.006187499966472387,0.01691249944269657
1772384386664187600,3.412187744140625,-0.002337499987334013,0.005087499972432852,0.01691249944269657
1772384386684244700,3.43224462890625,-0.002337499987334013,0.007287499960511923,0.017875000834465027
1772384386704302000,3.452302001953125,-0.002337499987334013,0.006187499966472387,0.017875000834465027
1772384386724359200,3.472359130859375,-0.0012374999932944775,0.006187499966472387,0.01691249944269657
1772384386744416500,3.49241650390625,-0.0012374999932944775,0.005087499972432852,0.017875000834465027
1772384386764473600,3.5124736328125,-0.0034374999813735485,0.006187499966472387,0.018975000828504562
1772384386784531000,3.532531005859375,-0.002337499987334013,0.005087499972432852,0.017875000834465027
1772384386804588000,3.552588134765625,-0.002337499987334013,0.006187499966472387,0.017875000834465027
1772384386824645400,3.572645263671875,-0.002337499987334013,0.006187499966472387,0.017875000834465027
1772384386844702500,3.592702392578125,-0.0034374999813735485,0.006187499966472387,0.017875000834465027
1772384386864759800,3.612759765625,-0.002337499987334013,0.005087499972432852,0.018975000828504562
1772384386884817000,3.63281689453125,-0.002337499987334013,0.006187499966472387,0.017875000834465027
1772384386904874000,3.6528740234375,-0.0012374999932944775,0.005087499972432852,0.017875000834465027
1772384386924931300,3.672931396484375,-0.002337499987334013,0.007287499960511923,0.017875000834465027
1772384386944988400,3.692988525390625,-0.002337499987334013,0.006187499966472387,0.017875000834465027
1772384386965045800,3.713045654296875,-0.0012374999932944775,0.006187499966472387,0.017875000834465027
1772384386985102800,3.733102783203125,-0.002337499987334013,0.006187499966472387,0.017875000834465027
1772384387005160200,3.75316015625,-0.0034374999813735485,0.006187499966472387,0.017875000834465027
1772384387025217500,3.773217529296875,-0.002337499987334013,0.005087499972432852,0.018975000828504562
1772384387045274600,3.793274658203125,-0.0012374999932944775,0.005087499972432852,0.017875000834465027
1772384387065332000,3.81333203125,-0.002337499987334013,0.006187499966472387,0.017875000834465027
1772384387085389000,3.83338916015625,-0.0034374999813735485,0.006187499966472387,0.017875000834465027
1772384387105446400,3.8534462890625,-0.0012374999932944775,0.006187499966472387,0.018975000828504562
1772384387125503700,3.873503662109375,-0.0034374999813735485,0.003987499978393316,0.017875000834465027
1772384387145560800,3.893560791015625,-0.002337499987334013,0.006187499966472387,0.017875000834465027
1772384387165618000,3.913617919921875,-0.002337499987334013,0.005087499972432852,0.017875000834465027
1772384387185675300,3.93367529296875,-0.0034374999813735485,0.006187499966472387,0.01691249944269657
1772384387205732400,3.953732421875,-0.0034374999813735485,0.005087499972432852,0.017875000834465027
1772384387225789700,3.973789794921875,-0.0012374999932944775,0.006187499966472387,0.01691249944269657
1772384387245846800,3.9938466796875,-0.0012374999932944775,0.006187499966472387,0.017875000834465027
1772384387265904000,4.013904052734375,-0.002337499987334013,0.006187499966472387,0.018975000828504562
1772384387285961200,4.033961181640625,-0.002337499987334013,0.006187499966472387,0.017875000834465027
1772384387306018300,4.054018310546875,-0.002337499987334013,0.006187499966472387,0.018975000828504562
1772384387326075600,4.07407568359375,-0.002337499987334013,0.006187499966472387,0.017875000834465027
1772384387346132700,4.0941328125,-0.0012374999932944775,0.003987499978393316,0.017875000834465027
1772384387366190000,4.114190185546875,-0.0012374999932944775,0.006187499966472387,0.017875000834465027
1772384387386247200,4.1342470703125,-0.002337499987334013,0.006187499966472387,0.017875000834465027
1772384387406304500,4.154304443359375,-0.0012374999932944775,0.005087499972432852,0.017875000834465027
1772384387426361600,4.174361572265625,-0.0012374999932944775,0.006187499966472387,0.017875000834465027
1772384387446419000,4.1944189453125,-0.0012374999932944775,0.006187499966472387,0.017875000834465027
1772384387466476000,4.21447607421875,-0.0012374999932944775,0.006187499966472387,0.017875000834465027
1772384387486533400,4.234533447265625,-0.002337499987334013,0.006187499966472387,0.017875000834465027
1772384387506590700,4.2545908203125,-0.002337499987334013,0.006187499966472387,0.017875000834465027
1772384387526647800,4.274647705078125,-0.002337499987334013,0.006187499966472387,0.017875000834465027
1772384387546705200,4.294705078125,-0.002337499987334013,0.005087499972432852,0.01691249944269657
1772384387566762000,4.314761962890625,-0.0034374999813735485,0.006187499966472387,0.017875000834465027
1772384387586819300,4.3348193359375,-0.002337499987334013,0.006187499966472387,0.01691249944269657
1772384387606876400,4.35487646484375,-0.0012374999932944775,0.006187499966472387,0.017875000834465027
1772384387626933800,4.374933837890625,-0.002337499987334013,0.005087499972432852,0.017875000834465027
1772384387646991000,4.3949912109375,-0.002337499987334013,0.006187499966472387,0.01691249944269657
1772384387667048200,4.415048095703125,-0.002337499987334013,0.005087499972432852,0.017875000834465027
1772384387687105500,4.43510546875,-0.0012374999932944775,0.006187499966472387,0.017875000834465027
1772384387707162600,4.45516259765625,-0.0012374999932944775,0.007287499960511923,0.017875000834465027
1772384387727220000,4.475219970703125,-0.002337499987334013,0.006187499966472387,0.017875000834465027
1772384387747277000,4.495277099609375,-0.002337499987334013,0.006187499966472387,0.017875000834465027
1772384387767334400,4.51533447265625,-0.002337499987334013,0.006187499966472387,0.017875000834465027
1772384387787391500,4.5353916015625,-0.002337499987334013,0.006187499966472387,0.017875000834465027
1772384387807448600,4.555448486328125,-0.002337499987334013,0.006187499966472387,0.017875000834465027
1772384387827506000,4.575505859375,-0.0012374999932944775,0.006187499966472387,0.017875000834465027
1772384387847563000,4.59556298828125,-0.0034374999813735485,0.006187499966472387,0.017875000834465027
1772384387867620400,4.615620361328125,-0.002337499987334013,0.005087499972432852,0.017875000834465027
1772384387887677400,4.635677490234375,-0.0012374999932944775,0.006187499966472387,0.017875000834465027
1772384387907734800,4.65573486328125,-0.002337499987334013,0.006187499966472387,0.017875000834465027
1772384387927791900,4.6757919921875,-0.002337499987334013,0.005087499972432852,0.017875000834465027
1772384387947849200,4.69584912109375,-0.0012374999932944775,0.005087499972432852,0.017875000834465027
1772384387967906300,4.71590625,-0.0012374999932944775,0.007287499960511923,0.017875000834465027
1772384387987963400,4.73596337890625,-0.002337499987334013,0.005087499972432852,0.017875000834465027
1772384388008020500,4.7560205078125,-0.0012374999932944775,0.006187499966472387,0.017875000834465027
1772384388028077800,4.776077880859375,-0.002337499987334013,0.006187499966472387,0.017875000834465027
1772384388048135000,4.796135009765625,-0.002337499987334013,0.006187499966472387,0.017875000834465027
1772384388068192300,4.816192138671875,-0.0012374999932944775,0.005087499972432852,0.017875000834465027
1772384388088249300,4.836249267578125,-0.0012374999932944775,0.006187499966472387,0.017875000834465027
1772384388108306700,4.856306640625,-0.002337499987334013,0.005087499972432852,0.01691249944269657
1772384388128363800,4.87636376953125,-0.002337499987334013,0.005087499972432852,0.017875000834465027
1772384388148420900,4.8964208984375,-0.0034374999813735485,0.006187499966472387,0.017875000834465027
1772384388168478000,4.91647802734375,-0.0034374999813735485,0.006187499966472387,0.01691249944269657
1772384388188535300,4.936535400390625,-0.002337499987334013,0.006187499966472387,0.017875000834465027
1772384388208592400,4.95659228515625,-0.002337499987334013,0.006187499966472387,0.017875000834465027
1772384388228649700,4.976649658203125,-0.002337499987334013,0.005087499972432852,0.017875000834465027
1772384388248706800,4.996706787109375,-0.002337499987334013,0.006187499966472387,0.017875000834465027
1772384388268764200,5.01676416015625,-0.002337499987334013,0.007287499960511923,0.017875000834465027
1772384388288821200,5.0368212890625,-0.002337499987334013,0.006187499966472387,0.017875000834465027
1772384388308878600,5.056878662109375,-0.0012374999932944775,0.005087499972432852,0.017875000834465027
1772384388328935700,5.076935791015625,-0.002337499987334013,0.006187499966472387,0.017875000834465027
1772384388348992800,5.09699267578125,-0.002337499987334013,0.006187499966472387,0.01691249944269657
1772384388369050000,5.117050048828125,-0.0034374999813735485,0.007287499960511923,0.017875000834465027
1772384388389107200,5.137107177734375,-0.002337499987334013,0.006187499966472387,0.01691249944269657
1772384388409164500,5.15716455078125,-0.0034374999813735485,0.006187499966472387,0.017875000834465027
1772384388429221600,5.1772216796875,-0.002337499987334013,0.006187499966472387,0.017875000834465027
1772384388449279000,5.197279052734375,-0.0012374999932944775,0.006187499966472387,0.017875000834465027
1772384388469336000,5.217336181640625,-0.002337499987334013,0.006187499966472387,0.017875000834465027
1772384388489393200,5.23739306640625,-0.0034374999813735485,0.006187499966472387,0.017875000834465027
1772384388509450500,5.257450439453125,-0.002337499987334013,0.006187499966472387,0.017875000834465027
1772384388529507600,5.277507568359375,-0.0012374999932944775,0.005087499972432852,0.017875000834465027
1772384388549565000,5.29756494140625,-0.002337499987334013,0.006187499966472387,0.01691249944269657
1772384388569622000,5.3176220703125,-0.0034374999813735485,0.006187499966472387,0.017875000834465027
1772384388589679000,5.33767919921875,-0.002337499987334013,0.005087499972432852,0.017875000834465027
1772384388609736200,5.357736083984375,-0.0012374999932944775,0.006187499966472387,0.017875000834465027
1772384388629793500,5.37779345703125,-0.002337499987334013,0.006187499966472387,0.017875000834465027
1772384388649850600,5.3978505859375,-0.002337499987334013,0.005087499972432852,0.017875000834465027
1772384388669907700,5.41790771484375,-0.002337499987334013,0.006187499966472387,0.017875000834465027
1772384388689965000,5.437965087890625,-0.002337499987334013,0.006187499966472387,0.017875000834465027
1772384388710022100,5.458022216796875,-0.0034374999813735485,0.006187499966472387,0.017875000834465027
1772384388730079200,5.478079345703125,-0.0012374999932944775,0.006187499966472387,0.01691249944269657
1772384388750136600,5.498136474609375,-0.002337499987334013,0.006187499966472387,0.017875000834465027
1772384388770193700,5.518193603515625,-0.002337499987334013,0.006187499966472387,0.01691249944269657
1772384388790251000,5.5382509765625,-0.002337499987334013,0.006187499966472387,0.017875000834465027
1772384388810308000,5.55830810546875,-0.002337499987334013,0.006187499966472387,0.017875000834465027
1772384388830365400,5.578365478515625,-0.002337499987334013,0.005087499972432852,0.017875000834465027
1772384388850422300,5.59842236328125,-0.002337499987334013,0.006187499966472387,0.017875000834465027
1772384388870479600,5.618479736328125,-0.002337499987334013,0.006187499966472387,0.017875000834465027
1772384388890537000,5.638536865234375,-0.002337499987334013,0.005087499972432852,0.017875000834465027
1772384388910594000,5.658593994140625,-0.0012374999932944775,0.005087499972432852,0.017875000834465027
1772384388930651100,5.678651123046875,-0.0034374999813735485,0.006187499966472387,0.017875000834465027
1772384388950708500,5.69870849609375,-0.0034374999813735485,0.006187499966472387,0.01691249944269657
1772384388970765600,5.718765625,-0.002337499987334013,0.005087499972432852,0.017875000834465027
1772384388990822700,5.73882275390625,-0.0012374999932944775,0.005087499972432852,0.01691249944269657
1772384389010880000,5.7588798828125,-0.0012374999932944775,0.006187499966472387,0.017875000834465027
1772384389030937000,5.77893701171875,-0.002337499987334013,0.006187499966472387,0.017875000834465027
1772384389050994200,5.798994140625,-0.002337499987334013,0.006187499966472387,0.017875000834465027
1772384389071051500,5.819051513671875,-0.002337499987334013,0.006187499966472387,0.017875000834465027
1772384389091108600,5.839108642578125,-0.002337499987334013,0.006187499966472387,0.017875000834465027
1772384389111165700,5.859165771484375,-0.002337499987334013,0.006187499966472387,0.018975000828504562
1772384389131223000,5.87922314453125,-0.002337499987334013,0.006187499966472387,0.018975000828504562
1772384389151280000,5.899280029296875,-0.002337499987334013,0.006187499966472387,0.017875000834465027
1772384389171337500,5.91933740234375,-0.002337499987334013,0.006187499966472387,0.01691249944269657
1772384389191394600,5.93939453125,-0.0012374999932944775,0.006187499966472387,0.018975000828504562
1772384389211452000,5.959451904296875,-0.002337499987334013,0.006187499966472387,0.017875000834465027
1772384389231508700,5.9795087890625,-0.002337499987334013,0.006187499966472387,0.018975000828504562
1772384389251566000,5.999566162109375,-0.002337499987334013,0.005087499972432852,0.01691249944269657
1772384389271623200,6.019623046875,-0.002337499987334013,0.006187499966472387,0.01691249944269657
1772384389291680500,6.039680419921875,-0.0034374999813735485,0.005087499972432852,0.01691249944269657
1772384389311737600,6.059737548828125,-0.002337499987334013,0.006187499966472387,0.018975000828504562
1772384389331794700,6.079794677734375,-0.0034374999813735485,0.005087499972432852,0.017875000834465027
1772384389351852000,6.09985205078125,-0.002337499987334013,0.006187499966472387,0.017875000834465027
1772384389371909000,6.1199091796875,-0.002337499987334013,0.006187499966472387,0.017875000834465027
1772384389391966200,6.13996630859375,-0.002337499987334013,0.006187499966472387,0.017875000834465027
1772384389412023300,6.160023193359375,-0.0012374999932944775,0.006187499966472387,0.017875000834465027
1772384389432080600,6.18008056640625,-0.002337499987334013,0.006187499966472387,0.018975000828504562
1772384389452137700,6.2001376953125,-0.002337499987334013,0.005087499972432852,0.018975000828504562
1772384389472195000,6.220195068359375,-0.002337499987334013,0.006187499966472387,0.01691249944269657
1772384389492252200,6.240252197265625,-0.002337499987334013,0.006187499966472387,0.017875000834465027
1772384389512309500,6.2603095703125,-0.0034374999813735485,0.006187499966472387,0.017875000834465027
1772384389532366300,6.280366455078125,-0.0034374999813735485,0.006187499966472387,0.017875000834465027
1772384389552423700,6.300423583984375,-0.0012374999932944775,0.006187499966472387,0.01691249944269657
1772384389572480800,6.320480712890625,-0.002337499987334013,0.007287499960511923,0.017875000834465027
1772384389592538000,6.3405380859375,-0.002337499987334013,0.006187499966472387,0.017875000834465027
1772384389612595200,6.36059521484375,-0.0012374999932944775,0.006187499966472387,0.017875000834465027
1772384389632652300,6.38065234375,-0.002337499987334013,0.006187499966472387,0.017875000834465027
1772384389652709600,6.400709716796875,-0.002337499987334013,0.007287499960511923,0.017875000834465027
1772384389672766700,6.4207666015625,-0.0012374999932944775,0.006187499966472387,0.01691249944269657
1772384389692823800,6.44082373046875,-0.002337499987334013,0.006187499966472387,0.017875000834465027
1772384389712881200,6.460881103515625,-0.0034374999813735485,0.006187499966472387,0.017875000834465027
1772384389732938200,6.480938232421875,-0.002337499987334013,0.006187499966472387,0.017875000834465027
1772384389752995300,6.500995361328125,-0.002337499987334013,0.006187499966472387,0.017875000834465027
1772384389773052700,6.521052734375,-0.0034374999813735485,0.005087499972432852,0.017875000834465027
1772384389793109800,6.54110986328125,-0.002337499987334013,0.006187499966472387,0.017875000834465027
1772384389813167000,6.5611669921875,-0.0012374999932944775,0.006187499966472387,0.018975000828504562
1772384389833224000,6.581223876953125,-0.0012374999932944775,0.006187499966472387,0.017875000834465027
1772384389853281300,6.60128125,-0.002337499987334013,0.006187499966472387,0.017875000834465027
1772384389873338600,6.621338623046875,-0.002337499987334013,0.006187499966472387,0.017875000834465027
1772384389893395700,6.641395751953125,-0.002337499987334013,0.006187499966472387,0.017875000834465027
1772384389913452800,6.661452880859375,-0.002337499987334013,0.006187499966472387,0.017875000834465027
1772384389933510000,6.681510009765625,-0.002337499987334013,0.006187499966472387,0.017875000834465027
1772384389953567200,6.701567138671875,-0.002337499987334013,0.006187499966472387,0.017875000834465027
1772384389973624300,6.721624267578125,-0.002337499987334013,0.006187499966472387,0.017875000834465027
1772384389993681400,6.741681396484375,-0.0012374999932944775,0.006187499966472387,0.017875000834465027
1772384390013738800,6.76173876953125,-0.002337499987334013,0.006187499966472387,0.017875000834465027
1772384390033795800,6.7817958984375,-0.002337499987334013,0.006187499966472387,0.017875000834465027
1772384390053853000,6.80185302734375,-0.002337499987334013,0.006187499966472387,0.017875000834465027
1772384390073910000,6.821909912109375,-0.0034374999813735485,0.005087499972432852,0.017875000834465027
1772384390093967400,6.84196728515625,-0.002337499987334013,0.006187499966472387,0.01691249944269657
1772384390114024400,6.8620244140625,-0.002337499987334013,0.005087499972432852,0.017875000834465027
1772384390134081800,6.882081787109375,-0.002337499987334013,0.006187499966472387,0.017875000834465027
1772384390154138600,6.902138671875,-0.002337499987334013,0.006187499966472387,0.017875000834465027
1772384390174196000,6.922196044921875,-0.0012374999932944775,0.006187499966472387,0.018975000828504562
1772384390194253000,6.942253173828125,-0.002337499987334013,0.006187499966472387,0.017875000834465027
1772384390214310100,6.96231005859375,-0.0034374999813735485,0.006187499966472387,0.017875000834465027
1772384390234367500,6.982367431640625,-0.002337499987334013,0.006187499966472387,0.01691249944269657
1772384390254424600,7.002424560546875,-0.002337499987334013,0.006187499966472387,0.017875000834465027
1772384390274481700,7.022481689453125,-0.002337499987334013,0.007287499960511923,0.017875000834465027
1772384390294538800,7.042538818359375,-0.002337499987334013,0.006187499966472387,0.017875000834465027
1772384390314595800,7.062595947265625,-0.002337499987334013,0.006187499966472387,0.017875000834465027
1772384390334653400,7.0826533203125,-0.002337499987334013,0.006187499966472387,0.01691249944269657
1772384390354710300,7.102710205078125,-0.002337499987334013,0.005087499972432852,0.01691249944269657
1772384390374767600,7.122767578125,-0.002337499987334013,0.006187499966472387,0.017875000834465027
1772384390394824700,7.14282470703125,-0.0012374999932944775,0.005087499972432852,0.01691249944269657
1772384390414881800,7.1628818359375,-0.002337499987334013,0.006187499966472387,0.017875000834465027
1772384390434939000,7.18293896484375,-0.0034374999813735485,0.006187499966472387,0.01691249944269657
1772384390454996200,7.202996337890625,-0.0012374999932944775,0.006187499966472387,0.017875000834465027
1772384390475053300,7.22305322265625,-0.0012374999932944775,0.006187499966472387,0.017875000834465027
1772384390495110700,7.243110595703125,-0.002337499987334013,0.005087499972432852,0.017875000834465027
1772384390515167700,7.263167724609375,-0.002337499987334013,0.005087499972432852,0.017875000834465027
1772384390535224800,7.283224853515625,-0.002337499987334013,0.006187499966472387,0.018975000828504562
1772384390555282000,7.303281982421875,-0.002337499987334013,0.005087499972432852,0.017875000834465027
1772384390575339300,7.32333935546875,-0.0034374999813735485,0.005087499972432852,0.018975000828504562
1772384390595396400,7.343396240234375,-0.002337499987334013,0.005087499972432852,0.017875000834465027
1772384390615453700,7.36345361328125,-0.002337499987334013,0.006187499966472387,0.017875000834465027
1772384390635510800,7.3835107421875,-0.002337499987334013,0.006187499966472387,0.01691249944269657
1772384390655568000,7.40356787109375,-0.002337499987334013,0.005087499972432852,0.01691249944269657
1772384390675625000,7.423625,-0.0012374999932944775,0.006187499966472387,0.01691249944269657
1772384390695682300,7.443682373046875,-0.002337499987334013,0.005087499972432852,0.017875000834465027
1772384390715739400,7.463739501953125,-0.0012374999932944775,0.006187499966472387,0.017875000834465027
1772384390735796500,7.48379638671875,-0.0034374999813735485,0.006187499966472387,0.017875000834465027
1772384390755853800,7.503853759765625,-0.002337499987334013,0.005087499972432852,0.01691249944269657
1772384390775911000,7.523910888671875,-0.002337499987334013,0.006187499966472387,0.017875000834465027
1772384390795968300,7.54396826171875,-0.002337499987334013,0.006187499966472387,0.017875000834465027
1772384390816025000,7.564025146484375,-0.002337499987334013,0.006187499966472387,0.017875000834465027
1772384390836082400,7.58408251953125,-0.002337499987334013,0.006187499966472387,0.017875000834465027
1772384390856139800,7.604139892578125,-0.002337499987334013,0.007287499960511923,0.017875000834465027
1772384390876196900,7.62419677734375,-0.002337499987334013,0.007287499960511923,0.017875000834465027
1772384390896254000,7.64425390625,-0.002337499987334013,0.006187499966472387,0.017875000834465027
1772384390916311000,7.66431103515625,-0.0034374999813735485,0.006187499966472387,0.017875000834465027
1772384390936368400,7.684368408203125,-0.002337499987334013,0.006187499966472387,0.017875000834465027
1772384390956425500,7.704425537109375,-0.0034374999813735485,0.006187499966472387,0.017875000834465027
1772384390976482800,7.72448291015625,-0.002337499987334013,0.006187499966472387,0.01691249944269657
1772384390996539600,7.74453955078125,-0.002337499987334013,0.006187499966472387,0.017875000834465027
1772384391016597000,7.764596923828125,-0.0034374999813735485,0.005087499972432852,0.017875000834465027
1772384391036654000,7.784654052734375,-0.002337499987334013,0.006187499966472387,0.017875000834465027
1772384391056711400,7.80471142578125,-0.002337499987334013,0.006187499966472387,0.018975000828504562
1772384391076768500,7.8247685546875,-0.002337499987334013,0.005087499972432852,0.01691249944269657
1772384391096825600,7.84482568359375,-0.002337499987334013,0.006187499966472387,0.017875000834465027
1772384391116882700,7.864882568359375,-0.002337499987334013,0.007287499960511923,0.018975000828504562
1772384391136940000,7.88493994140625,-0.002337499987334013,0.006187499966472387,0.017875000834465027
1772384391156997000,7.9049970703125,-0.002337499987334013,0.006187499966472387,0.018975000828504562
1772384391177054200,7.92505419921875,-0.0034374999813735485,0.006187499966472387,0.017875000834465027
1772384391197111300,7.945111328125,-0.002337499987334013,0.006187499966472387,0.01691249944269657
1772384391217168600,7.965168701171875,-0.002337499987334013,0.006187499966472387,0.017875000834465027
1772384391237225700,7.985225830078125,-0.002337499987334013,0.005087499972432852,0.017875000834465027
1772384391257283000,8.005282958984376,-0.002337499987334013,0.005087499972432852,0.017875000834465027
1772384391277340000,8.02533984375,-0.0012374999932944775,0.006187499966472387,0.017875000834465027
1772384391297397200,8.045397216796875,-0.002337499987334013,0.006187499966472387,0.017875000834465027
1772384391317454300,8.065454345703126,-0.002337499987334013,0.005087499972432852,0.017875000834465027
1772384391337511700,8.08551171875,-0.0012374999932944775,0.006187499966472387,0.017875000834465027
1772384391357568500,8.105568603515625,-0.002337499987334013,0.006187499966472387,0.01691249944269657
1772384391377625900,8.1256259765625,-0.002337499987334013,0.006187499966472387,0.01691249944269657
1772384391397683000,8.145682861328124,-0.002337499987334013,0.006187499966472387,0.01691249944269657
1772384391417740300,8.165740234375,-0.0034374999813735485,0.006187499966472387,0.018975000828504562
1772384391437797400,8.18579736328125,-0.0034374999813735485,0.005087499972432852,0.017875000834465027
1772384391457854500,8.2058544921875,-0.002337499987334013,0.006187499966472387,0.01691249944269657
1772384391477911600,8.22591162109375,-0.002337499987334013,0.006187499966472387,0.018975000828504562
1772384391497969000,8.245968994140625,-0.0012374999932944775,0.006187499966472387,0.017875000834465027
1772384391518026000,8.26602587890625,-0.002337499987334013,0.006187499966472387,0.017875000834465027
1772384391538083000,8.2860830078125,-0.002337499987334013,0.006187499966472387,0.017875000834465027
1772384391558140200,8.30614013671875,-0.002337499987334013,0.006187499966472387,0.018975000828504562
1772384391578197500,8.326197509765626,-0.0034374999813735485,0.006187499966472387,0.018975000828504562
1772384391598254600,8.346254638671875,-0.0012374999932944775,0.005087499972432852,0.017875000834465027
1772384391618311700,8.366311767578125,-0.0034374999813735485,0.005087499972432852,0.01691249944269657
1772384391638368800,8.38636865234375,-0.002337499987334013,0.006187499966472387,0.017875000834465027
1772384391658426000,8.406426025390624,-0.002337499987334013,0.006187499966472387,0.017875000834465027
1772384391678483200,8.426483154296875,-0.002337499987334013,0.005087499972432852,0.017875000834465027
1772384391698540500,8.44654052734375,-0.002337499987334013,0.006187499966472387,0.017875000834465027
1772384391718597400,8.466597412109374,-0.002337499987334013,0.006187499966472387,0.017875000834465027
1772384391738654700,8.48665478515625,-0.0034374999813735485,0.006187499966472387,0.017875000834465027
1772384391758711800,8.5067119140625,-0.002337499987334013,0.006187499966472387,0.01691249944269657
1772384391778769200,8.52676904296875,-0.002337499987334013,0.006187499966472387,0.01691249944269657
1772384391798826200,8.546826171875,-0.002337499987334013,0.006187499966472387,0.01691249944269657
1772384391818883300,8.56688330078125,-0.0012374999932944775,0.006187499966472387,0.017875000834465027
1772384391838940400,8.5869404296875,-0.002337499987334013,0.006187499966472387,0.01691249944269657
1772384391858997800,8.606997802734375,-0.002337499987334013,0.006187499966472387,0.017875000834465027
1772384391879054800,8.627054931640625,-0.002337499987334013,0.006187499966472387,0.017875000834465027
1772384391899112000,8.64711181640625,-0.002337499987334013,0.006187499966472387,0.017875000834465027
1772384391919169000,8.6671689453125,-0.002337499987334013,0.005087499972432852,0.017875000834465027
1772384391939226400,8.687226318359375,-0.0012374999932944775,0.007287499960511923,0.017875000834465027
1772384391959283500,8.707283447265626,-0.0034374999813735485,0.006187499966472387,0.017875000834465027
1772384391979340500,8.727340576171875,-0.002337499987334013,0.006187499966472387,0.01691249944269657
1772384391999398000,8.74739794921875,-0.0034374999813735485,0.007287499960511923,0.017875000834465027
1772384392019455000,8.767455078125,-0.0034374999813735485,0.006187499966472387,0.017875000834465027
1772384392039512000,8.787511962890624,-0.0034374999813735485,0.005087499972432852,0.018975000828504562
1772384392059569200,8.807569091796875,-0.002337499987334013,0.006187499966472387,0.01691249944269657
1772384392079626200,8.827626220703126,-0.002337499987334013,0.006187499966472387,0.01691249944269657
1772384392099683600,8.84768359375,-0.002337499987334013,0.007287499960511923,0.01691249944269657
1772384392119740700,8.86774072265625,-0.0034374999813735485,0.007287499960511923,0.01691249944269657
1772384392139797800,8.8877978515625,-0.0012374999932944775,0.006187499966472387,0.01691249944269657
1772384392159854800,8.907854736328124,-0.0012374999932944775,0.006187499966472387,0.017875000834465027
1772384392179912200,8.927912109375,-0.0012374999932944775,0.006187499966472387,0.017875000834465027
1772384392199969300,8.94796923828125,-0.0012374999932944775,0.007287499960511923,0.018975000828504562
1772384392220026400,8.9680263671875,-0.002337499987334013,0.006187499966472387,0.017875000834465027
1772384392240083500,8.98808349609375,-0.002337499987334013,0.006187499966472387,0.017875000834465027
1772384392260140800,9.008140869140625,-0.002337499987334013,0.005087499972432852,0.017875000834465027
1772384392280198000,9.028197998046876,-0.002337499987334013,0.006187499966472387,0.017875000834465027
1772384392300255000,9.0482548828125,-0.002337499987334013,0.006187499966472387,0.017875000834465027
1772384392320312000,9.06831201171875,-0.002337499987334013,0.005087499972432852,0.017875000834465027
1772384392340369400,9.088369384765626,-0.002337499987334013,0.006187499966472387,0.017875000834465027
1772384392360426500,9.108426513671875,-0.0034374999813735485,0.006187499966472387,0.017875000834465027
1772384392380483600,9.128483642578125,-0.002337499987334013,0.005087499972432852,0.017875000834465027
1772384392400540700,9.148540771484376,-0.002337499987334013,0.006187499966472387,0.01691249944269657
1772384392420598000,9.168597900390624,-0.0012374999932944775,0.006187499966472387,0.017875000834465027
1772384392440655000,9.188655029296875,-0.002337499987334013,0.005087499972432852,0.01691249944269657
1772384392460712200,9.208712158203125,-0.0034374999813735485,0.006187499966472387,0.017875000834465027
1772384392480769300,9.228769287109374,-0.0034374999813735485,0.005087499972432852,0.01691249944269657
1772384392500826600,9.24882666015625,-0.002337499987334013,0.006187499966472387,0.01691249944269657
1772384392520883500,9.268883544921875,-0.002337499987334013,0.006187499966472387,0.01691249944269657
1772384392540940800,9.28894091796875,-0.002337499987334013,0.006187499966472387,0.01691249944269657
1772384392560998000,9.308997802734375,-0.002337499987334013,0.006187499966472387,0.017875000834465027
1772384392581055000,9.329054931640625,-0.0012374999932944775,0.005087499972432852,0.017875000834465027
1772384392601112000,9.349112060546876,-0.0012374999932944775,0.006187499966472387,0.017875000834465027
1772384392621169400,9.36916943359375,-0.002337499987334013,0.005087499972432852,0.017875000834465027
1772384392641226500,9.3892265625,-0.0034374999813735485,0.006187499966472387,0.01691249944269657
1772384392661283600,9.40928369140625,-0.0034374999813735485,0.006187499966472387,0.01691249944269657
1772384392681341000,9.4293408203125,-0.0034374999813735485,0.006187499966472387,0.017875000834465027
1772384392701398000,9.44939794921875,-0.0012374999932944775,0.006187499966472387,0.017875000834465027
1772384392721455000,9.469455078125,-0.002337499987334013,0.005087499972432852,0.017875000834465027
1772384392741512200,9.48951220703125,-0.002337499987334013,0.006187499966472387,0.017875000834465027
1772384392761569300,9.5095693359375,-0.0034374999813735485,0.005087499972432852,0.017875000834465027
1772384392781626600,9.529626708984376,-0.002337499987334013,0.006187499966472387,0.017875000834465027
1772384392801683700,9.54968359375,-0.002337499987334013,0.005087499972432852,0.017875000834465027
1772384392821740800,9.56974072265625,-0.002337499987334013,0.005087499972432852,0.018975000828504562
1772384392841798100,9.589798095703125,-0.002337499987334013,0.006187499966472387,0.017875000834465027
1772384392861855200,9.609855224609374,-0.002337499987334013,0.006187499966472387,0.01691249944269657
1772384392881912300,9.629912353515625,-0.002337499987334013,0.005087499972432852,0.017875000834465027
1772384392901969400,9.649969482421875,-0.0012374999932944775,0.006187499966472387,0.01691249944269657
1772384392922026800,9.67002685546875,-0.002337499987334013,0.006187499966472387,0.017875000834465027
1772384392942083800,9.690083740234375,-0.002337499987334013,0.007287499960511923,0.01691249944269657
1772384392962141000,9.710140869140625,-0.0034374999813735485,0.006187499966472387,0.017875000834465027
1772384392982198000,9.730197998046876,-0.002337499987334013,0.005087499972432852,0.017875000834465027
1772384393002255400,9.75025537109375,-0.002337499987334013,0.006187499966472387,0.017875000834465027
1772384393022312200,9.770312255859375,-0.0034374999813735485,0.006187499966472387,0.017875000834465027
1772384393042369500,9.79036962890625,-0.0034374999813735485,0.006187499966472387,0.017875000834465027
1772384393062426600,9.810426513671874,-0.0012374999932944775,0.006187499966472387,0.017875000834465027
1772384393082483700,9.830483642578125,-0.002337499987334013,0.006187499966472387,0.01691249944269657
1772384393102540800,9.850540771484376,-0.0012374999932944775,0.006187499966472387,0.017875000834465027
1772384393122598100,9.87059814453125,-0.002337499987334013,0.006187499966472387,0.017875000834465027
1772384393142655200,9.8906552734375,-0.0034374999813735485,0.005087499972432852,0.01691249944269657
1772384393162712300,9.91071240234375,-0.002337499987334013,0.006187499966472387,0.017875000834465027
1772384393182769400,9.930769287109374,-0.002337499987334013,0.005087499972432852,0.017875000834465027
1772384393202826800,9.95082666015625,-0.0034374999813735485,0.006187499966472387,0.017875000834465027
1772384393222883600,9.970883544921875,-0.002337499987334013,0.006187499966472387,0.017875000834465027
1772384393242941000,9.99094091796875,-0.0012374999932944775,0.006187499966472387,0.01691249944269657
1772384393262998000,10.010998046875,-0.0034374999813735485,0.007287499960511923,0.017875000834465027
1772384393283055000,10.03105517578125,-0.002337499987334013,0.005087499972432852,0.018975000828504562
1772384393303112200,10.0511123046875,-0.0034374999813735485,0.006187499966472387,0.017875000834465027
1772384393323169500,10.07116943359375,-0.0012374999932944775,0.006187499966472387,0.017875000834465027
1772384393343226600,10.0912265625,-0.002337499987334013,0.006187499966472387,0.017875000834465027
1772384393363283700,10.11128369140625,-0.0012374999932944775,0.006187499966472387,0.017875000834465027
1772384393383340800,10.1313408203125,-0.0012374999932944775,0.005087499972432852,0.017875000834465027
1772384393403398100,10.151398193359375,-0.002337499987334013,0.005087499972432852,0.017875000834465027
1772384393423455000,10.171455078125,-0.0034374999813735485,0.006187499966472387,0.01691249944269657
1772384393443512300,10.19151220703125,-0.002337499987334013,0.006187499966472387,0.017875000834465027
1772384393463569400,10.2115693359375,-0.0012374999932944775,0.006187499966472387,0.01691249944269657
1772384393483626200,10.231626220703125,-0.0012374999932944775,0.005087499972432852,0.017875000834465027
1772384393503683600,10.25168359375,-0.002337499987334013,0.005087499972432852,0.017875000834465027
1772384393523740700,10.27174072265625,-0.002337499987334013,0.005087499972432852,0.017875000834465027
1772384393543797800,10.2917978515625,-0.002337499987334013,0.005087499972432852,0.01691249944269657
1772384393563854800,10.311854736328126,-0.0012374999932944775,0.005087499972432852,0.017875000834465027
1772384393583912000,10.331911865234375,-0.002337499987334013,0.005087499972432852,0.017875000834465027
1772384393603969000,10.351968994140625,-0.0012374999932944775,0.006187499966472387,0.017875000834465027
1772384393624026400,10.3720263671875,-0.002337499987334013,0.006187499966472387,0.017875000834465027
1772384393644083500,10.39208349609375,-0.0034374999813735485,0.006187499966472387,0.017875000834465027
1772384393664140500,10.412140625,-0.002337499987334013,0.006187499966472387,0.017875000834465027
1772384393684197600,10.43219775390625,-0.002337499987334013,0.006187499966472387,0.017875000834465027
1772384393704254700,10.452254638671874,-0.002337499987334013,0.005087499972432852,0.017875000834465027
1772384393724312000,10.47231201171875,-0.002337499987334013,0.006187499966472387,0.017875000834465027
1772384393744369000,10.492368896484376,-0.002337499987334013,0.006187499966472387,0.01691249944269657
1772384393764426200,10.51242626953125,-0.002337499987334013,0.006187499966472387,0.01691249944269657
1772384393784483300,10.5324833984375,-0.002337499987334013,0.006187499966472387,0.017875000834465027
1772384393804540400,10.55254052734375,-0.0012374999932944775,0.006187499966472387,0.017875000834465027
1772384393824597800,10.57259765625,-0.002337499987334013,0.006187499966472387,0.017875000834465027
1772384393844654600,10.592654541015625,-0.002337499987334013,0.005087499972432852,0.017875000834465027
1772384393864712000,10.6127119140625,-0.0012374999932944775,0.006187499966472387,0.01691249944269657
1772384393884769000,10.63276904296875,-0.0034374999813735485,0.005087499972432852,0.017875000834465027
1772384393904826000,10.652826171875,-0.002337499987334013,0.006187499966472387,0.01691249944269657
1772384393924883200,10.67288330078125,-0.0034374999813735485,0.005087499972432852,0.017875000834465027
1772384393944940500,10.6929404296875,-0.002337499987334013,0.006187499966472387,0.017875000834465027
1772384393964997600,10.71299755859375,-0.002337499987334013,0.006187499966472387,0.017875000834465027
1772384393985054700,10.7330546875,-0.002337499987334013,0.006187499966472387,0.017875000834465027
1772384394005111600,10.753111572265626,-0.002337499987334013,0.005087499972432852,0.017875000834465027
1772384394025169000,10.7731689453125,-0.002337499987334013,0.006187499966472387,0.01691249944269657
1772384394045226000,10.79322607421875,-0.002337499987334013,0.006187499966472387,0.01691249944269657
1772384394065283000,10.813282958984376,-0.002337499987334013,0.006187499966472387,0.01691249944269657
1772384394085340200,10.833340087890624,-0.0034374999813735485,0.006187499966472387,0.01691249944269657
1772384394105397500,10.8533974609375,-0.002337499987334013,0.005087499972432852,0.017875000834465027
1772384394125454300,10.873454345703125,-0.0034374999813735485,0.006187499966472387,0.017875000834465027
1772384394145511400,10.893511474609374,-0.002337499987334013,0.006187499966472387,0.017875000834465027
1772384394165568800,10.91356884765625,-0.0012374999932944775,0.006187499966472387,0.01691249944269657
1772384394185625900,10.9336259765625,-0.002337499987334013,0.006187499966472387,0.017875000834465027
1772384394205683000,10.953682861328126,-0.002337499987334013,0.006187499966472387,0.017875000834465027
1772384394225739800,10.97373974609375,-0.002337499987334013,0.006187499966472387,0.017875000834465027
1772384394245797000,10.993797119140625,-0.002337499987334013,0.005087499972432852,0.017875000834465027
1772384394265854200,11.013854248046876,-0.002337499987334013,0.006187499966472387,0.017875000834465027
1772384394285911300,11.033911376953125,-0.0034374999813735485,0.006187499966472387,0.017875000834465027
1772384394305968400,11.053968505859375,-0.002337499987334013,0.006187499966472387,0.017875000834465027
1772384394326025700,11.074025634765626,-0.002337499987334013,0.006187499966472387,0.017875000834465027
1772384394346082600,11.09408251953125,-0.002337499987334013,0.006187499966472387,0.017875000834465027
1772384394366139600,11.1141396484375,-0.002337499987334013,0.006187499966472387,0.01691249944269657
1772384394386197000,11.134197021484376,-0.0034374999813735485,0.005087499972432852,0.017875000834465027
1772384394406254000,11.154254150390624,-0.0012374999932944775,0.006187499966472387,0.017875000834465027
1772384394426311200,11.174311279296875,-0.002337499987334013,0.005087499972432852,0.017875000834465027
1772384394446368300,11.1943681640625,-0.0012374999932944775,0.005087499972432852,0.018975000828504562
1772384394466425300,11.21442529296875,-0.0034374999813735485,0.005087499972432852,0.020075000822544098
1772384394486482400,11.234482421875,-0.002337499987334013,0.005087499972432852,0.021175000816583633
1772384394506539500,11.25453955078125,-0.002337499987334013,0.006187499966472387,0.021175000816583633
1772384394526596600,11.2745966796875,-0.002337499987334013,0.005087499972432852,0.021175000816583633
1772384394546653700,11.29465380859375,-0.002337499987334013,0.006187499966472387,0.017875000834465027
1772384394566710800,11.314710693359375,-0.00013749999925494194,0.008249999955296516,0.01691249944269657
1772384394586768000,11.334767822265626,-0.0012374999932944775,0.010449999943375587,0.013612499460577965
1772384394606825200,11.3548251953125,-0.00013749999925494194,0.011549999937415123,0.012649999931454659
1772384394626882300,11.37488232421875,-0.00013749999925494194,0.010449999943375587,0.013612499460577965
1772384394646939400,11.394939453125,0.0008249999955296516,0.010449999943375587,0.0147124994546175
1772384394666996500,11.41499658203125,-0.00013749999925494194,0.009349999949336052,0.017875000834465027
1772384394687053600,11.435053466796875,-0.002337499987334013,0.006187499966472387,0.018975000828504562
1772384394707110700,11.455110595703125,-0.0034374999813735485,0.003987499978393316,0.021175000816583633
1772384394727167700,11.475167724609374,-0.0034374999813735485,0.0008249999955296516,0.02213750034570694
1772384394747224800,11.495224853515625,-0.004399999976158142,-0.0002749999985098839,0.023237500339746475
1772384394767282000,11.515281982421875,-0.004399999976158142,-0.004537499975413084,0.02433750033378601
1772384394787339300,11.53533935546875,-0.005499999970197678,-0.005499999970197678,0.021175000816583633
1772384394807396000,11.55539599609375,-0.006599999964237213,-0.004537499975413084,0.017875000834465027
1772384394827453400,11.575453369140625,-0.0034374999813735485,-0.0002749999985098839,0.015812499448657036
1772384394847510300,11.59551025390625,-0.002337499987334013,0.005087499972432852,0.013612499460577965
1772384394867567600,11.615567626953125,-0.002337499987334013,0.007287499960511923,0.012649999931454659
1772384394887624700,11.635624755859375,-0.002337499987334013,0.008249999955296516,0.0147124994546175
1772384394907681800,11.655681884765626,-0.0012374999932944775,0.005087499972432852,0.015812499448657036
1772384394927739000,11.67573876953125,-0.002337499987334013,0.0019249999895691872,0.017875000834465027
1772384394947796000,11.6957958984375,-0.0012374999932944775,0.0019249999895691872,0.021175000816583633
1772384394967853000,11.71585302734375,-0.002337499987334013,0.003987499978393316,0.02213750034570694
1772384394987910100,11.73591015625,-0.002337499987334013,0.018975000828504562,0.04028749838471413
1772384395007967200,11.75596728515625,-0.0034374999813735485,0.009349999949336052,0.06792499870061874
1772384395028024600,11.776024658203125,-0.004399999976158142,0.038087498396635056,0.07644999772310257
1772384395048081700,11.79608154296875,-0.0034374999813735485,0.02956249937415123,0.06366249918937683
1772384395068138800,11.816138671875,-0.002337499987334013,0.0019249999895691872,0.02213750034570694
1772384395088195800,11.83619580078125,-0.00013749999925494194,-0.031075000762939453,-0.07150000333786011
1772384395108253000,11.8562529296875,-0.002337499987334013,-0.015124999918043613,-0.03959999978542328
