time,seconds_elapsed,z,y,x
1772384323484681000,0.196680908203125,-0.8171460032463074,1.492143988609314,3.34696888923645
1772384323504738600,0.216738525390625,1.2022819519042969,0.7361149787902832,2.887974977493286
1772384323524796200,0.236796142578125,0.9466260075569153,0.4064919948577881,0.1975799947977066
1772384323544853800,0.256853759765625,0.6173009872436523,-0.4308060109615326,-1.094735026359558
1772384323564911000,0.2769111328125,0.06663999706506729,0.3233549892902374,-0.8853880167007446
1772384323584969000,0.296968994140625,-6.1234869956970215,1.6530840396881104,3.4620890617370605
1772384323605026600,0.317026611328125,1.2572089433670044,-0.5791320204734802,3.812870979309082
1772384323625084200,0.337084228515625,1.4945670366287231,-0.9145060181617737,0.24869699776172638
1772384323645141500,0.3571416015625,-0.909945011138916,-0.0028039999306201935,-1.0290420055389404
1772384323665199400,0.377199462890625,4.775244235992432,0.6889560222625732,-1.5512330532073975
1772384323685257000,0.397257080078125,1.6481950283050537,0.262364000082016,-1.1161860227584839
1772384323705314600,0.417314453125,-2.5142428874969482,-0.3597080111503601,-0.4985490143299103
1772384323725372200,0.4373720703125,-1.304993987083435,-0.7221660017967224,-0.6036390066146851
1772384323745429800,0.4574296875,-0.2103939950466156,-0.014533000066876411,-1.0405110120773315
1772384323765487400,0.4774873046875,-0.6187160015106201,0.30997300148010254,-0.6964089870452881
1772384323785545000,0.497544921875,-0.3509730100631714,0.07917799800634384,-0.2659269869327545
1772384323805602600,0.5176025390625,-0.7423779964447021,0.1497420072555542,-0.06314200162887573
1772384323825660200,0.53766015625,-3.3883020877838135,-0.425805002450943,0.0374860018491745
1772384323845717800,0.5577177734375,-1.534641981124878,-0.36944401264190674,-0.034811001271009445
1772384323865775400,0.577775390625,11.281085968017578,0.4300439953804016,-1.8662480115890503
1772384323885833200,0.597833251953125,-0.6839309930801392,-0.9519640207290649,-0.6449990272521973
1772384323905890800,0.617890869140625,-2.295944929122925,-0.12237100303173065,-0.2271990031003952
1772384323925948400,0.637948486328125,0.8624429702758789,-0.4370970129966736,-0.7601590156555176
1772384323946006000,0.658006103515625,-0.988444983959198,-0.19447700679302216,-0.10572700202465057
1772384323966063600,0.678063720703125,0.07724300026893616,-0.2603819966316223,-0.36458098888397217
1772384323986121200,0.698121337890625,-1.083804965019226,-0.11630500108003616,-0.19966499507427216
1772384324006178800,0.7181787109375,0.6809549927711487,-0.23144400119781494,-0.00853199977427721
1772384324026236400,0.738236328125,-0.6312350034713745,-0.058754999190568924,-0.11562599986791611
1772384324046294000,0.7582939453125,0.07501199841499329,-0.1214039996266365,-0.11410000175237656
1772384324066351600,0.7783515625,-0.08318900316953659,-0.06832300126552582,-0.014480000361800194
1772384324086409500,0.798409423828125,-0.08575200289487839,-0.08185800164937973,-0.0307839997112751
1772384324106467000,0.818467041015625,-0.0806019976735115,-0.05348699912428856,-0.04382700100541115
1772384324126524700,0.838524658203125,-0.07968199998140335,-0.0507889986038208,-0.023862000554800034
1772384324146582300,0.858582275390625,-0.05574600026011467,-0.0422310009598732,-0.020688999444246292
1772384324166639900,0.878639892578125,-0.044596001505851746,-0.03378500044345856,-0.023750999942421913
1772384324186697700,0.89869775390625,-0.0324769988656044,-0.027027999982237816,-0.019000999629497528
1772384324206755300,0.91875537109375,-0.012381000444293022,-0.018422000110149384,-0.009600999765098095
1772384324226812700,0.938812744140625,-0.007505000103265047,-0.014737999998033047,0.003519000019878149
1772384324246870500,0.95887060546875,-0.012404000386595726,-0.009390000253915787,-0.0011840000515803695
1772384324266928000,0.97892822265625,-0.009922999888658524,-0.0035119999665766954,0.0014519999967887998
1772384324286986000,0.998986083984375,-0.011137999594211578,-0.012408999726176262,0.0011609999928623438
1772384324307043600,1.019043701171875,-0.01691100001335144,-0.00032699998700991273,-0.012670000083744526
1772384324327101200,1.03910107421875,-0.007927999831736088,-0.006661999970674515,-0.008535999804735184
1772384324347158800,1.05915869140625,-0.010343000292778015,-0.012528999708592892,0.0011699999449774623
1772384324367216600,1.079216552734375,-0.011474000290036201,-0.012423000298440456,-0.003063000040128827
1772384324387274200,1.099274169921875,-0.005979000125080347,-0.005938999820500612,-0.004050000105053186
1772384324407331800,1.119331787109375,-0.00798300001770258,-0.0023509999737143517,-0.000039999998989515007
1772384324427389700,1.1393896484375,0.0032130000181496143,-0.0018810000037774444,0.0023670000955462456
1772384324447447300,1.159447265625,0.0025710000190883875,0.004095000214874744,0.0034940000623464584
1772384324467505000,1.1795048828125,-0.001943000010214746,0.0032760000322014093,0.00519500020891428
1772384324487562800,1.199562744140625,-0.0015539999585598707,0.0026199999265372753,0.007356000132858753
1772384324507620400,1.219620361328125,-0.0036430000327527523,0.006095999851822853,-0.0013150000013411045
1772384324527678200,1.23967822265625,-0.0029150000773370266,0.0024770000018179417,-0.0034519999753683805
1772384324547735800,1.25973583984375,-0.007931999862194061,-0.0020179999992251396,-0.004360999912023544
1772384324567793400,1.27979345703125,-0.019944999366998672,-0.004813999868929386,0.0005099999834783375
1772384324587851000,1.29985107421875,-0.003955999854952097,0.012947999872267246,-0.009190999902784824
1772384324607908900,1.319908935546875,0.0024339999072253704,-0.008840999566018581,-0.005752999801188707
1772384324627966500,1.339966552734375,0.0019470000406727195,-0.003073000116273761,0.004997000098228455
1772384324648024000,1.360024169921875,0.0015579999890178442,-0.010458000004291534,0.009596999734640121
1772384324668082000,1.38008203125,-0.05795200169086456,-0.034765999764204025,-0.009120999835431576
1772384324688139800,1.400139892578125,0.03043700009584427,0.06818599998950958,0.007902000099420547
1772384324708197400,1.420197265625,0.09074900299310684,0.021748999133706093,0.01032199990004301
1772384324728254700,1.440254638671875,-0.05140100046992302,-0.03620000183582306,-0.03974200040102005
1772384324748312600,1.4603125,-0.03152000159025192,-0.00015999999595806003,0.008205999620258808
1772384324768370200,1.4803701171875,-0.006016000173985958,-0.024927999824285507,0.021764000877738
1772384324788428000,1.500427978515625,0.01758600026369095,-0.000742000003810972,0.000610999995842576
1772384324808485600,1.520485595703125,-0.020330000668764114,0.01620499975979328,0.010088999755680561
1772384324828543200,1.540543212890625,0.020534999668598175,0.011363999918103218,-0.0015279999934136868
1772384324848600800,1.560600830078125,0.01082799956202507,0.0034910000395029783,0.00597700010985136
1772384324868658700,1.58065869140625,-0.018536999821662903,-0.016405999660491943,-0.006417999975383282
1772384324888716300,1.60071630859375,-0.009228999726474285,-0.0035250000655651093,-0.010734000243246555
1772384324908774000,1.62077392578125,0.006215999834239483,0.006779000163078308,0.002612000098451972
1772384324928831500,1.64083154296875,-0.0046270000748336315,0.007023000158369541,-0.005109999794512987
1772384324948889300,1.660889404296875,-0.00930199958384037,0.004019000101834536,-0.0008880000095814466
1772384324968947000,1.680947021484375,-0.001841000048443675,0.003215000033378601,-0.0007099999929778278
1772384324989004800,1.7010048828125,-0.009472000412642956,-0.0054270001128315926,-0.0005680000176653266
1772384325009062400,1.7210625,0.0020210000220686197,-0.008341999724507332,0.003544999985024333
1772384325029120300,1.741120361328125,0.004015999846160412,0.00292599992826581,0.0028359999414533377
1772384325049177600,1.761177490234375,0.0008140000281855464,-0.0016589999431744218,-0.0017300000181421638
1772384325069235500,1.7812353515625,0.007050999905914068,-0.0029269999358803034,-0.002983999904245138
1772384325089293000,1.80129296875,-0.010358000174164772,-0.010340999811887741,0.012811999768018723
1772384325109351000,1.821350830078125,-0.009886999614536762,0.007726000156253576,-0.0033499998971819878
1772384325129408500,1.841408447265625,0.00008900000102585182,0.007780999876558781,0.001319000031799078
1772384325149466000,1.861466064453125,-0.002328000031411648,0.000623999978415668,0.0010550000006332994
1772384325169524000,1.88152392578125,-0.0018629999831318855,0.0044999998062849045,-0.000754999986384064
1772384325189581600,1.90158154296875,-0.005489999894052744,-0.008399000391364098,0.0033950000070035458
1772384325209639200,1.92163916015625,-0.005991999991238117,-0.00431900005787611,-0.0036830001045018435
1772384325229697000,1.941697021484375,0.0048050000332295895,-0.00025599999935366213,-0.0005460000247694552
1772384325249754600,1.961754638671875,-0.0017549999756738544,0.002194999950006604,0.009162000380456448
1772384325269812500,1.9818125,-0.013403000310063362,-0.007842999882996082,-0.004668999928981066
1772384325289870300,2.001870361328125,0.005276000127196312,-0.0006750000175088644,-0.0037350000347942114
1772384325309928000,2.021927978515625,-0.0021780000533908606,0.003459000028669834,0.003410999896004796
1772384325329985300,2.0419853515625,0.0006569999968633056,0.0043669999577105045,-0.006870000157505274
1772384325350043100,2.062043212890625,-0.003473999910056591,-0.0005050000036135316,0.007302999962121248
1772384325370101000,2.08210107421875,-0.0011780000058934093,-0.0020039998926222324,-0.003756999969482422
1772384325390158600,2.10215869140625,-0.006543000228703022,0.003996000159531832,-0.0006050000083632767
1772384325410216400,2.122216552734375,-0.001234999974258244,0.0055970000103116035,-0.004484000150114298
1772384325430274000,2.142274169921875,-0.004987000022083521,-0.003522000042721629,-0.005187000147998333
1772384325450332000,2.162331787109375,-0.005590000189840794,-0.0028170000296086073,0.005448999814689159
1772384325470389500,2.182389404296875,-0.004472000058740377,-0.003854000009596348,-0.003640000009909272
1772384325490447000,2.202447021484375,-0.001976999919861555,0.0025160000659525394,0.002686999971047044
1772384325510504700,2.222504638671875,0.0008169999928213656,-0.0003859999997075647,0.00215000007301569
1772384325530562600,2.2425625,0.003854000009596348,-0.001908999984152615,0.004120000172406435
1772384325550620200,2.2626201171875,-0.00011600000289035961,0.00007200000254670158,-0.00470300018787384
1772384325570678000,2.282677978515625,-0.004093000199645758,0.002457000082358718,-0.005363000091165304
1772384325590735600,2.302735595703125,-0.001673000049777329,0.00596599979326129,0.0013089999556541443
1772384325610793200,2.322793212890625,-0.010937999933958054,0.004772999789565802,-0.0013520000502467155
1772384325630850800,2.342850830078125,-0.006351000163704157,0.0014179999707266688,-0.0010809999657794833
1772384325650908700,2.36290869140625,0.004517999943345785,0.003533999901264906,-0.0024649999104440212
1772384325670966300,2.38296630859375,0.006814000196754932,0.004426999948918819,0.0060270000249147415
1772384325691024100,2.403024169921875,-0.00014699999883305281,-0.007656999863684177,-0.0015770000172778964
1772384325711081700,2.423081787109375,0.002280999906361103,-0.014125999994575977,-0.0012619999470189214
1772384325731139300,2.443139404296875,-0.006173999980092049,-0.00009999999747378752,0.0013899999903514981
1772384325751197200,2.463197265625,0.003060000017285347,0.003918999806046486,0.006711999885737896
1772384325771254800,2.4832548828125,0.0024480000138282776,-0.004064000211656094,0.0069690002128481865
1772384325791312400,2.5033125,-0.004441000055521727,0.00394799979403615,-0.0016240000259131193
1772384325811370200,2.523370361328125,-0.0067529999651014805,-0.004040999803692102,-0.0036989999935030937
1772384325831427800,2.543427734375,-0.00380200007930398,0.003965999931097031,-0.0005590000073425472
1772384325851485700,2.563485595703125,-0.00304200011305511,0.001572999986819923,-0.006047000177204609
1772384325871543300,2.583543212890625,-0.0008329999982379377,0.002858000108972192,0.0047610001638531685
1772384325891601200,2.60360107421875,-0.000666000007186085,-0.003312000073492527,-0.002589999930933118
1772384325911658800,2.62365869140625,-0.0021329999435693026,-0.0010499999625608325,-0.0036720000207424164
1772384325931716400,2.64371630859375,-0.00010599999950500205,-0.0008399999933317304,-0.002937000012025237
1772384325951774000,2.66377392578125,-0.0016850000247359276,-0.0006719999946653843,0.00164899998344481
1772384325971831800,2.683831787109375,0.00025099999038502574,-0.0005370000144466758,0.005319000221788883
1772384325991889400,2.703889404296875,-0.001398000051267445,-0.00203000009059906,0.0018550000386312604
1772384326011947300,2.723947265625,-0.0027179999742656946,0.0063749998807907104,-0.005714999977499247
1772384326032004900,2.7440048828125,-0.0021750000305473804,-0.0028989999555051327,0.0010270000202581286
1772384326052062500,2.7640625,-0.0017399999778717756,-0.0007190000033006072,0.008022000081837177
1772384326072120000,2.7841201171875,0.0018080000299960375,0.005824000108987093,-0.0007820000173524022
1772384326092178000,2.804177978515625,-0.00015300000086426735,0.0022589999716728926,-0.004625000059604645
1772384326112235500,2.824235595703125,0.0014769999543204904,-0.005392000079154968,-0.003700000001117587
1772384326132293400,2.84429345703125,-0.0020179999992251396,0.0028860000893473625,0.0010389999952167273
1772384326152351000,2.86435107421875,0.0015849999617785215,0.002308000111952424,0.000830999983008951
1772384326172408600,2.88440869140625,-0.0019320000428706408,-0.0021520000882446766,0.002265000017359853
1772384326192466200,2.904466064453125,0.00405400013551116,-0.004922000225633383,0.0042119999416172504
1772384326212523800,2.924523681640625,0.00484299985691905,-0.002337000099942088,-0.0006300000241026282
1772384326232581600,2.94458154296875,0.002274000085890293,0.002128999913111329,-0.0005039999959990382
1772384326252639200,2.96463916015625,-0.007780000101774931,0.0017030000453814864,0.0035959999077022076
1772384326272697000,2.984697021484375,-0.0022239999379962683,-0.0026360000483691692,0.0004769999941345304
1772384326292754700,3.004754638671875,-0.00977800041437149,-0.0021089999936521053,-0.0012179999612271786
1772384326312812300,3.024812255859375,-0.007822000421583652,-0.0000870000003487803,-0.006574000231921673
1772384326332870000,3.044869873046875,-0.007859000004827976,-0.0016700000269338489,0.009940000250935555
1772384326352927700,3.064927734375,0.0009130000253207982,0.004263000097125769,-0.004046999849379063
1772384326372985300,3.0849853515625,-0.0008679999737069011,-0.006188000086694956,-0.0008379999781027436
1772384326393043000,3.10504296875,0.0009050000226125121,-0.0009510000236332417,-0.0030700000934302807
1772384326413100800,3.125100830078125,-0.0024759999942034483,-0.0047599999234080315,0.0015429999912157655
1772384326433158100,3.145158203125,0.0012179999612271786,0.00019099999917671084,0.0012339999666437507
1772384326453216000,3.165216064453125,-0.004625000059604645,0.005752999801188707,0.003386999946087599
1772384326473273600,3.185273681640625,0.0018990000244230032,0.003002000041306019,-0.0012890000361949205
1772384326493331200,3.205331298828125,0.007120000198483467,0.004000999964773655,0.006167999934405088
1772384326513389000,3.22538916015625,-0.0015030000358819962,0.007201000116765499,0.011334000155329704
1772384326533446700,3.24544677734375,-0.0012029999634250998,0.0017610000213608146,-0.0005319999763742089
1772384326553504300,3.265504150390625,-0.0025629999581724405,0.001408000010997057,-0.008425000123679638
1772384326573562000,3.28556201171875,-0.00044999999227002263,-0.004472000058740377,-0.005140000022947788
1772384326593619700,3.30561962890625,-0.0019600000232458115,-0.0019779999274760485,-0.001711999997496605
1772384326613677300,3.32567724609375,-0.003967999946326017,0.0024170000106096268,-0.0037700000684708357
1772384326633735000,3.34573486328125,0.00482399994507432,0.0019330000504851341,-0.006215999834239483
1772384326653792500,3.36579248046875,-0.0017399999778717756,-0.004052000120282173,0.006227000150829554
1772384326673850400,3.385850341796875,-0.003790999995544553,-0.0032420000061392784,-0.0006179999909363687
1772384326693908000,3.405907958984375,0.0025659999810159206,-0.0009929999941959977,-0.002893999917432666
1772384326713965600,3.425965576171875,0.00045200000749900937,0.0056039998307824135,-0.003914999775588512
1772384326734023200,3.446023193359375,-0.009236999787390232,-0.0019160000374540687,0.0008670000243000686
1772384326754080800,3.466080810546875,-0.005789000075310469,0.0008670000243000686,0.004693000111728907
1772384326774138600,3.486138671875,-0.0022319999989122152,-0.003306000027805567,0.0013549999566748738
1772384326794196200,3.5061962890625,-0.0001849999971454963,-0.002644999884068966,-0.0029150000773370266
1772384326814253600,3.526253662109375,0.0022509999107569456,0.001883000019006431,-0.003932000137865543
1772384326834311200,3.546311279296875,-0.010197999887168407,0.0015069999499246478,-0.0015460000140592456
1772384326854369000,3.566369140625,-0.00015900000289548188,0.002804999938234687,-0.0012359999818727374
1772384326874426600,3.586426513671875,0.0014730000402778387,0.0006440000142902136,0.0014100000262260437
1772384326894484500,3.606484375,0.009177999570965767,-0.00748400017619133,-0.0012710000155493617
1772384326914541800,3.626541748046875,0.0017419999931007624,-0.0003870000073220581,-0.002616999903693795
1772384326934599700,3.646599609375,0.004594000056385994,0.007689999882131815,0.0035059999208897352
1772384326954657300,3.6666572265625,0.006074000149965286,0.0005520000122487545,0.006804000120609999
1772384326974715000,3.68671484375,-0.0007399999885819852,-0.005158000160008669,0.005442999769002199
1772384326994772500,3.7067724609375,-0.0005920000257901847,-0.004126000218093395,-0.0036440000403672457
1772384327014830000,3.726830078125,0.0011269999668002129,0.0022980000358074903,0.0010839999886229634
1772384327034888000,3.746887939453125,-0.008697999641299248,-0.0037609999999403954,-0.0007319999858736992
1772384327054945500,3.766945556640625,0.0010400000028312206,0.004191000014543533,-0.002985999919474125
1772384327075003000,3.7870029296875,0.004033000208437443,-0.006246999837458134,-0.003988000098615885
1772384327095060700,3.807060791015625,0.00002499999936844688,-0.0009970000246539712,0.0008079999824985862
1772384327115118300,3.827118408203125,0.000019999999494757503,0.003200999926775694,0.0006469999789260328
1772384327135176000,3.847176025390625,0.003217000048607588,0.0001610000035725534,0.0021170000545680523
1772384327155233500,3.867233642578125,0.008173000067472458,0.0025289999321103096,-0.005504999775439501
1772384327175291100,3.887291015625,-0.006260999944061041,-0.0019759999122470617,0.002795000094920397
1772384327195348700,3.9073486328125,-0.0034080001059919596,0.00241800001822412,-0.008963000029325485
1772384327215406300,3.92740625,-0.0027260000351816416,0.005934000015258789,0.004029000177979469
1772384327235464000,3.9474638671875,-0.0021810000762343407,0.006347000133246183,0.003223000094294548
1772384327255521800,3.967521728515625,0.002254999941214919,-0.002920999890193343,0.000977999996393919
1772384327275579400,3.987579345703125,-0.002194999950006604,-0.0039369999431073666,0.0023819999769330025
1772384327295636700,4.00763671875,0.0006419999990612268,-0.0015490000369027257,0.001905999961309135
1772384327315694300,4.0276943359375,0.0037140001077204943,0.0027600000612437725,0.0015249999705702066
1772384327335752200,4.047752197265625,-0.0066280001774430275,-0.001791000016964972,0.0052189999260008335
1772384327355809800,4.067809814453125,0.0026970000471919775,-0.004633000120520592,-0.001424000016413629
1772384327375867400,4.087867431640625,0.0037579999770969152,-0.006105999927967787,-0.0011390000581741333
1772384327395925000,4.107925048828125,0.0014059999957680702,0.0031139999628067017,-0.0033110000658780336
1772384327415982600,4.127982666015625,-0.004474999848753214,0.006490999832749367,-0.00024900000425986946
1772384327436040200,4.148040283203125,-0.0035800000187009573,0.00279300007969141,0.003800000064074993
1772384327456097800,4.168097900390625,0.0011350000277161598,-0.001765000051818788,0.0006399999838322401
1772384327476155400,4.1881552734375,0.0009079999872483313,-0.0014120000414550304,0.0029120000544935465
1772384327496212700,4.208212646484375,0.003926999866962433,0.0028699999675154686,-0.00007000000186963007
1772384327516270600,4.2282705078125,-0.0024580000899732113,0.0022960000205785036,0.0023429999127984047
1772384327536328200,4.248328125,-0.0019660000689327717,-0.003763000015169382,0.0018749999580904841
1772384327556385800,4.2683857421875,-0.001572999986819923,0.0009889999637380242,-0.0008989999769255519
1772384327576443400,4.288443359375,-0.0012580000329762697,-0.0032079999800771475,-0.010319000110030174
1772384327596500700,4.308500732421875,0.004592000041157007,0.005433000158518553,-0.004255000036209822
1772384327616558600,4.32855859375,0.0004729999927803874,0.0019460000330582261,0.002194999950006604
1772384327636616200,4.3486162109375,0.001978999935090542,-0.0024419999681413174,0.0017559999832883477
1772384327656673800,4.368673828125,0.0015839999541640282,-0.0019539999775588512,0.0014049999881535769
1772384327676731400,4.3887314453125,0.00686699990183115,0.002435999922454357,0.00912300031632185
1772384327696788700,4.408788818359375,0.0014929999597370625,0.0003490000090096146,0.00889899954199791
1772384327716846600,4.4288466796875,0.003593999892473221,-0.007720000110566616,-0.00007999999797903001
1772384327736904200,4.448904296875,-0.00912300031632185,-0.002176000038161874,-0.004064000211656094
1772384327756961800,4.4689619140625,-0.004898999817669392,-0.001740999985486269,-0.0016509999986737967
1772384327777019400,4.489019287109375,0.0016799999866634607,-0.00699200015515089,-0.002920999890193343
1772384327797076700,4.50907666015625,-0.00025599999935366213,-0.0015940000303089619,-0.00633700005710125
1772384327817134300,4.52913427734375,-0.002604000037536025,0.008324000053107738,-0.006668999791145325
1772384327837192000,4.54919189453125,0.0003150000120513141,0.0082590002566576,0.001863999990746379
1772384327857249800,4.569249755859375,0.0002519999979995191,-0.0013920000055804849,0.0014909999445080757
1772384327877307100,4.58930712890625,-0.002196999965235591,-0.0011129999766126275,0.0035929998848587275
1772384327897364700,4.60936474609375,0.002242000075057149,-0.004091000184416771,0.00047400000039488077
1772384327917422300,4.62942236328125,0.005791999865323305,0.00792699959129095,-0.0012199999764561653
1772384327937480000,4.64947998046875,-0.00736499996855855,0.0007409999961964786,-0.0033760000951588154
1772384327957537500,4.66953759765625,-0.0018919999711215496,-0.007406000047922134,-0.0003009999927598983
1772384327977595100,4.68959521484375,-0.005514000076800585,-0.00032500000088475645,-0.0026400000788271427
1772384327997652500,4.709652587890625,0.001988000003620982,0.0077390000224113464,-0.0021120000164955854
1772384328017710000,4.7297099609375,0.0015899999998509884,0.006190999876707792,0.004708999767899513
1772384328037768000,4.749767822265625,0.001272000023163855,-0.00304599991068244,-0.00023200000578071922
1772384328057825500,4.769825439453125,0.004217999987304211,-0.008036999963223934,0.0014140000566840172
1772384328077883000,4.7898828125,0.00017299999308306724,0.0015699999639764428,-0.006068000104278326
1772384328097940500,4.8099404296875,0.0033390000462532043,0.002856000093743205,-0.0016540000215172768
1772384328117998000,4.829998046875,0.0010710000060498714,-0.001715000020340085,-0.004523000214248896
1772384328138055700,4.8500556640625,-0.0031419999431818724,-0.006972000002861023,0.0035800000187009573
1772384328158113300,4.87011328125,-0.006513000000268221,-0.0015770000172778964,-0.002735000103712082
1772384328178170600,4.890170654296875,0.0011879999656230211,0.002736999886110425,0.0058109997771680355
1772384328198228200,4.910228271484375,0.0025510000996291637,-0.0018090000376105309,0.0006489999941550195
1772384328218285800,4.930285888671875,-0.007557999808341265,0.006552000064402819,-0.001879999996162951
1772384328238343200,4.95034326171875,0.0019519999623298645,0.0012410000199452043,-0.0015040000434964895
1772384328258401000,4.970401123046875,0.0031620000954717398,0.006593000143766403,0.001196000026538968
1772384328278458600,4.990458740234375,0.004129000008106232,0.006874000187963247,-0.0014420000370591879
1772384328298516200,5.01051611328125,0.0057020001113414764,0.0022990000434219837,0.005245000123977661
1772384328318573600,5.030573486328125,-0.0010369999799877405,-0.0005600000149570405,0.0017960000550374389
1772384328338631200,5.050631103515625,-0.0008290000259876251,-0.002047999994829297,-0.002561999950557947
1772384328358688800,5.070688720703125,-0.007062000222504139,-0.004038000013679266,0.0019490000559017062
1772384328378746400,5.090746337890625,0.0007489999989047647,-0.0008299999753944576,0.005559000186622143
1772384328398803700,5.1108037109375,0.0005990000208839774,-0.0006639999919570982,-0.006752000190317631
1772384328418861300,5.130861328125,-0.001918999943882227,-0.008531000465154648,0.00019799999427050352
1772384328438919000,5.1509189453125,0.0008640000014565885,0.0011739999754354358,-0.003840999910607934
1772384328458976500,5.1709765625,-0.003309000050649047,0.0025390000082552433,0.0025259999092668295
1772384328479033900,5.191033935546875,0.0013520000502467155,0.0020310000982135534,0.006020999979227781
1772384328499091500,5.211091552734375,-0.00851800013333559,0.00002499999936844688,-0.0007820000173524022
1772384328519149000,5.231149169921875,-0.006814000196754932,-0.0023789999540895224,0.0009730000165291131
1772384328539206700,5.25120654296875,0.00014699999883305281,0.004495999775826931,-0.0064199999906122684
1772384328559264300,5.27126416015625,-0.003880999982357025,-0.0004020000051241368,0.0060629998333752155
1772384328579321600,5.291321533203125,-0.0031049998942762613,0.0036770000588148832,0.0048500001430511475
1772384328599379200,5.311379150390625,0.0055149998515844345,-0.001057000015862286,-0.004118999931961298
1772384328619436500,5.3314365234375,0.0044109998270869255,-0.004846000112593174,-0.0032949999440461397
1772384328639494100,5.351494140625,-0.0028699999675154686,0.0017219999572262168,-0.0026360000483691692
1772384328659551700,5.3715517578125,-0.005495999939739704,0.0013780000153928995,-0.0053090001456439495
1772384328679609300,5.391609375,0.008402000181376934,-0.0004970000009052455,0.0013520000502467155
1772384328699667000,5.4116669921875,0.014720999635756016,-0.0027970001101493835,0.012281999923288822
1772384328719724300,5.431724365234375,0.013377999886870384,0.013760999776422977,0.008225000463426113
1772384328739782000,5.451781982421875,-0.00609700009226799,0.004608999937772751,0.006579999811947346
1772384328759839500,5.471839599609375,-0.007277000229805708,-0.013112000189721584,-0.009934999980032444
1772384328779897000,5.49189697265625,-0.011421999894082546,-0.0088900001719594,-0.0007479999912902713
1772384328799954700,5.51195458984375,-0.00113800005055964,0.0024880000855773687,-0.0045980000868439674
1772384328820012000,5.532011962890625,0.006289000157266855,-0.0020089999306946993,-0.00367900007404387
1772384328840069400,5.5520693359375,-0.004567999858409166,-0.0016070000128820539,-0.0029430000577121973
1772384328860127200,5.572127197265625,-0.00685499981045723,-0.0012860000133514404,-0.0023539999965578318
1772384328880184600,5.5921845703125,-0.00228299992159009,-0.0066280001774430275,-0.001883000019006431
1772384328900242200,5.6122421875,0.010172000154852867,0.008295999839901924,-0.0015059999423101544
1772384328920299500,5.632299560546875,0.004137999843806028,0.006637000013142824,0.0027940000873059034
1772384328940357000,5.652357177734375,0.0033110000658780336,0.01090999972075224,0.0046350001357495785
1772384328960414700,5.672414794921875,0.0010479999473318458,-0.0024709999561309814,0.009308000095188618
1772384328980472300,5.692472412109375,-0.007160999812185764,0.002022000029683113,0.005045999772846699
1772384329000529700,5.71252978515625,-0.004129000008106232,-0.006382000166922808,-0.0031620000954717398
1772384329020587300,5.732587158203125,0.0006960000027902424,0.002893999917432666,-0.0049299998208880424
1772384329040644900,5.752644775390625,-0.0010430000256747007,0.003914999775588512,0.00005500000042957254
1772384329060702200,5.7727021484375,0.004765999969094992,0.0015320000238716602,-0.003955000080168247
1772384329080759800,5.792759765625,-0.00418600020930171,-0.002773999935016036,-0.0031640001107007265
1772384329100817200,5.812817138671875,-0.006548999808728695,-0.0006189999985508621,-0.0057310000993311405
1772384329120875000,5.832875,0.0019600000232458115,-0.0076950001530349255,-0.0029849999118596315
1772384329140932000,5.85293212890625,0.003967999946326017,0.00344299990683794,0.0016110000433400273
1772384329160989700,5.87298974609375,0.01197499968111515,-0.005245000123977661,0.006889000069350004
1772384329181047300,5.89304736328125,0.006380000151693821,0.0014029999729245901,-0.0024880000855773687
1772384329201104600,5.913104736328125,-0.002894999925047159,-0.002876000013202429,0.0004090000002179295
1772384329221162200,5.933162353515625,-0.013515999540686607,-0.00790099985897541,-0.009271999821066856
1772384329241219800,5.9532197265625,-0.001214000047184527,-0.002320999978110194,-0.005818000063300133
1772384329261277200,5.973277099609375,0.003028000006452203,0.009343000128865242,0.0033450000919401646
1772384329281334800,5.993334716796875,0.002423000056296587,0.005874000024050474,0.0026759998872876167
1772384329301392100,6.01339208984375,-0.002061000093817711,-0.0008999999845400453,-0.00585799990221858
1772384329321449700,6.03344970703125,-0.00164899998344481,-0.004720000084489584,-0.000686999992467463
1772384329341507300,6.05350732421875,0.004280999768525362,0.005822999868541956,-0.006149000022560358
1772384329361564700,6.073564697265625,-0.0005750000127591193,-0.01054100040346384,-0.003318999893963337
1772384329381622300,6.093622314453125,-0.0020600000862032175,-0.00443200021982193,0.0013439999893307686
1772384329401679600,6.1136796875,0.0039519998244941235,-0.0019460000330582261,-0.0005239999736659229
1772384329421737200,6.1337373046875,0.0047610001638531685,0.0040420000441372395,0.009180000051856041
1772384329441794800,6.153794921875,0.0022090000566095114,0.0016339999856427312,0.003344000084325671
1772384329461852200,6.17385205078125,0.00016599999798927456,0.0013070000568404794,0.0002749999985098839
1772384329481909800,6.19390966796875,-0.002265000017359853,0.006645999848842621,0.004220000002533197
1772384329501967000,6.213967041015625,-0.0018119999440386891,-0.0026829999405890703,-0.003823000006377697
1772384329522024700,6.234024658203125,-0.011049999855458736,0.0002530000056140125,-0.0030580000020563602
1772384329542082000,6.25408203125,0.0031590000726282597,0.005801999941468239,0.0007520000217482448
1772384329562139400,6.274139404296875,0.005727000068873167,-0.000957000011112541,-0.0009970000246539712
1772384329582197000,6.294197021484375,-0.005018000025302172,-0.004765999969094992,-0.006397999823093414
1772384329602254600,6.314254638671875,-0.005613999906927347,-0.00381199992261827,-0.005117999855428934
1772384329622312000,6.33431201171875,0.0067079998552799225,0.0009490000084042549,0.005504999775439501
1772384329642369500,6.35436962890625,0.009366000071167946,0.006359000224620104,0.006004000082612038
1772384329662427000,6.374427001953125,0.00029200001154094934,0.003487000009045005,0.007203000131994486
1772384329682484500,6.394484375,0.003435000078752637,-0.006808999925851822,0.003361999988555908
1772384329702542000,6.4145419921875,-0.00445199990645051,0.0017519999528303742,0.005090000107884407
1772384329722599400,6.434599365234375,-0.003561000106856227,0.0014009999576956034,-0.003926999866962433
1772384329742657000,6.454656982421875,-0.0012489999644458294,-0.004478000104427338,0.0008570000063627958
1772384329762714600,6.474714599609375,-0.004999000113457441,0.0020169999916106462,-0.0017130000051110983
1772384329782772000,6.49477197265625,0.00559999980032444,0.000012999999853491317,-0.01017099991440773
1772384329802829300,6.514829345703125,0.0012789999600499868,-0.002389000030234456,-0.004935999866575003
1772384329822887000,6.534886962890625,0.002623999956995249,-0.003510999958962202,-0.003949000034481287
1772384329842944500,6.554944580078125,-0.0019000000320374966,-0.0012080000014975667,0.006440000142902136
1772384329863001900,6.575001953125,0.0008789999992586672,-0.01056700013577938,0.007552000228315592
1772384329883059200,6.59505908203125,0.0007029999978840351,-0.0004529999860096723,-0.00035799999022856355
1772384329903116800,6.61511669921875,-0.0034370000939816236,-0.00036199999158270657,0.003713000100106001
1772384329923174400,6.63517431640625,-0.0027489999774843454,-0.0002899999963119626,-0.0026289999950677156
1772384329943231700,6.655231689453125,-0.0061980001628398895,-0.004232000093907118,0.001896000001579523
1772384329963289000,6.6752890625,-0.0009590000263415277,0.0006140000186860561,0.0031169999856501818
1772384329983346700,6.6953466796875,-0.0063669998198747635,0.004490999970585108,0.002492999890819192
1772384330003404000,6.715404052734375,-0.001892999978736043,0.0035929998848587275,-0.005204000044614077
1772384330023461600,6.735461669921875,-0.0015150000108405948,-0.002725000027567148,-0.004162999801337719
1772384330043519000,6.75551904296875,0.00278700003400445,0.005018999800086021,-0.0017310000257566571
1772384330063576600,6.77557666015625,0.004629000090062618,0.000014999999621068127,-0.002983999904245138
1772384330083634000,6.795634033203125,0.005303999874740839,0.00241199997253716,0.0008120000129565597
1772384330103691500,6.81569140625,0.00024300000222865492,0.005929999984800816,-0.0025500000920146704
1772384330123748900,6.835748779296875,-0.0014049999881535769,0.010343999601900578,0.001158999977633357
1772384330143806200,6.85580615234375,0.00047500000800937414,0.0002749999985098839,-0.0006719999946653843
1772384330163863800,6.87586376953125,-0.01081900019198656,-0.0013790000230073929,-0.002136999974027276
1772384330183921200,6.895921142578125,-0.004654999822378159,-0.0011030000168830156,-0.0017099999822676182
1772384330224036000,6.9360361328125,-0.0012179999612271786,0.0020129999611526728,-0.0001340000017080456
1772384330244093400,6.956093505859375,0.008624999783933163,0.001610000035725534,0.001491999952122569
1772384330264150800,6.97615087890625,0.0012989999959245324,-0.004310999996960163,0.0035929998848587275
1772384330284208400,6.99620849609375,0.009038000367581844,-0.0034489999525249004,-0.002724000019952655
1772384330304265700,7.016265625,0.008830999955534935,-0.001158999977633357,0.007420000154525042
1772384330324323300,7.0363232421875,0.005464000161737204,0.0030720001086592674,0.005936000030487776
1772384330344380700,7.056380615234375,-0.0012280000373721123,0.0008580000139772892,0.0007479999912902713
1772384330364438300,7.076438232421875,-0.0033809999004006386,-0.0017130000051110983,-0.0017999999690800905
1772384330384495600,7.09649560546875,-0.004304999951273203,-0.004569999873638153,-0.00863999966531992
1772384330404553000,7.116552978515625,0.0021559998858720064,0.007542999926954508,-0.005311999935656786
1772384330424610300,7.1366103515625,-0.0022750000935047865,0.00043399998685345054,-0.0042500002309679985
1772384330444668000,7.15666796875,0.006178000010550022,-0.007652000058442354,-0.0010000000474974513
1772384330464725200,7.176725341796875,-0.004656000062823296,-0.0005210000090301037,0.0023990001063793898
1772384330484782600,7.196782470703125,0.0034749999176710844,-0.0020169999916106462,-0.005280000157654285
1772384330504840200,7.216840087890625,0.00837900023907423,0.003986000083386898,0.005375000182539225
1772384330544955100,7.256955078125,-0.0027970001101493835,-0.0030479999259114265,-0.0021589999087154865
1772384330565012500,7.277012451171875,-0.006237000226974487,0.00395999988541007,-0.004126999992877245
1772384330585069800,7.29706982421875,-0.0033889999613165855,-0.0032309999223798513,0.0006980000180192292
1772384330605127400,7.31712744140625,-0.0003110000106971711,-0.0001849999971454963,0.002157999901100993
1772384330625184800,7.337184814453125,-0.00024900000425986946,0.0014509999891743064,0.00012599999899975955
1772384330645242400,7.357242431640625,-0.00979899987578392,-0.0028379999566823244,-0.007098000030964613
1772384330665299700,7.3772998046875,-0.004639000166207552,-0.0134699996560812,-0.002478000009432435
1772384330685357000,7.397357177734375,0.0002880000101868063,0.00042299999040551484,0.00041599999531172216
1772384330705414700,7.41741455078125,0.01782899908721447,0.00993799977004528,0.007532999850809574
1772384330725472000,7.437471923828125,0.010262999683618546,0.004749999847263098,0.008426000364124775
1772384330745529300,7.457529296875,0.00021100000594742596,-0.00419900007545948,0.009940999560058117
1772384330765587000,7.4775869140625,-0.007031000219285488,-0.003358999965712428,0.0023529999889433384
1772384330785644000,7.49764404296875,-0.005623999983072281,0.005311999935656786,0.005882000084966421
1772384330805701600,7.51770166015625,-0.00849900022149086,-0.003748999908566475,-0.0008929999894462526
1772384330825759000,7.537759033203125,-0.0027989998925477266,0.0010000000474974513,-0.003114999970421195
1772384330845816300,7.55781640625,0.008960000239312649,-0.001598999951966107,0.0015069999499246478
1772384330865874000,7.5778740234375,-0.006430999841541052,-0.002879000036045909,-0.009992999956011772
1772384330885931300,7.59793115234375,-0.0051449998281896114,0.005694999825209379,-0.006393999792635441
1772384330905988600,7.617988525390625,0.00228299992159009,0.0005559999844990671,0.004484000150114298
1772384330926046000,7.6380458984375,0.007426000200212002,-0.0019539999775588512,0.003587000072002411
1772384330946103600,7.658103515625,0.0019409999949857593,0.002435999922454357,-0.001129999989643693
1772384330966160600,7.67816064453125,0.003152000019326806,0.0003490000090096146,0.0014949999749660492
1772384330986218200,7.69821826171875,-0.0006779999821446836,-0.005319999996572733,0.001196000026538968
1772384331006275600,7.718275634765625,-0.006940999999642372,-0.0010560000082477927,-0.008642000146210194
1772384331026333000,7.7383330078125,-0.0031530000269412994,-0.0008449999731965363,-0.0029140000697225332
1772384331046390500,7.758390625,0.0030769999139010906,-0.00227600010111928,0.007267999928444624
1772384331066448000,7.77844775390625,0.0008609999786131084,-0.00022000000171829015,0.003413999918848276
1772384331086505200,7.798505126953125,0.009488999843597412,0.007822999730706215,0.0011309999972581863
1772384331106562800,7.818562744140625,0.0019910000264644623,0.004658000078052282,0.006504999939352274
1772384331126620200,7.8386201171875,0.007191999815404415,0.005326000042259693,-0.002795000094920397
1772384331146677500,7.858677490234375,-0.0014449999434873462,0.0002610000083222985,-0.0022360000293701887
1772384331166734800,7.87873486328125,-0.006756999995559454,-0.0037899999879300594,-0.004989000037312508
1772384331186792400,7.89879248046875,-0.00380500010214746,0.0009670000290498137,0.0032079999800771475
1772384331206849800,7.918849853515625,0.01055500004440546,0.0007730000070296228,0.004966000095009804
1772384331226907100,7.9389072265625,0.0004440000047907233,-0.0009800000116229057,0.005572999827563763
1772384331246964500,7.958964599609375,-0.005243999883532524,-0.006384000182151794,-0.009140999987721443
1772384331267022000,7.97902197265625,-0.004195000045001507,-0.007507000118494034,0.0022869999520480633
1772384331287079200,7.9990791015625,-0.0009560000034980476,0.0035929998848587275,-0.0021699999924749136
1772384331307136800,8.01913671875,0.004834999796003103,-0.002724000019952655,0.00786300003528595
1772384331327194000,8.039194091796874,0.003868000116199255,-0.0005789999850094318,0.0030900000128895044
1772384331347251500,8.05925146484375,0.0006949999951757491,0.0019359999569132924,-0.005526999942958355
1772384331367309000,8.07930908203125,0.002954999916255474,-0.004050999879837036,-0.004420999903231859
1772384331387366400,8.099366455078124,-0.000035000000934815034,0.003959000110626221,0.004461999982595444
1772384331407423700,8.119423828125,-0.0032289999071508646,0.0015670000575482845,-0.002828999888151884
1772384331427481000,8.139481201171876,-0.0009820000268518925,0.006852999795228243,0.005735999904572964
1772384331447538400,8.159538330078124,-0.0007849999819882214,-0.00011600000289035961,-0.0066109998151659966
1772384331467595800,8.179595703125,-0.008627999573946,-0.008093000389635563,-0.0036879999097436666
1772384331487653400,8.1996533203125,0.001095999963581562,-0.00407399982213974,-0.00855099968612194
1772384331507710500,8.21971044921875,0.004877000115811825,0.011939999647438526,-0.0012400000123307109
1772384331527768000,8.23976806640625,0.009500999934971333,-0.0024470000062137842,0.004606999922543764
1772384331547825400,8.259825439453126,0.009201999753713608,-0.0019580000080168247,0.002085000043734908
1772384331567882800,8.2798828125,-0.011838000267744064,0.00803299993276596,0.0016680000117048621
1772384331587940000,8.299940185546875,-0.031870000064373016,-0.0007730000070296228,-0.012264999561011791
1772384331607997700,8.319997802734376,-0.03909600153565407,-0.019818000495433807,-0.01701200008392334
1772384331628054800,8.3400546875,0.004722000099718571,-0.011854000389575958,-0.01040900032967329
1772384331648112400,8.3601123046875,0.0405769981443882,0.009716000407934189,-0.001927000004798174
1772384331668169700,8.380169677734376,0.053261999040842056,0.034171998500823975,0.02645700052380562
1772384331688227000,8.40022705078125,0.03700999915599823,0.01773799955844879,0.04436599835753441
1772384331708284400,8.420284423828125,-0.012791000306606293,-0.00660899979993701,0.021893000230193138
1772384331728341800,8.440341796875,-0.027031999081373215,-0.014887000434100628,-0.004885000176727772
1772384331748399000,8.460399169921875,-0.04082600027322769,-0.011908999644219875,-0.015907999128103256
1772384331768456700,8.480456787109375,-0.017461000010371208,-0.003926999866962433,-0.025526000186800957
1772384331788514000,8.50051416015625,0.005229999776929617,-0.001541999983601272,-0.024421000853180885
1772384331808571400,8.5205712890625,0.0001849999971454963,0.0027660001069307327,-0.009937000460922718
1772384331828628700,8.540628662109375,0.0057470002211630344,-0.008987000212073326,0.0048500001430511475
1772384331848686000,8.56068603515625,0.008597999811172485,-0.001588999992236495,0.0038799999747425318
1772384331868743400,8.580743408203125,0.008477999828755856,0.008328000083565712,0.007104000076651573
1772384331888800800,8.60080078125,-0.008417000062763691,0.010661999695003033,0.004083000123500824
1772384331908858000,8.620858154296876,0.0012659999774768949,0.006130000110715628,0.004865999799221754
1772384331928915700,8.640915771484375,0.00101200002245605,-0.011895000003278255,0.006293000187724829
1772384331948973000,8.66097314453125,0.0008099999977275729,-0.0023159999400377274,0.005034000147134066
1772384331969030400,8.681030517578124,0.0022479998879134655,0.0045460001565515995,-0.0023719999007880688
1772384331989087500,8.70108740234375,0.0001990000018849969,0.006837000139057636,0.004501999821513891
1772384332009145000,8.72114501953125,-0.007841000333428383,-0.0017300000181421638,-0.0027979998849332333
1772384332029202400,8.741202392578124,-0.017472999170422554,0.00021499999274965376,-0.003837999887764454
1772384332049259800,8.761259765625,-0.004377999808639288,-0.007027000188827515,0.0009289999725297093
1772384332069317000,8.781317138671875,0.004495999775826931,0.009577999822795391,-0.0016560000367462635
1772384332089374500,8.80137451171875,0.009197000414133072,-0.0019369999645277858,0.0010740000288933516
1772384332109431800,8.821431884765625,0.008957999758422375,-0.0015490000369027257,0.0024590000975877047
1772384332129489200,8.8414892578125,0.005566000007092953,0.0003600000054575503,-0.002032000105828047
1772384332149546500,8.86154638671875,0.004453000146895647,-0.009312000125646591,-0.0032250001095235348
1772384332169603800,8.881603759765625,-0.004435999784618616,0.00215000007301569,-0.0009800000116229057
1772384332189661400,8.901661376953125,-0.005148999858647585,0.00011999999696854502,0.001614999957382679
1772384332209718500,8.921718505859374,-0.00011999999696854502,0.0016959999920800328,-0.0027069998905062675
1772384332229776000,8.94177587890625,-0.008094999939203262,-0.002643000101670623,0.00343300006352365
1772384332249833200,8.961833251953125,-0.0008759999764151871,0.0042849997989833355,0.0011470000026747584
1772384332269890600,8.981890625,-0.000699999975040555,-0.0005709999823011458,-0.007081999909132719
1772384332289948000,9.001947998046875,0.001838000025600195,-0.006056999787688255,0.00393400015309453
1772384332310005200,9.022005126953125,0.0046709999442100525,-0.0016449999529868364,0.001547000021673739
1772384332330062600,9.0420625,0.0037360000424087048,0.00508299982175231,0.002836999949067831
1772384332350120000,9.062119873046875,0.0029879999347031116,0.00406600022688508,-0.0017290000105276704
1772384332370177300,9.08217724609375,0.0007910000276751816,0.004852999933063984,0.002615999896079302
1772384332390234600,9.102234619140624,0.0006329999887384474,-0.00011700000322889537,0.0004920000210404396
1772384332410292000,9.1222919921875,-0.0010930000571534038,-0.004093000199645758,-0.003604999976232648
1772384332430349300,9.142349365234375,0.0023250000085681677,0.0007239999831654131,-0.0012839999981224537
1772384332450407000,9.162406982421874,-0.0053400001488626,0.002979000099003315,-0.002626999979838729
1772384332470464000,9.182464111328125,0.005326999817043543,-0.0016159999649971724,-0.0005019999807700515
1772384332490521300,9.202521240234375,-0.003737000050023198,-0.006891999859362841,-0.00040099999750964344
1772384332510578700,9.22257861328125,-0.000590000010561198,-0.00951400026679039,0.0020779999904334545
1772384332530636000,9.242635986328125,0.0027280000504106283,-0.002010999945923686,0.003261999925598502
1772384332550693400,9.262693359375,-0.005018000025302172,0.0039900001138448715,0.0026100000832229853
1772384332570750700,9.282750732421874,0.0015849999617785215,-0.0008069999748840928,-0.007511000148952007
1772384332590808000,9.30280810546875,-0.0027310000732541084,0.001753999968059361,0.001990000018849969
1772384332610865400,9.322865478515626,-0.009386000223457813,-0.002595999976620078,0.003192000091075897
1772384332630922800,9.3429228515625,0.0036909999325871468,-0.006076999939978123,-0.007046000100672245
1772384332650980000,9.36297998046875,-0.0026469998992979527,0.0007379999733529985,-0.003235999960452318
1772384332671037400,9.383037353515626,0.0018820000113919377,0.0045900000259280205,-0.0025889999233186245
1772384332691094800,9.4030947265625,0.003106999909505248,0.007672000210732222,0.0011279999744147062
1772384332711152000,9.423152099609375,-0.0031139999628067017,0.002136999974027276,0.0073020001873373985
1772384332731209500,9.44320947265625,0.0031079999171197414,0.004110000096261501,0.0018420000560581684
1772384332751266800,9.463266845703124,0.0024870000779628754,-0.0031109999399632215,-0.0009260000078938901
1772384332771324200,9.48332421875,-0.0020099999383091927,0.003909999970346689,-0.0007409999961964786
1772384332791381500,9.503381591796876,0.0007910000276751816,0.0007280000136233866,0.0018070000223815441
1772384332811438800,9.52343896484375,0.0006329999887384474,-0.006616999860852957,0.0014449999434873462
1772384332831496200,9.54349609375,-0.007493000011891127,-0.002093000104650855,0.001155999954789877
1772384332851553500,9.563553466796876,-0.0019950000569224358,-0.0016749999485909939,-0.004674000199884176
1772384332871611000,9.58361083984375,-0.003994999919086695,0.0010590000310912728,-0.003739000065252185
1772384332891668200,9.603668212890625,0.0032019999343901873,0.000846999988425523,0.00020799999765586108
1772384332911725600,9.6237255859375,-0.003837000112980604,0.00467800023034215,0.00016599999798927456
1772384332931783000,9.643782958984374,0.0033289999701082706,-0.0002570000069681555,0.002532999962568283
1772384332951840300,9.66384033203125,0.0026630000211298466,-0.008205000311136246,-0.0019729998894035816
1772384332971897300,9.6838974609375,0.005330999847501516,-0.002563999965786934,-0.00317799998447299
1772384332991954700,9.70395458984375,0.008263999596238136,-0.006051000207662582,0.0006569999968633056
1772384333012012000,9.724011962890625,-0.014188000001013279,-0.021640999242663383,0.0029249999206513166
1772384333032069400,9.7440693359375,-0.015351000241935253,-0.01971299946308136,-0.007259000092744827
1772384333052126700,9.764126708984374,-0.0010809999657794833,0.015429000370204449,-0.005807000212371349
1772384333072183800,9.784183837890625,0.05513399839401245,0.08274299651384354,0.047352999448776245
1772384333092241400,9.804241455078126,0.02250799909234047,0.03339400142431259,0.00508299982175231
1772384333112298500,9.824298583984374,0.0068060001358389854,-0.018883999437093735,0.008066000416874886
1772384333132355800,9.84435595703125,-0.020955000072717667,-0.016706999391317368,0.004052999895066023
1772384333152413200,9.8644130859375,-0.02076300047338009,-0.01976500079035759,-0.025557000190019608
1772384333172470500,9.884470458984374,-0.022211000323295593,-0.013411999680101871,-0.002845000009983778
1772384333192528000,9.90452783203125,-0.016168000176548958,-0.001129999989643693,-0.025475999340415
1772384333212585000,9.9245849609375,-0.02253499999642372,0.004695000126957893,-0.03558100014925003
1772384333232642600,9.944642578125,-0.022027000784873962,-0.009843000210821629,-0.017264999449253082
1772384333252699600,9.96469970703125,0.0015770000172778964,-0.021474000066518784,0.005386999808251858
1772384333272757000,9.984757080078126,0.009260999970138073,-0.0011790000135079026,0.02191000059247017
1772384333292814300,10.004814453125,0.03940900042653084,0.02385599911212921,0.013527999632060528
1772384333312871700,10.02487158203125,0.03392599895596504,0.015084000304341316,0.001221999991685152
1772384333332929000,10.044928955078126,-0.000058000001445179805,-0.00873200036585331,0.010577999986708164
1772384333352986400,10.064986328125,-0.007246000226587057,-0.009384999983012676,0.01806199923157692
1772384333373043500,10.08504345703125,-0.000195999993593432,-0.005107999779284,0.0008490000036545098
1772384333393101000,10.10510107421875,0.0014420000370591879,0.012713000178337097,0.014279000461101532
1772384333413158100,10.125158203125,0.0011530000483617187,0.012570000253617764,0.0034229999873787165
1772384333433215500,10.145215576171875,0.00092299998505041,0.006056000012904406,-0.010060000233352184
1772384333453272800,10.16527294921875,-0.0008609999786131084,-0.008754000067710876,-0.004848000127822161
1772384333473330000,10.185329833984374,-0.00228899996727705,-0.005402999930083752,0.004120999947190285
1772384333493387500,10.205387451171875,0.005369000136852264,-0.0019229999743402004,0.003295999951660633
1772384333513444900,10.22544482421875,-0.0013040000339969993,-0.005537999793887138,-0.010962000116705894
1772384333533502000,10.245501953125,-0.002644000109285116,-0.004430000204592943,-0.0047690002247691154
1772384333553559300,10.265559326171875,0.0010849999962374568,0.010054999962449074,-0.011014999821782112
1772384333573616600,10.28561669921875,-0.3151319921016693,-0.03835500031709671,0.11758700013160706
1772384333593674000,10.305674072265624,0.46069398522377014,0.1549150049686432,-0.22032999992370605
1772384333613731300,10.3257314453125,-0.2714439928531647,0.016731999814510345,-0.1114640012383461
1772384333633788700,10.34578857421875,0.2596440017223358,0.007784999907016754,-0.07557100057601929
1772384333653845800,10.365845703125,-0.15788400173187256,0.039028000086545944,-0.13725699484348297
1772384333673903400,10.3859033203125,0.046491000801324844,-0.13757699728012085,0.23899400234222412
