time,seconds_elapsed,z,y,x
1772384323504738600,0.216738525390625,11.157000541687012,1.5019500255584717,4.809000015258789
1772384323524796200,0.236796142578125,11.137950897216797,1.2739500999450684,2.16795015335083
1772384323544853800,0.256853759765625,10.963050842285156,0.32895001769065857,0.6019500494003296
1772384323564911000,0.2769111328125,10.42905044555664,1.1640000343322754,0.5899500250816345
1772384323584969000,0.296968994140625,2.7079501152038574,2.9070000648498535,5.8030500411987305
1772384323605026600,0.317026611328125,10.402950286865234,0.5299500226974487,7.107000350952148
1772384323625084200,0.337084228515625,11.014050483703613,-0.034050002694129944,3.604950189590454
1772384323645141500,0.3571416015625,8.381999969482422,0.8770500421524048,2.070000171661377
1772384323665199400,0.377199462890625,15.261000633239746,1.741050124168396,1.1599500179290771
1772384323685257000,0.397257080078125,12.546000480651855,1.380000114440918,1.3159500360488892
1772384323705314600,0.417314453125,7.755000591278076,0.6679500341415405,1.8090001344680786
1772384323725372200,0.4373720703125,8.638050079345703,0.12495000660419464,1.5529500246047974
1772384323745429800,0.4574296875,9.679950714111328,0.8290500640869141,0.8560500144958496
1772384323765487400,0.4774873046875,9.117000579833984,1.2310500144958496,1.0260000228881836
1772384323785545000,0.497544921875,9.297000885009766,1.0200001001358032,1.3900500535964966
1772384323805602600,0.5176025390625,8.719950675964355,1.128000020980835,1.5769500732421875
1772384323825660200,0.53766015625,5.227050304412842,0.4459500312805176,1.6870501041412354
1772384323845717800,0.5577177734375,6.697050094604492,0.40995001792907715,1.6060501337051392
1772384323865775400,0.577775390625,22.333051681518555,1.3170000314712524,-0.6919500231742859
1772384323885833200,0.597833251953125,10.197000503540039,-0.30300000309944153,0.3679500222206116
1772384323905890800,0.617890869140625,8.0110502243042,0.49605002999305725,0.7290000319480896
1772384323925948400,0.637948486328125,11.385000228881836,0.07200000435113907,0.006000000052154064
1772384323946006000,0.658006103515625,9.28695011138916,0.2659500241279602,0.6340500116348267
1772384323966063600,0.678063720703125,10.372050285339355,0.13500000536441803,0.28395000100135803
1772384323986121200,0.698121337890625,8.940000534057617,0.25005000829696655,0.39900001883506775
1772384324006178800,0.7181787109375,10.875000953674316,0.07695000618696213,0.5879999995231628
1772384324026236400,0.738236328125,9.405000686645508,0.2350500077009201,0.4519500136375427
1772384324046294000,0.7582939453125,10.129950523376465,0.14205001294612885,0.4249500334262848
1772384324066351600,0.7783515625,9.951000213623047,0.17805001139640808,0.5209500193595886
1772384324086409500,0.798409423828125,9.927000045776367,0.14400000870227814,0.49695003032684326
1772384324106467000,0.818467041015625,9.91200065612793,0.15900000929832458,0.4729500114917755
1772384324126524700,0.838524658203125,9.892950057983398,0.1489500105381012,0.48705002665519714
1772384324146582300,0.858582275390625,9.903000831604004,0.1469999998807907,0.4849500358104706
1772384324166639900,0.878639892578125,9.903000831604004,0.1469999998807907,0.4759500324726105
1772384324186697700,0.89869775390625,9.907050132751465,0.1469999998807907,0.4759500324726105
1772384324206755300,0.91875537109375,9.92400074005127,0.15105000138282776,0.4830000102519989
1772384324226812700,0.938812744140625,9.927000045776367,0.15105000138282776,0.49695003032684326
1772384324246870500,0.95887060546875,9.919050216674805,0.15405000746250153,0.492000013589859
1772384324266928000,0.97892822265625,9.919050216674805,0.15900000929832458,0.49500003457069397
1772384324286986000,0.998986083984375,9.915000915527344,0.1469999998807907,0.49500003457069397
1772384324307043600,1.019043701171875,9.904950141906738,0.15900000929832458,0.47805002331733704
1772384324327101200,1.03910107421875,9.91200065612793,0.15105000138282776,0.48000001907348633
1772384324347158800,1.05915869140625,9.907050132751465,0.14205001294612885,0.4900500178337097
1772384324367216600,1.079216552734375,9.903000831604004,0.13905000686645508,0.4849500358104706
1772384324387274200,1.099274169921875,9.907050132751465,0.14400000870227814,0.4830000102519989
1772384324407331800,1.119331787109375,9.903000831604004,0.1469999998807907,0.48705002665519714
1772384324427389700,1.1393896484375,9.915000915527344,0.1469999998807907,0.4900500178337097
1772384324447447300,1.159447265625,9.915000915527344,0.15405000746250153,0.492000013589859
1772384324467505000,1.1795048828125,9.910050392150879,0.15405000746250153,0.49500003457069397
1772384324487562800,1.199562744140625,9.910050392150879,0.15405000746250153,0.4990500211715698
1772384324507620400,1.219620361328125,9.907050132751465,0.15900000929832458,0.4900500178337097
1772384324527678200,1.23967822265625,9.907050132751465,0.15600000321865082,0.48705002665519714
1772384324547735800,1.25973583984375,9.90000057220459,0.15105000138282776,0.4849500358104706
1772384324567793400,1.27979345703125,9.883050918579102,0.1469999998807907,0.4900500178337097
1772384324587851000,1.29985107421875,9.898050308227539,0.1680000126361847,0.47805002331733704
1772384324607908900,1.319908935546875,9.904950141906738,0.14400000870227814,0.48000001907348633
1772384324627966500,1.339966552734375,9.904950141906738,0.1489500105381012,0.492000013589859
1772384324648024000,1.360024169921875,9.904950141906738,0.13905000686645508,0.4990500211715698
1772384324668082000,1.38008203125,9.831000328063965,0.10605000704526901,0.47805002331733704
1772384324688139800,1.400139892578125,9.927000045776367,0.22605000436306,0.49695003032684326
1772384324708197400,1.420197265625,10.009950637817383,0.18495000898838043,0.5020500421524048
1772384324728254700,1.440254638671875,9.855000495910645,0.11805000901222229,0.4420500099658966
1772384324748312600,1.4603125,9.867000579833984,0.15405000746250153,0.492000013589859
1772384324768370200,1.4803701171875,9.891000747680664,0.12300000339746475,0.5110500454902649
1772384324788428000,1.500427978515625,9.919050216674805,0.1469999998807907,0.4900500178337097
1772384324808485600,1.520485595703125,9.87600040435791,0.1680000126361847,0.5020500421524048
1772384324828543200,1.540543212890625,9.922050476074219,0.1660500019788742,0.4900500178337097
1772384324848600800,1.560600830078125,9.915000915527344,0.15900000929832458,0.4990500211715698
1772384324868658700,1.58065869140625,9.880950927734375,0.13500000536441803,0.4849500358104706
1772384324888716300,1.60071630859375,9.88800048828125,0.1469999998807907,0.47805002331733704
1772384324908774000,1.62077392578125,9.904950141906738,0.15900000929832458,0.492000013589859
1772384324928831500,1.64083154296875,9.892950057983398,0.16095000505447388,0.4830000102519989
1772384324948889300,1.660889404296875,9.8860502243042,0.15900000929832458,0.48705002665519714
1772384324968947000,1.680947021484375,9.892950057983398,0.15900000929832458,0.48705002665519714
1772384324989004800,1.7010048828125,9.883050918579102,0.1489500105381012,0.48705002665519714
1772384325009062400,1.7210625,9.895050048828125,0.14400000870227814,0.492000013589859
1772384325029120300,1.741120361328125,9.898050308227539,0.15600000321865082,0.492000013589859
1772384325049177600,1.761177490234375,9.895050048828125,0.15105000138282776,0.48705002665519714
1772384325069235500,1.7812353515625,9.903000831604004,0.1489500105381012,0.4849500358104706
1772384325089293000,1.80129296875,9.883050918579102,0.13905000686645508,0.5040000081062317
1772384325109351000,1.821350830078125,9.880950927734375,0.15900000929832458,0.48705002665519714
1772384325129408500,1.841408447265625,9.891000747680664,0.16095000505447388,0.492000013589859
1772384325149466000,1.861466064453125,9.88800048828125,0.15405000746250153,0.492000013589859
1772384325169524000,1.88152392578125,9.88800048828125,0.15900000929832458,0.4900500178337097
1772384325189581600,1.90158154296875,9.883050918579102,0.14400000870227814,0.49500003457069397
1772384325209639200,1.92163916015625,9.880950927734375,0.1469999998807907,0.48705002665519714
1772384325229697000,1.941697021484375,9.892950057983398,0.15105000138282776,0.4900500178337097
1772384325249754600,1.961754638671875,9.8860502243042,0.15405000746250153,0.5020500421524048
1772384325269812500,1.9818125,9.871050834655762,0.14205001294612885,0.48705002665519714
1772384325289870300,2.001870361328125,9.891000747680664,0.1489500105381012,0.48705002665519714
1772384325309928000,2.021927978515625,9.883050918579102,0.15405000746250153,0.49500003457069397
1772384325329985300,2.0419853515625,9.8860502243042,0.15600000321865082,0.4830000102519989
1772384325350043100,2.062043212890625,9.880950927734375,0.15105000138282776,0.4990500211715698
1772384325370101000,2.08210107421875,9.883050918579102,0.1489500105381012,0.48705002665519714
1772384325390158600,2.10215869140625,9.87600040435791,0.15600000321865082,0.4900500178337097
1772384325410216400,2.122216552734375,9.880950927734375,0.15900000929832458,0.4849500358104706
1772384325430274000,2.142274169921875,9.87600040435791,0.1489500105381012,0.4830000102519989
1772384325450332000,2.162331787109375,9.87405014038086,0.1489500105381012,0.49500003457069397
1772384325470389500,2.182389404296875,9.87405014038086,0.1469999998807907,0.4849500358104706
1772384325490447000,2.202447021484375,9.87600040435791,0.15405000746250153,0.492000013589859
1772384325510504700,2.222504638671875,9.879000663757324,0.15105000138282776,0.492000013589859
1772384325530562600,2.2425625,9.883050918579102,0.1489500105381012,0.49500003457069397
1772384325550620200,2.2626201171875,9.879000663757324,0.15105000138282776,0.4849500358104706
1772384325570678000,2.282677978515625,9.87405014038086,0.15405000746250153,0.4830000102519989
1772384325590735600,2.302735595703125,9.87600040435791,0.15900000929832458,0.4900500178337097
1772384325610793200,2.322793212890625,9.86400032043457,0.15900000929832458,0.48705002665519714
1772384325630850800,2.342850830078125,9.867000579833984,0.15600000321865082,0.48705002665519714
1772384325650908700,2.36290869140625,9.879000663757324,0.15900000929832458,0.4849500358104706
1772384325670966300,2.38296630859375,9.883050918579102,0.16095000505447388,0.49500003457069397
1772384325691024100,2.403024169921875,9.87600040435791,0.1469999998807907,0.48705002665519714
1772384325711081700,2.423081787109375,9.879000663757324,0.13695000112056732,0.48705002665519714
1772384325731139300,2.443139404296875,9.868950843811035,0.15105000138282776,0.4900500178337097
1772384325751197200,2.463197265625,9.879000663757324,0.15600000321865082,0.49695003032684326
1772384325771254800,2.4832548828125,9.879000663757324,0.1469999998807907,0.4990500211715698
1772384325791312400,2.5033125,9.871050834655762,0.15600000321865082,0.4900500178337097
1772384325811370200,2.523370361328125,9.867000579833984,0.1469999998807907,0.48705002665519714
1772384325831427800,2.543427734375,9.868950843811035,0.15600000321865082,0.4900500178337097
1772384325851485700,2.563485595703125,9.868950843811035,0.15405000746250153,0.4830000102519989
1772384325871543300,2.583543212890625,9.871050834655762,0.15600000321865082,0.49500003457069397
1772384325891601200,2.60360107421875,9.871050834655762,0.1489500105381012,0.48705002665519714
1772384325911658800,2.62365869140625,9.868950843811035,0.15105000138282776,0.4849500358104706
1772384325931716400,2.64371630859375,9.871050834655762,0.15105000138282776,0.4849500358104706
1772384325951774000,2.66377392578125,9.868950843811035,0.15105000138282776,0.4900500178337097
1772384325971831800,2.683831787109375,9.871050834655762,0.15105000138282776,0.49500003457069397
1772384325991889400,2.703889404296875,9.868950843811035,0.1489500105381012,0.492000013589859
1772384326011947300,2.723947265625,9.867000579833984,0.15900000929832458,0.4830000102519989
1772384326032004900,2.7440048828125,9.867000579833984,0.1489500105381012,0.4900500178337097
1772384326052062500,2.7640625,9.867000579833984,0.15105000138282776,0.4990500211715698
1772384326072120000,2.7841201171875,9.871050834655762,0.15900000929832458,0.4900500178337097
1772384326092178000,2.804177978515625,9.868950843811035,0.15600000321865082,0.4849500358104706
1772384326112235500,2.824235595703125,9.871050834655762,0.1469999998807907,0.4849500358104706
1772384326132293400,2.84429345703125,9.867000579833984,0.15600000321865082,0.4900500178337097
1772384326152351000,2.86435107421875,9.871050834655762,0.15600000321865082,0.4900500178337097
1772384326172408600,2.88440869140625,9.867000579833984,0.15105000138282776,0.492000013589859
1772384326192466200,2.904466064453125,9.87405014038086,0.1469999998807907,0.49500003457069397
1772384326212523800,2.924523681640625,9.87600040435791,0.1489500105381012,0.4900500178337097
1772384326232581600,2.94458154296875,9.87405014038086,0.15405000746250153,0.4900500178337097
1772384326252639200,2.96463916015625,9.86205005645752,0.15405000746250153,0.49500003457069397
1772384326272697000,2.984697021484375,9.867000579833984,0.1489500105381012,0.492000013589859
1772384326292754700,3.004754638671875,9.856950759887695,0.1489500105381012,0.4900500178337097
1772384326312812300,3.024812255859375,9.856950759887695,0.15105000138282776,0.4830000102519989
1772384326332870000,3.044869873046875,9.855000495910645,0.1489500105381012,0.5020500421524048
1772384326352927700,3.064927734375,9.86400032043457,0.15600000321865082,0.48705002665519714
1772384326372985300,3.0849853515625,9.86205005645752,0.14400000870227814,0.4900500178337097
1772384326393043000,3.10504296875,9.86400032043457,0.1489500105381012,0.48705002665519714
1772384326413100800,3.125100830078125,9.859950065612793,0.14400000870227814,0.492000013589859
1772384326433158100,3.145158203125,9.86400032043457,0.1489500105381012,0.492000013589859
1772384326453216000,3.165216064453125,9.856950759887695,0.15600000321865082,0.49500003457069397
1772384326473273600,3.185273681640625,9.86400032043457,0.15405000746250153,0.4900500178337097
1772384326493331200,3.205331298828125,9.871050834655762,0.15600000321865082,0.4990500211715698
1772384326513389000,3.22538916015625,9.86205005645752,0.16095000505447388,0.5070000290870667
1772384326533446700,3.24544677734375,9.86205005645752,0.15600000321865082,0.49500003457069397
1772384326553504300,3.265504150390625,9.859950065612793,0.15600000321865082,0.4849500358104706
1772384326573562000,3.28556201171875,9.86205005645752,0.1489500105381012,0.48705002665519714
1772384326593619700,3.30561962890625,9.859950065612793,0.15105000138282776,0.4900500178337097
1772384326613677300,3.32567724609375,9.856950759887695,0.15600000321865082,0.48705002665519714
1772384326633735000,3.34573486328125,9.867000579833984,0.15600000321865082,0.4830000102519989
1772384326653792500,3.36579248046875,9.859950065612793,0.1489500105381012,0.49695003032684326
1772384326673850400,3.385850341796875,9.856950759887695,0.1489500105381012,0.4900500178337097
1772384326693908000,3.405907958984375,9.86400032043457,0.15105000138282776,0.48705002665519714
1772384326713965600,3.425965576171875,9.86205005645752,0.15900000929832458,0.4849500358104706
1772384326734023200,3.446023193359375,9.850050926208496,0.15105000138282776,0.4900500178337097
1772384326754080800,3.466080810546875,9.85200023651123,0.15405000746250153,0.49500003457069397
1772384326774138600,3.486138671875,9.855000495910645,0.1489500105381012,0.492000013589859
1772384326794196200,3.5061962890625,9.856950759887695,0.1489500105381012,0.48705002665519714
1772384326814253600,3.526253662109375,9.859950065612793,0.15405000746250153,0.4849500358104706
1772384326834311200,3.546311279296875,9.844950675964355,0.15405000746250153,0.48705002665519714
1772384326854369000,3.566369140625,9.855000495910645,0.15600000321865082,0.48705002665519714
1772384326874426600,3.586426513671875,9.856950759887695,0.15405000746250153,0.4900500178337097
1772384326894484500,3.606484375,9.867000579833984,0.14400000870227814,0.48705002665519714
1772384326914541800,3.626541748046875,9.859950065612793,0.15105000138282776,0.4849500358104706
1772384326934599700,3.646599609375,9.86400032043457,0.16095000505447388,0.492000013589859
1772384326954657300,3.6666572265625,9.867000579833984,0.15405000746250153,0.49695003032684326
1772384326974715000,3.68671484375,9.859950065612793,0.1469999998807907,0.49695003032684326
1772384326994772500,3.7067724609375,9.859950065612793,0.1469999998807907,0.48705002665519714
1772384327014830000,3.726830078125,9.86205005645752,0.15405000746250153,0.492000013589859
1772384327034888000,3.746887939453125,9.850050926208496,0.1469999998807907,0.4900500178337097
1772384327054945500,3.766945556640625,9.859950065612793,0.15600000321865082,0.48705002665519714
1772384327075003000,3.7870029296875,9.86400032043457,0.14400000870227814,0.4849500358104706
1772384327095060700,3.807060791015625,9.859950065612793,0.1489500105381012,0.4900500178337097
1772384327115118300,3.827118408203125,9.859950065612793,0.15405000746250153,0.4900500178337097
1772384327135176000,3.847176025390625,9.86400032043457,0.15105000138282776,0.492000013589859
1772384327155233500,3.867233642578125,9.871050834655762,0.15405000746250153,0.4830000102519989
1772384327175291100,3.887291015625,9.855000495910645,0.1489500105381012,0.492000013589859
1772384327195348700,3.9073486328125,9.856950759887695,0.15405000746250153,0.47805002331733704
1772384327215406300,3.92740625,9.856950759887695,0.15900000929832458,0.492000013589859
1772384327235464000,3.9474638671875,9.856950759887695,0.16095000505447388,0.492000013589859
1772384327255521800,3.967521728515625,9.86205005645752,0.15105000138282776,0.4900500178337097
1772384327275579400,3.987579345703125,9.856950759887695,0.1489500105381012,0.492000013589859
1772384327295636700,4.00763671875,9.859950065612793,0.15105000138282776,0.492000013589859
1772384327315694300,4.0276943359375,9.86400032043457,0.15600000321865082,0.492000013589859
1772384327335752200,4.047752197265625,9.85200023651123,0.15105000138282776,0.49695003032684326
1772384327355809800,4.067809814453125,9.86205005645752,0.1469999998807907,0.4900500178337097
1772384327375867400,4.087867431640625,9.86400032043457,0.14400000870227814,0.4900500178337097
1772384327395925000,4.107925048828125,9.86205005645752,0.15405000746250153,0.48705002665519714
1772384327415982600,4.127982666015625,9.855000495910645,0.15900000929832458,0.4900500178337097
1772384327436040200,4.148040283203125,9.855000495910645,0.15600000321865082,0.49500003457069397
1772384327456097800,4.168097900390625,9.859950065612793,0.15105000138282776,0.492000013589859
1772384327476155400,4.1881552734375,9.859950065612793,0.15105000138282776,0.49500003457069397
1772384327496212700,4.208212646484375,9.86400032043457,0.15600000321865082,0.492000013589859
1772384327516270600,4.2282705078125,9.856950759887695,0.15600000321865082,0.49500003457069397
1772384327536328200,4.248328125,9.856950759887695,0.1489500105381012,0.49500003457069397
1772384327556385800,4.2683857421875,9.856950759887695,0.15405000746250153,0.492000013589859
1772384327576443400,4.288443359375,9.856950759887695,0.1489500105381012,0.48000001907348633
1772384327596500700,4.308500732421875,9.86400032043457,0.15900000929832458,0.4849500358104706
1772384327616558600,4.32855859375,9.859950065612793,0.15600000321865082,0.492000013589859
1772384327636616200,4.3486162109375,9.86205005645752,0.15105000138282776,0.492000013589859
1772384327656673800,4.368673828125,9.86205005645752,0.15105000138282776,0.492000013589859
1772384327676731400,4.3887314453125,9.868950843811035,0.15600000321865082,0.5020500421524048
1772384327696788700,4.408788818359375,9.86400032043457,0.15405000746250153,0.5040000081062317
1772384327716846600,4.4288466796875,9.867000579833984,0.14400000870227814,0.49500003457069397
1772384327736904200,4.448904296875,9.85200023651123,0.1489500105381012,0.4900500178337097
1772384327756961800,4.4689619140625,9.855000495910645,0.1489500105381012,0.492000013589859
1772384327777019400,4.489019287109375,9.86205005645752,0.14205001294612885,0.4900500178337097
1772384327797076700,4.50907666015625,9.859950065612793,0.1469999998807907,0.4849500358104706
1772384327817134300,4.52913427734375,9.856950759887695,0.15900000929832458,0.4830000102519989
1772384327837192000,4.54919189453125,9.859950065612793,0.16095000505447388,0.492000013589859
1772384327857249800,4.569249755859375,9.859950065612793,0.15105000138282776,0.492000013589859
1772384327877307100,4.58930712890625,9.856950759887695,0.15105000138282776,0.49500003457069397
1772384327897364700,4.60936474609375,9.86205005645752,0.1469999998807907,0.492000013589859
1772384327917422300,4.62942236328125,9.867000579833984,0.16095000505447388,0.4900500178337097
1772384327937480000,4.64947998046875,9.85200023651123,0.15405000746250153,0.48705002665519714
1772384327957537500,4.66953759765625,9.856950759887695,0.14400000870227814,0.4900500178337097
1772384327977595100,4.68959521484375,9.85200023651123,0.15105000138282776,0.48705002665519714
1772384327997652500,4.709652587890625,9.859950065612793,0.16095000505447388,0.48705002665519714
1772384328017710000,4.7297099609375,9.859950065612793,0.16095000505447388,0.49500003457069397
1772384328037768000,4.749767822265625,9.859950065612793,0.15105000138282776,0.4900500178337097
1772384328057825500,4.769825439453125,9.86400032043457,0.14400000870227814,0.492000013589859
1772384328077883000,4.7898828125,9.859950065612793,0.15405000746250153,0.4830000102519989
1772384328097940500,4.8099404296875,9.86400032043457,0.15600000321865082,0.48705002665519714
1772384328117998000,4.829998046875,9.86205005645752,0.15105000138282776,0.4830000102519989
1772384328138055700,4.8500556640625,9.856950759887695,0.14400000870227814,0.492000013589859
1772384328158113300,4.87011328125,9.85200023651123,0.1489500105381012,0.4849500358104706
1772384328178170600,4.890170654296875,9.859950065612793,0.15405000746250153,0.49500003457069397
1772384328198228200,4.910228271484375,9.86205005645752,0.1489500105381012,0.4900500178337097
1772384328218285800,4.930285888671875,9.850050926208496,0.15900000929832458,0.48705002665519714
1772384328238343200,4.95034326171875,9.859950065612793,0.15405000746250153,0.48705002665519714
1772384328258401000,4.970401123046875,9.86205005645752,0.16095000505447388,0.4900500178337097
1772384328278458600,4.990458740234375,9.86400032043457,0.16305001080036163,0.48705002665519714
1772384328298516200,5.01051611328125,9.867000579833984,0.15900000929832458,0.49500003457069397
1772384328318573600,5.030573486328125,9.859950065612793,0.15600000321865082,0.492000013589859
1772384328338631200,5.050631103515625,9.859950065612793,0.15405000746250153,0.48705002665519714
1772384328358688800,5.070688720703125,9.85200023651123,0.15105000138282776,0.492000013589859
1772384328378746400,5.090746337890625,9.859950065612793,0.15405000746250153,0.49695003032684326
1772384328398803700,5.1108037109375,9.859950065612793,0.15405000746250153,0.4830000102519989
1772384328418861300,5.130861328125,9.856950759887695,0.14400000870227814,0.4900500178337097
1772384328438919000,5.1509189453125,9.859950065612793,0.15405000746250153,0.4849500358104706
1772384328458976500,5.1709765625,9.855000495910645,0.15600000321865082,0.492000013589859
1772384328479033900,5.191033935546875,9.859950065612793,0.15600000321865082,0.49695003032684326
1772384328499091500,5.211091552734375,9.84795093536377,0.15405000746250153,0.4900500178337097
1772384328519149000,5.231149169921875,9.84795093536377,0.15105000138282776,0.492000013589859
1772384328539206700,5.25120654296875,9.855000495910645,0.15900000929832458,0.4830000102519989
1772384328559264300,5.27126416015625,9.850050926208496,0.15405000746250153,0.49695003032684326
1772384328579321600,5.291321533203125,9.850050926208496,0.15900000929832458,0.49695003032684326
1772384328599379200,5.311379150390625,9.859950065612793,0.15405000746250153,0.48705002665519714
1772384328619436500,5.3314365234375,9.859950065612793,0.1489500105381012,0.48705002665519714
1772384328639494100,5.351494140625,9.85200023651123,0.15600000321865082,0.48705002665519714
1772384328659551700,5.3715517578125,9.84795093536377,0.15600000321865082,0.4830000102519989
1772384328679609300,5.391609375,9.86400032043457,0.15405000746250153,0.4900500178337097
1772384328699667000,5.4116669921875,9.87405014038086,0.15105000138282776,0.5040000081062317
1772384328719724300,5.431724365234375,9.87600040435791,0.17100000381469727,0.5020500421524048
1772384328739782000,5.451781982421875,9.855000495910645,0.16305001080036163,0.5020500421524048
1772384328759839500,5.471839599609375,9.85200023651123,0.14205001294612885,0.4830000102519989
1772384328779897000,5.49189697265625,9.844950675964355,0.14400000870227814,0.492000013589859
1772384328799954700,5.51195458984375,9.855000495910645,0.15600000321865082,0.48705002665519714
1772384328820012000,5.532011962890625,9.86400032043457,0.15105000138282776,0.48705002665519714
1772384328840069400,5.5520693359375,9.85200023651123,0.15105000138282776,0.48705002665519714
1772384328860127200,5.572127197265625,9.84795093536377,0.15105000138282776,0.48705002665519714
1772384328880184600,5.5921845703125,9.85200023651123,0.14400000870227814,0.48705002665519714
1772384328900242200,5.6122421875,9.867000579833984,0.16095000505447388,0.48705002665519714
1772384328920299500,5.632299560546875,9.86205005645752,0.16095000505447388,0.492000013589859
1772384328940357000,5.652357177734375,9.86205005645752,0.1680000126361847,0.49500003457069397
1772384328960414700,5.672414794921875,9.859950065612793,0.15405000746250153,0.5020500421524048
1772384328980472300,5.692472412109375,9.850050926208496,0.15900000929832458,0.4990500211715698
1772384329000529700,5.71252978515625,9.85200023651123,0.1489500105381012,0.4900500178337097
1772384329020587300,5.732587158203125,9.856950759887695,0.15900000929832458,0.48705002665519714
1772384329040644900,5.752644775390625,9.855000495910645,0.16095000505447388,0.492000013589859
1772384329060702200,5.7727021484375,9.86205005645752,0.15900000929832458,0.48705002665519714
1772384329080759800,5.792759765625,9.85200023651123,0.15405000746250153,0.48705002665519714
1772384329100817200,5.812817138671875,9.84795093536377,0.15600000321865082,0.4830000102519989
1772384329120875000,5.832875,9.856950759887695,0.1469999998807907,0.4849500358104706
1772384329140932000,5.85293212890625,9.859950065612793,0.15900000929832458,0.4900500178337097
1772384329160989700,5.87298974609375,9.871050834655762,0.1489500105381012,0.49695003032684326
1772384329181047300,5.89304736328125,9.867000579833984,0.15600000321865082,0.48705002665519714
1772384329201104600,5.913104736328125,9.856950759887695,0.15105000138282776,0.4900500178337097
1772384329221162200,5.933162353515625,9.843000411987305,0.14400000870227814,0.47805002331733704
1772384329241219800,5.9532197265625,9.855000495910645,0.1489500105381012,0.48000001907348633
1772384329261277200,5.973277099609375,9.859950065612793,0.16305001080036163,0.4900500178337097
1772384329281334800,5.993334716796875,9.859950065612793,0.16095000505447388,0.4900500178337097
1772384329301392100,6.01339208984375,9.855000495910645,0.15405000746250153,0.48000001907348633
1772384329321449700,6.03344970703125,9.855000495910645,0.1489500105381012,0.4849500358104706
1772384329341507300,6.05350732421875,9.86205005645752,0.16095000505447388,0.47805002331733704
1772384329361564700,6.073564697265625,9.856950759887695,0.14205001294612885,0.48000001907348633
1772384329381622300,6.093622314453125,9.855000495910645,0.1469999998807907,0.4849500358104706
1772384329401679600,6.1136796875,9.86205005645752,0.1489500105381012,0.4830000102519989
1772384329421737200,6.1337373046875,9.86400032043457,0.15600000321865082,0.49500003457069397
1772384329441794800,6.153794921875,9.86205005645752,0.15405000746250153,0.4900500178337097
1772384329461852200,6.17385205078125,9.859950065612793,0.15405000746250153,0.48705002665519714
1772384329481909800,6.19390966796875,9.856950759887695,0.16095000505447388,0.492000013589859
1772384329501967000,6.213967041015625,9.856950759887695,0.15105000138282776,0.4830000102519989
1772384329522024700,6.234024658203125,9.844950675964355,0.15405000746250153,0.4830000102519989
1772384329542082000,6.25408203125,9.859950065612793,0.16095000505447388,0.48705002665519714
1772384329562139400,6.274139404296875,9.86400032043457,0.15405000746250153,0.4849500358104706
1772384329582197000,6.294197021484375,9.85200023651123,0.1489500105381012,0.47805002331733704
1772384329602254600,6.314254638671875,9.850050926208496,0.1489500105381012,0.47805002331733704
1772384329622312000,6.33431201171875,9.86400032043457,0.15405000746250153,0.4900500178337097
1772384329642369500,6.35436962890625,9.868950843811035,0.16095000505447388,0.492000013589859
1772384329662427000,6.374427001953125,9.859950065612793,0.15900000929832458,0.49500003457069397
1772384329682484500,6.394484375,9.86400032043457,0.1469999998807907,0.492000013589859
1772384329702542000,6.4145419921875,9.855000495910645,0.15600000321865082,0.49500003457069397
1772384329722599400,6.434599365234375,9.855000495910645,0.15600000321865082,0.4849500358104706
1772384329742657000,6.454656982421875,9.856950759887695,0.1489500105381012,0.4900500178337097
1772384329762714600,6.474714599609375,9.85200023651123,0.15600000321865082,0.48705002665519714
1772384329782772000,6.49477197265625,9.86400032043457,0.15405000746250153,0.4759500324726105
1772384329802829300,6.514829345703125,9.859950065612793,0.15105000138282776,0.48000001907348633
1772384329822887000,6.534886962890625,9.86205005645752,0.1489500105381012,0.48000001907348633
1772384329842944500,6.554944580078125,9.856950759887695,0.15105000138282776,0.492000013589859
1772384329863001900,6.575001953125,9.859950065612793,0.13905000686645508,0.49500003457069397
1772384329883059200,6.59505908203125,9.859950065612793,0.1489500105381012,0.48705002665519714
1772384329903116800,6.61511669921875,9.855000495910645,0.1489500105381012,0.492000013589859
1772384329923174400,6.63517431640625,9.855000495910645,0.1489500105381012,0.4849500358104706
1772384329943231700,6.655231689453125,9.850050926208496,0.14400000870227814,0.4900500178337097
1772384329963289000,6.6752890625,9.855000495910645,0.1489500105381012,0.492000013589859
1772384329983346700,6.6953466796875,9.84795093536377,0.15405000746250153,0.492000013589859
1772384330003404000,6.715404052734375,9.85200023651123,0.15405000746250153,0.4830000102519989
1772384330023461600,6.735461669921875,9.85200023651123,0.1469999998807907,0.4830000102519989
1772384330043519000,6.75551904296875,9.856950759887695,0.15600000321865082,0.4849500358104706
1772384330063576600,6.77557666015625,9.859950065612793,0.15105000138282776,0.4830000102519989
1772384330083634000,6.795634033203125,9.86205005645752,0.15405000746250153,0.48705002665519714
1772384330103691500,6.81569140625,9.856950759887695,0.15900000929832458,0.4830000102519989
1772384330123748900,6.835748779296875,9.855000495910645,0.1660500019788742,0.48705002665519714
1772384330143806200,6.85580615234375,9.856950759887695,0.15600000321865082,0.4849500358104706
1772384330163863800,6.87586376953125,9.843000411987305,0.15405000746250153,0.4830000102519989
1772384330183921200,6.895921142578125,9.84795093536377,0.15405000746250153,0.4830000102519989
1772384330203978800,6.915978759765625,9.856950759887695,0.1469999998807907,0.48705002665519714
1772384330224036000,6.9360361328125,9.85200023651123,0.15600000321865082,0.4849500358104706
1772384330244093400,6.956093505859375,9.86400032043457,0.15600000321865082,0.48705002665519714
1772384330264150800,6.97615087890625,9.856950759887695,0.1489500105381012,0.4900500178337097
1772384330284208400,6.99620849609375,9.867000579833984,0.1489500105381012,0.4830000102519989
1772384330304265700,7.016265625,9.868950843811035,0.15105000138282776,0.49500003457069397
1772384330324323300,7.0363232421875,9.867000579833984,0.15600000321865082,0.49500003457069397
1772384330344380700,7.056380615234375,9.859950065612793,0.15405000746250153,0.4900500178337097
1772384330364438300,7.076438232421875,9.856950759887695,0.15105000138282776,0.48705002665519714
1772384330384495600,7.09649560546875,9.855000495910645,0.1469999998807907,0.47805002331733704
1772384330404553000,7.116552978515625,9.86205005645752,0.16095000505447388,0.48000001907348633
1772384330424610300,7.1366103515625,9.856950759887695,0.15405000746250153,0.48000001907348633
1772384330444668000,7.15666796875,9.867000579833984,0.14400000870227814,0.4830000102519989
1772384330464725200,7.176725341796875,9.855000495910645,0.15105000138282776,0.48705002665519714
1772384330484782600,7.196782470703125,9.86400032043457,0.1489500105381012,0.47805002331733704
1772384330504840200,7.216840087890625,9.871050834655762,0.15600000321865082,0.4900500178337097
1772384330524897500,7.2368974609375,9.867000579833984,0.1660500019788742,0.4900500178337097
1772384330544955100,7.256955078125,9.859950065612793,0.15105000138282776,0.4830000102519989
1772384330565012500,7.277012451171875,9.855000495910645,0.15900000929832458,0.48000001907348633
1772384330585069800,7.29706982421875,9.856950759887695,0.15105000138282776,0.4849500358104706
1772384330605127400,7.31712744140625,9.859950065612793,0.15405000746250153,0.48705002665519714
1772384330625184800,7.337184814453125,9.859950065612793,0.15600000321865082,0.4849500358104706
1772384330645242400,7.357242431640625,9.84795093536377,0.15105000138282776,0.4759500324726105
1772384330665299700,7.3772998046875,9.85200023651123,0.13695000112056732,0.48000001907348633
1772384330685357000,7.397357177734375,9.856950759887695,0.15105000138282776,0.4830000102519989
1772384330705414700,7.41741455078125,9.879000663757324,0.16305001080036163,0.492000013589859
1772384330725472000,7.437471923828125,9.87405014038086,0.15900000929832458,0.49500003457069397
1772384330745529300,7.457529296875,9.86400032043457,0.1489500105381012,0.4990500211715698
1772384330765587000,7.4775869140625,9.855000495910645,0.1489500105381012,0.492000013589859
1772384330785644000,7.49764404296875,9.855000495910645,0.15900000929832458,0.49695003032684326
1772384330805701600,7.51770166015625,9.850050926208496,0.1489500105381012,0.4900500178337097
1772384330825759000,7.537759033203125,9.855000495910645,0.15405000746250153,0.48705002665519714
1772384330845816300,7.55781640625,9.868950843811035,0.15105000138282776,0.492000013589859
1772384330865874000,7.5778740234375,9.85200023651123,0.1489500105381012,0.47805002331733704
1772384330885931300,7.59793115234375,9.85200023651123,0.15900000929832458,0.48000001907348633
1772384330905988600,7.617988525390625,9.859950065612793,0.15405000746250153,0.492000013589859
1772384330926046000,7.6380458984375,9.867000579833984,0.15105000138282776,0.492000013589859
1772384330946103600,7.658103515625,9.86205005645752,0.15600000321865082,0.48705002665519714
1772384330966160600,7.67816064453125,9.86400032043457,0.15405000746250153,0.4900500178337097
1772384330986218200,7.69821826171875,9.859950065612793,0.1469999998807907,0.4900500178337097
1772384331006275600,7.718275634765625,9.85200023651123,0.15105000138282776,0.47805002331733704
1772384331026333000,7.7383330078125,9.855000495910645,0.15105000138282776,0.4830000102519989
1772384331046390500,7.758390625,9.86205005645752,0.1489500105381012,0.49500003457069397
1772384331066448000,7.77844775390625,9.859950065612793,0.15105000138282776,0.492000013589859
1772384331086505200,7.798505126953125,9.871050834655762,0.16095000505447388,0.4900500178337097
1772384331106562800,7.818562744140625,9.86400032043457,0.15900000929832458,0.49695003032684326
1772384331126620200,7.8386201171875,9.871050834655762,0.16095000505447388,0.48705002665519714
1772384331146677500,7.858677490234375,9.86205005645752,0.15600000321865082,0.48705002665519714
1772384331166734800,7.87873486328125,9.855000495910645,0.15105000138282776,0.4830000102519989
1772384331186792400,7.89879248046875,9.856950759887695,0.15600000321865082,0.492000013589859
1772384331206849800,7.918849853515625,9.87405014038086,0.15600000321865082,0.49500003457069397
1772384331226907100,7.9389072265625,9.86400032043457,0.15405000746250153,0.49695003032684326
1772384331246964500,7.958964599609375,9.856950759887695,0.1469999998807907,0.48000001907348633
1772384331267022000,7.97902197265625,9.856950759887695,0.14400000870227814,0.492000013589859
1772384331287079200,7.9990791015625,9.859950065612793,0.15600000321865082,0.48705002665519714
1772384331307136800,8.01913671875,9.867000579833984,0.1489500105381012,0.4990500211715698
1772384331327194000,8.039194091796874,9.867000579833984,0.15105000138282776,0.49500003457069397
1772384331347251500,8.05925146484375,9.86400032043457,0.15405000746250153,0.4849500358104706
1772384331367309000,8.07930908203125,9.867000579833984,0.1469999998807907,0.4849500358104706
1772384331387366400,8.099366455078124,9.86400032043457,0.15600000321865082,0.49500003457069397
1772384331407423700,8.119423828125,9.859950065612793,0.15405000746250153,0.48705002665519714
1772384331427481000,8.139481201171876,9.86205005645752,0.16095000505447388,0.49695003032684326
1772384331447538400,8.159538330078124,9.86205005645752,0.15405000746250153,0.4830000102519989
1772384331467595800,8.179595703125,9.85200023651123,0.14400000870227814,0.4849500358104706
1772384331487653400,8.1996533203125,9.86205005645752,0.1469999998807907,0.47805002331733704
1772384331507710500,8.21971044921875,9.867000579833984,0.1660500019788742,0.4849500358104706
1772384331527768000,8.23976806640625,9.87405014038086,0.15105000138282776,0.492000013589859
1772384331547825400,8.259825439453126,9.87600040435791,0.15105000138282776,0.4900500178337097
1772384331567882800,8.2798828125,9.85200023651123,0.16305001080036163,0.4900500178337097
1772384331587940000,8.299940185546875,9.82395076751709,0.15405000746250153,0.4729500114917755
1772384331607997700,8.319997802734376,9.807000160217285,0.13005000352859497,0.4639500081539154
1772384331628054800,8.3400546875,9.85200023651123,0.13500000536441803,0.46800002455711365
1772384331648112400,8.3601123046875,9.898050308227539,0.15900000929832458,0.4759500324726105
1772384331668169700,8.380169677734376,9.92400074005127,0.19200000166893005,0.5110500454902649
1772384331688227000,8.40022705078125,9.916950225830078,0.18000000715255737,0.5400000214576721
1772384331708284400,8.420284423828125,9.86400032043457,0.15405000746250153,0.5230500102043152
1772384331728341800,8.440341796875,9.843000411987305,0.14205001294612885,0.49500003457069397
1772384331748399000,8.460399169921875,9.819000244140625,0.14205001294612885,0.48000001907348633
1772384331768456700,8.480456787109375,9.838050842285156,0.1489500105381012,0.4639500081539154
1772384331788514000,8.50051416015625,9.86205005645752,0.15105000138282776,0.45900002121925354
1772384331808571400,8.5205712890625,9.856950759887695,0.15600000321865082,0.4710000157356262
1772384331828628700,8.540628662109375,9.86400032043457,0.14205001294612885,0.48705002665519714
1772384331848686000,8.56068603515625,9.868950843811035,0.1489500105381012,0.48705002665519714
1772384331868743400,8.580743408203125,9.871050834655762,0.16095000505447388,0.492000013589859
1772384331888800800,8.60080078125,9.85200023651123,0.1660500019788742,0.4900500178337097
1772384331908858000,8.620858154296876,9.86205005645752,0.16305001080036163,0.492000013589859
1772384331928915700,8.640915771484375,9.86205005645752,0.14205001294612885,0.49500003457069397
1772384331948973000,8.66097314453125,9.86205005645752,0.15105000138282776,0.49500003457069397
1772384331969030400,8.681030517578124,9.86400032043457,0.15900000929832458,0.48705002665519714
1772384331989087500,8.70108740234375,9.86205005645752,0.16305001080036163,0.49500003457069397
1772384332009145000,8.72114501953125,9.85200023651123,0.15405000746250153,0.48705002665519714
1772384332029202400,8.741202392578124,9.838050842285156,0.15600000321865082,0.4849500358104706
1772384332049259800,8.761259765625,9.850050926208496,0.1469999998807907,0.4900500178337097
1772384332069317000,8.781317138671875,9.859950065612793,0.1660500019788742,0.48705002665519714
1772384332089374500,8.80137451171875,9.867000579833984,0.15405000746250153,0.4900500178337097
1772384332109431800,8.821431884765625,9.868950843811035,0.15405000746250153,0.492000013589859
1772384332129489200,8.8414892578125,9.867000579833984,0.15600000321865082,0.48705002665519714
1772384332149546500,8.86154638671875,9.867000579833984,0.14400000870227814,0.4849500358104706
1772384332169603800,8.881603759765625,9.856950759887695,0.15600000321865082,0.48705002665519714
1772384332189661400,8.901661376953125,9.855000495910645,0.15405000746250153,0.4900500178337097
1772384332209718500,8.921718505859374,9.859950065612793,0.15600000321865082,0.4849500358104706
1772384332229776000,8.94177587890625,9.850050926208496,0.15105000138282776,0.492000013589859
1772384332249833200,8.961833251953125,9.856950759887695,0.15900000929832458,0.4900500178337097
1772384332269890600,8.981890625,9.856950759887695,0.15405000746250153,0.48000001907348633
1772384332289948000,9.001947998046875,9.859950065612793,0.1469999998807907,0.492000013589859
1772384332310005200,9.022005126953125,9.86400032043457,0.15105000138282776,0.4900500178337097
1772384332330062600,9.0420625,9.86400032043457,0.15900000929832458,0.492000013589859
1772384332350120000,9.062119873046875,9.86400032043457,0.15900000929832458,0.48705002665519714
1772384332370177300,9.08217724609375,9.86205005645752,0.16095000505447388,0.492000013589859
1772384332390234600,9.102234619140624,9.86205005645752,0.15600000321865082,0.4900500178337097
1772384332410292000,9.1222919921875,9.859950065612793,0.15105000138282776,0.4849500358104706
1772384332430349300,9.142349365234375,9.86400032043457,0.15600000321865082,0.48705002665519714
1772384332450407000,9.162406982421874,9.855000495910645,0.15900000929832458,0.4849500358104706
1772384332470464000,9.182464111328125,9.867000579833984,0.15405000746250153,0.48705002665519714
1772384332490521300,9.202521240234375,9.856950759887695,0.1469999998807907,0.48705002665519714
1772384332510578700,9.22257861328125,9.859950065612793,0.14205001294612885,0.4900500178337097
1772384332530636000,9.242635986328125,9.86400032043457,0.1489500105381012,0.492000013589859
1772384332550693400,9.262693359375,9.855000495910645,0.15600000321865082,0.492000013589859
1772384332570750700,9.282750732421874,9.86205005645752,0.15105000138282776,0.48000001907348633
1772384332590808000,9.30280810546875,9.856950759887695,0.15405000746250153,0.4900500178337097
1772384332610865400,9.322865478515626,9.84795093536377,0.1489500105381012,0.492000013589859
1772384332630922800,9.3429228515625,9.86205005645752,0.14400000870227814,0.48000001907348633
1772384332650980000,9.36297998046875,9.855000495910645,0.15105000138282776,0.4830000102519989
1772384332671037400,9.383037353515626,9.859950065612793,0.15600000321865082,0.4830000102519989
1772384332691094800,9.4030947265625,9.86205005645752,0.16095000505447388,0.48705002665519714
1772384332711152000,9.423152099609375,9.855000495910645,0.15600000321865082,0.49500003457069397
1772384332731209500,9.44320947265625,9.86205005645752,0.15900000929832458,0.4900500178337097
1772384332751266800,9.463266845703124,9.86205005645752,0.15105000138282776,0.48705002665519714
1772384332771324200,9.48332421875,9.856950759887695,0.15900000929832458,0.48705002665519714
1772384332791381500,9.503381591796876,9.859950065612793,0.15600000321865082,0.4900500178337097
1772384332811438800,9.52343896484375,9.859950065612793,0.1469999998807907,0.4900500178337097
1772384332831496200,9.54349609375,9.850050926208496,0.15105000138282776,0.4900500178337097
1772384332851553500,9.563553466796876,9.855000495910645,0.15105000138282776,0.4830000102519989
1772384332871611000,9.58361083984375,9.85200023651123,0.15405000746250153,0.4830000102519989
1772384332891668200,9.603668212890625,9.859950065612793,0.15405000746250153,0.48705002665519714
1772384332911725600,9.6237255859375,9.85200023651123,0.15900000929832458,0.48705002665519714
1772384332931783000,9.643782958984374,9.859950065612793,0.15405000746250153,0.4900500178337097
1772384332951840300,9.66384033203125,9.859950065612793,0.14400000870227814,0.4849500358104706
1772384332971897300,9.6838974609375,9.86400032043457,0.1489500105381012,0.4830000102519989
1772384332991954700,9.70395458984375,9.868950843811035,0.14400000870227814,0.48705002665519714
1772384333012012000,9.724011962890625,9.843000411987305,0.12300000339746475,0.4900500178337097
1772384333032069400,9.7440693359375,9.838050842285156,0.12000000476837158,0.47805002331733704
1772384333052126700,9.764126708984374,9.85200023651123,0.15900000929832458,0.47805002331733704
1772384333072183800,9.784183837890625,9.922050476074219,0.24705001711845398,0.5430000424385071
1772384333092241400,9.804241455078126,9.895050048828125,0.20595000684261322,0.5020500421524048
1772384333112298500,9.824298583984374,9.880950927734375,0.1489500105381012,0.5070000290870667
1772384333132355800,9.84435595703125,9.84795093536377,0.1469999998807907,0.5040000081062317
1772384333152413200,9.8644130859375,9.843000411987305,0.13905000686645508,0.46800002455711365
1772384333172470500,9.884470458984374,9.83595085144043,0.14205001294612885,0.4900500178337097
1772384333192528000,9.90452783203125,9.838050842285156,0.15405000746250153,0.46095001697540283
1772384333212585000,9.9245849609375,9.826050758361816,0.16095000505447388,0.4420500099658966
1772384333232642600,9.944642578125,9.820950508117676,0.14400000870227814,0.45600003004074097
1772384333252699600,9.96469970703125,9.844950675964355,0.1270500123500824,0.48000001907348633
1772384333272757000,9.984757080078126,9.855000495910645,0.1469999998807907,0.5020500421524048
1772384333292814300,10.004814453125,9.895050048828125,0.17805001139640808,0.49695003032684326
1772384333312871700,10.02487158203125,9.898050308227539,0.17295001447200775,0.4849500358104706
1772384333332929000,10.044928955078126,9.86400032043457,0.1469999998807907,0.49695003032684326
1772384333352986400,10.064986328125,9.855000495910645,0.14400000870227814,0.5089499950408936
1772384333373043500,10.08504345703125,9.86205005645752,0.1469999998807907,0.492000013589859
1772384333393101000,10.10510107421875,9.86400032043457,0.1680000126361847,0.5089499950408936
1772384333413158100,10.125158203125,9.86400032043457,0.17100000381469727,0.4990500211715698
1772384333433215500,10.145215576171875,9.86400032043457,0.1660500019788742,0.4830000102519989
1772384333453272800,10.16527294921875,9.86205005645752,0.1489500105381012,0.48705002665519714
1772384333473330000,10.185329833984374,9.859950065612793,0.15105000138282776,0.49695003032684326
1772384333493387500,10.205387451171875,9.868950843811035,0.15405000746250153,0.49695003032684326
1772384333513444900,10.22544482421875,9.86205005645752,0.1489500105381012,0.48000001907348633
1772384333533502000,10.245501953125,9.859950065612793,0.1489500105381012,0.4849500358104706
1772384333553559300,10.265559326171875,9.86400032043457,0.1660500019788742,0.4759500324726105
1772384333573616600,10.28561669921875,9.469050407409668,0.1080000028014183,0.6340500116348267
1772384333593674000,10.305674072265624,10.360050201416016,0.34005001187324524,0.24105000495910645
1772384333613731300,10.3257314453125,9.559950828552246,0.20595000684261322,0.322050005197525
1772384333633788700,10.34578857421875,10.156050682067871,0.19905000925064087,0.33900001645088196
1772384333653845800,10.365845703125,9.699000358581543,0.24000000953674316,0.24300001561641693
1772384333673903400,10.3859033203125,9.915000915527344,0.028950002044439316,0.6790500283241272
