time,seconds_elapsed,z,y,x
1772593779118997000,0.2289970703125,1.2940998077392578,-0.012644775211811066,0.07414877414703369
1772593779139291000,0.249290771484375,1.3550481796264648,-0.02296958863735199,0.09183984994888306
1772593779159554000,0.269553955078125,0.4111814498901367,-0.03971266746520996,0.033299267292022705
1772593779179818000,0.28981787109375,-0.44388580322265625,0.044071197509765625,-0.04144871234893799
1772593779200082000,0.31008203125,-0.5231857299804688,0.050630390644073486,-0.04980188608169556
1772593779220345000,0.330344970703125,-1.1172676086425781,0.11153566837310791,0.20141208171844482
1772593779240609000,0.350609130859375,-0.9075288772583008,0.09946751594543457,0.26450133323669434
1772593779260873000,0.370873046875,-0.7882986068725586,0.1832064390182495,0.23471879959106445
1772593779281136000,0.39113623046875,-1.6509308815002441,0.454819917678833,0.5398085117340088
1772593779301400000,0.411400146484375,-2.5245614051818848,1.12312650680542,-0.10623452067375183
1772593779321664000,0.4316640625,-1.2989311218261719,0.2248821258544922,0.03193266689777374
1772593779341927000,0.451927001953125,-2.1158699989318848,0.4879462718963623,-0.09605187177658081
1772593779362191000,0.472191162109375,-3.3392767906188965,0.9102404117584229,-0.6923258304595947
1772593779382455000,0.492455078125,-3.9296088218688965,1.3251508474349976,-2.24765682220459
1772593779402718000,0.512718017578125,-2.8084256649017334,1.391061782836914,-3.9378085136413574
1772593779422982000,0.53298193359375,-1.0218315124511719,0.9800540208816528,-3.9599523544311523
1772593779443246000,0.55324609375,-0.031310275197029114,0.5938858985900879,-3.0377073287963867
1772593779463509000,0.573509033203125,0.2758671045303345,0.2854640483856201,-1.7709732055664062
1772593779483773000,0.59377294921875,0.12981557846069336,0.07029509544372559,-0.48253726959228516
1772593779504037000,0.614037109375,-0.17000985145568848,-0.06162869930267334,0.4715442657470703
1772593779524300000,0.634300048828125,-0.4674088954925537,-0.14332044124603271,1.0982599258422852
1772593779544564000,0.65456396484375,-0.6293611526489258,-0.19869470596313477,1.3626108169555664
1772593779564828000,0.674827880859375,-0.4987063407897949,-0.23701906204223633,1.1393756866455078
1772593779585092000,0.695092041015625,-0.27954840660095215,-0.2129802703857422,0.7138156890869141
1772593779605355000,0.71535498046875,-0.11299872398376465,-0.12854313850402832,0.31612682342529297
1772593779625619000,0.735618896484375,-0.05001068115234375,-0.0791473388671875,0.1381683349609375
1772593779645883000,0.7558828125,-0.0854647159576416,-0.1808309555053711,0.23719167709350586
1772593779666146000,0.77614599609375,-0.13189244270324707,-0.40029096603393555,0.40633153915405273
1772593779686410000,0.796409912109375,-0.17115569114685059,-0.7844667434692383,0.6469459533691406
1772593779706674000,0.816673828125,-0.17665278911590576,-1.30419921875,0.9088983535766602
1772593779726937000,0.83693701171875,-0.13763684034347534,-1.6869802474975586,1.037045955657959
1772593779747201000,0.857200927734375,-0.08559957146644592,-1.9427003860473633,1.0622282028198242
1772593779767465000,0.87746484375,-0.04022952914237976,-2.058229446411133,1.0169310569763184
1772593779787728000,0.897727783203125,0.03713099658489227,-2.085285186767578,0.9038660526275635
1772593779807992000,0.917991943359375,0.13247627019882202,-2.105508804321289,0.7740042209625244
1772593779828256000,0.938256103515625,0.2405683994293213,-2.0196313858032227,0.6472311019897461
1772593779848519000,0.958518798828125,0.29905450344085693,-1.9161262512207031,0.5541524887084961
1772593779868783000,0.978783203125,0.2746981382369995,-1.6820545196533203,0.45405006408691406
1772593779889047000,0.999047119140625,0.23012769222259521,-1.4221534729003906,0.3554105758666992
1772593779909310000,1.01931005859375,0.1843264102935791,-1.1450634002685547,0.26289939880371094
1772593779929574000,1.039573974609375,0.1815180778503418,-1.1027870178222656,0.22568631172180176
1772593779949838000,1.059838134765625,0.1817796230316162,-1.0860366821289062,0.2033987045288086
1772593779970101000,1.08010107421875,0.1920562982559204,-1.1434803009033203,0.19324445724487305
1772593779990365000,1.100364990234375,0.18289446830749512,-1.186253547668457,0.18709170818328857
1772593780010629000,1.120629150390625,0.1492481231689453,-1.1354846954345703,0.16869664192199707
1772593780030892000,1.14089208984375,0.1006155014038086,-0.9139223098754883,0.12955105304718018
1772593780051156000,1.161156005859375,0.08859598636627197,-0.8162155151367188,0.10893535614013672
1772593780071420000,1.181419921875,0.08645915985107422,-0.7360877990722656,0.09240436553955078
1772593780091683000,1.20168310546875,0.09432721138000488,-0.7515411376953125,0.09685993194580078
1772593780111947000,1.221947021484375,0.11503076553344727,-0.8751058578491211,0.12284481525421143
1772593780132211000,1.2422109375,0.13001751899719238,-1.0081024169921875,0.16095507144927979
1772593780152474000,1.26247412109375,0.1559007167816162,-1.2316837310791016,0.22660982608795166
1772593780172738000,1.282738037109375,0.1960906982421875,-1.495863914489746,0.3267240524291992
1772593780193002000,1.303001953125,0.22713255882263184,-1.7830190658569336,0.4617729187011719
1772593780213265000,1.323264892578125,0.2587970495223999,-2.100438117980957,0.6428337097167969
1772593780233529000,1.343529052734375,0.26927030086517334,-2.417804718017578,0.8491754531860352
1772593780253793000,1.36379296875,0.26379919052124023,-2.6250991821289062,1.0224151611328125
1772593780274056000,1.384055908203125,0.2563260793685913,-2.87515926361084,1.1924490928649902
1772593780294320000,1.404320068359375,0.23622101545333862,-2.9954662322998047,1.2566533088684082
1772593780314584000,1.424583984375,0.21423453092575073,-3.1177053451538086,1.252016544342041
1772593780334847000,1.444846923828125,0.18912899494171143,-3.193582534790039,1.1803560256958008
1772593780355111000,1.46511083984375,0.17632806301116943,-3.099684715270996,1.0455212593078613
1772593780375375000,1.485375,0.14065515995025635,-2.87054443359375,0.8569440841674805
1772593780395638000,1.505637939453125,0.12309408187866211,-2.5566368103027344,0.6517965793609619
1772593780415902000,1.52590185546875,0.09125882387161255,-2.2469940185546875,0.472614049911499
1772593780436166000,1.546165771484375,0.07954508066177368,-1.9479589462280273,0.3210184574127197
1772593780456429000,1.566428955078125,0.06726932525634766,-1.591897964477539,0.20182585716247559
1772593780476693000,1.58669287109375,0.048590511083602905,-1.0824518203735352,0.0955585241317749
1772593780496957000,1.60695703125,0.023877859115600586,-0.49912071228027344,0.029862940311431885
1772593780517220000,1.62722021484375,-0.013822734355926514,0.2699613571166992,-0.011760622262954712
1772593780537484000,1.647484130859375,-0.0628923773765564,1.1543855667114258,-0.0306004136800766
1772593780557748000,1.667748046875,-0.09075295925140381,1.952315330505371,-0.011567041277885437
1772593780578011000,1.688010986328125,-0.09458816051483154,2.632704257965088,0.05182637274265289
1772593780598275000,1.708275146484375,-0.07402050495147705,3.2240543365478516,0.16195252537727356
1772593780618539000,1.7285390625,-0.010808061808347702,3.713486671447754,0.22237560153007507
1772593780638802000,1.748802001953125,0.08082802593708038,3.8814268112182617,-0.0256667360663414
1772593780659066000,1.769066162109375,0.34584295749664307,3.231224536895752,-0.44792449474334717
1772593780679330000,1.789330078125,0.3679075241088867,1.990717887878418,-0.5357034206390381
1772593780699593000,1.809593017578125,0.15933775901794434,0.6546106338500977,-0.24104952812194824
1772593780719857000,1.82985693359375,-0.1882610321044922,-0.6607112884521484,0.2729923725128174
1772593780740121000,1.85012109375,-0.5216703414916992,-1.8766775131225586,0.8304238319396973
1772593780760384000,1.870384033203125,-0.7295198440551758,-2.8850669860839844,1.3195548057556152
1772593780780648000,1.89064794921875,-0.8334646224975586,-3.6144094467163086,1.6962065696716309
1772593780800912000,1.910911865234375,-0.8787534236907959,-4.097895622253418,1.9598827362060547
1772593780821175000,1.931175048828125,-0.8366291522979736,-4.308727264404297,2.044654369354248
1772593780841439000,1.95143896484375,-0.7202341556549072,-4.012002944946289,1.794023036956787
1772593780861703000,1.971702880859375,-0.381091833114624,-3.0106143951416016,1.1777477264404297
1772593780881967000,1.991967041015625,-0.08805447816848755,-1.7299060821533203,0.5349259376525879
1772593780902230000,2.01222998046875,0.029899030923843384,-0.7635002136230469,0.1481952667236328
1772593780922494000,2.032493896484375,0.03298306465148926,-0.2595834732055664,0.02253437042236328
1772593780942758000,2.0527578125,0.007652997970581055,-0.045909881591796875,-0.0006997287273406982
1772593780963021000,2.07302099609375,0.015027046203613281,-0.08472156524658203,-0.007712602615356445
1772593780983285000,2.093284912109375,0.060118913650512695,-0.32123279571533203,-0.044960975646972656
1772593781003549000,2.113548828125,0.1379995346069336,-0.6868047714233398,-0.10988759994506836
1772593781023812000,2.13381201171875,0.2398543357849121,-1.1343917846679688,-0.1764615774154663
1772593781044076000,2.154075927734375,0.3604567050933838,-1.6558609008789062,-0.22465717792510986
1772593781064340000,2.174340087890625,0.4206047058105469,-2.0501632690429688,-0.205330491065979
1772593781084603000,2.194602783203125,0.4406425952911377,-2.350076675415039,-0.12779909372329712
1772593781104867000,2.2148671875,0.3912506103515625,-2.2102975845336914,-0.003644082695245743
1772593781125131000,2.235131103515625,0.30504608154296875,-1.742690086364746,0.09465056657791138
1772593781145394000,2.255393798828125,0.22340047359466553,-1.2130632400512695,0.1405121088027954
1772593781165658000,2.275658203125,0.1254042387008667,-0.6398792266845703,0.11182200908660889
1772593781185922000,2.295922119140625,0.032457590103149414,-0.1643829345703125,0.03778576850891113
1772593781206185000,2.31618505859375,-0.041028380393981934,0.20883941650390625,-0.05773043632507324
1772593781226449000,2.336448974609375,-0.0990372896194458,0.514007568359375,-0.1600937843322754
1772593781246713000,2.356713134765625,-0.09792685508728027,0.602961540222168,-0.19696974754333496
1772593781266976000,2.37697607421875,-0.04578423500061035,0.3809480667114258,-0.10956478118896484
1772593781287240000,2.397239990234375,-0.0008432269096374512,0.010575294494628906,-0.002516031265258789
1772593781307504000,2.417504150390625,0.025166988372802734,-0.5800895690917969,0.10964822769165039
1772593781327767000,2.43776708984375,0.02236287295818329,-1.1602907180786133,0.17898845672607422
1772593781348031000,2.458031005859375,0.006056327372789383,-1.654947280883789,0.20691132545471191
1772593781368295000,2.478294921875,-0.024646788835525513,-2.162403106689453,0.22589433193206787
1772593781388558000,2.49855810546875,-0.06868284940719604,-2.5845842361450195,0.22172296047210693
1772593781408822000,2.518822021484375,-0.1600492000579834,-3.0099105834960938,0.20410704612731934
1772593781429086000,2.5390859375,-0.2588527202606201,-3.2938060760498047,0.1696222424507141
1772593781449349000,2.55934912109375,-0.2811466455459595,-3.280181884765625,0.15559184551239014
1772593781469613000,2.579613037109375,-0.2437605857849121,-2.890838623046875,0.20901012420654297
1772593781489877000,2.599876953125,-0.1900942325592041,-2.272562026977539,0.2605513334274292
1772593781510140000,2.620139892578125,-0.13264715671539307,-1.5908260345458984,0.260623574256897
1772593781530404000,2.640404052734375,-0.08276975154876709,-0.9938564300537109,0.2100663185119629
1772593781550668000,2.66066796875,-0.04776585102081299,-0.5349435806274414,0.1401376724243164
1772593781570931000,2.680930908203125,-0.009317219257354736,-0.09772396087646484,0.03039264678955078
1772593781591195000,2.70119482421875,0.022087275981903076,0.22043514251708984,-0.08010244369506836
1772593781611459000,2.721458984375,0.04794442653656006,0.5032291412353516,-0.2124004364013672
1772593781631722000,2.741721923828125,0.061775922775268555,0.6946439743041992,-0.33566761016845703
1772593781651986000,2.76198583984375,0.0832754373550415,0.9131870269775391,-0.4867582321166992
1772593781672250000,2.78225,0.11853557825088501,1.2506103515625,-0.7133035659790039
1772593781692513000,2.802512939453125,0.1499750018119812,1.540027141571045,-0.9104795455932617
1772593781712777000,2.82277685546875,0.1741575002670288,1.7663469314575195,-1.0695123672485352
1772593781733041000,2.843041015625,0.18703436851501465,1.884005069732666,-1.1778521537780762
1772593781753304000,2.863303955078125,0.18265128135681152,1.8614635467529297,-1.2056169509887695
1772593781773568000,2.883568115234375,0.16497528553009033,1.585190773010254,-1.0306930541992188
1772593781793832000,2.90383203125,0.107180655002594,1.01906156539917,-0.6607861518859863
1772593781814095000,2.92409521484375,0.0317988395690918,0.2744412422180176,-0.18170642852783203
1772593781834359000,2.944359130859375,-0.06436276435852051,-0.5154523849487305,0.3542346954345703
1772593781854623000,2.964623046875,-0.12794560194015503,-1.1847772598266602,0.8364591598510742
1772593781874886000,2.984885986328125,-0.14327305555343628,-1.6568832397460938,1.1974105834960938
1772593781895150000,3.005150146484375,-0.13029825687408447,-1.900346279144287,1.4088406562805176
1772593781915414000,3.0254140625,-0.10446178913116455,-1.9899396896362305,1.4927501678466797
1772593781935677000,3.045677001953125,-0.07114237546920776,-1.904233455657959,1.4232115745544434
1772593781955941000,3.065941162109375,-0.04941380023956299,-1.6662845611572266,1.2256135940551758
1772593781976205000,3.086205078125,-0.004967402666807175,-1.3289813995361328,0.957064151763916
1772593781996468000,3.106468017578125,0.032815366983413696,-0.9485130310058594,0.6455960273742676
1772593782016732000,3.12673193359375,0.041331470012664795,-0.48221588134765625,0.2975611686706543
1772593782036996000,3.14699609375,-0.003619670867919922,0.02588653564453125,-0.013875007629394531
1772593782057259000,3.167259033203125,-0.08954977989196777,0.5316448211669922,-0.24528264999389648
1772593782077523000,3.18752294921875,-0.13984131813049316,0.8177127838134766,-0.3262767791748047
1772593782097787000,3.207786865234375,-0.13942456245422363,0.8327541351318359,-0.2850973606109619
1772593782118050000,3.228050048828125,-0.09351181983947754,0.6198492050170898,-0.18102240562438965
1772593782138314000,3.24831396484375,-0.0322413444519043,0.24016666412353516,-0.059259891510009766
1772593782158578000,3.268577880859375,0.023815155029296875,-0.1862955093383789,0.03998255729675293
1772593782178842000,3.288842041015625,0.05806005001068115,-0.4696979522705078,0.08908224105834961
1772593782199105000,3.30910498046875,0.0479738712310791,-0.4203224182128906,0.07555997371673584
1772593782219369000,3.329368896484375,0.028048038482666016,-0.26700782775878906,0.04607129096984863
1772593782239633000,3.3496328125,0.012187600135803223,-0.127655029296875,0.022134780883789062
1772593782259896000,3.36989599609375,0.008422493934631348,-0.09913349151611328,0.017152905464172363
1772593782280160000,3.390159912109375,0.013510048389434814,-0.15889930725097656,0.02728259563446045
1772593782300424000,3.410423828125,0.021083831787109375,-0.2212390899658203,0.03778719902038574
1772593782320687000,3.43068701171875,0.025327205657958984,-0.22025108337402344,0.03948402404785156
1772593782340951000,3.450950927734375,0.029546141624450684,-0.23392868041992188,0.04584908485412598
1772593782361215000,3.471215087890625,0.042685747146606445,-0.34009647369384766,0.07166790962219238
1772593782381478000,3.491477783203125,0.05472266674041748,-0.4691028594970703,0.11025190353393555
1772593782401742000,3.5117421875,0.06735634803771973,-0.6200151443481445,0.1628894805908203
1772593782422006000,3.532006103515625,0.08621883392333984,-0.7913150787353516,0.2293720245361328
1772593782442269000,3.55226904296875,0.11439263820648193,-1.0609369277954102,0.33338308334350586
1772593782462533000,3.572533203125,0.12911105155944824,-1.3335494995117188,0.44962239265441895
1772593782482797000,3.592797119140625,0.1298731565475464,-1.6736316680908203,0.59649658203125
1772593782503060000,3.61306005859375,0.08476242423057556,-2.0140304565429688,0.7533502578735352
1772593782523324000,3.633323974609375,0.01857759803533554,-2.346435546875,0.8984034061431885
1772593782543588000,3.653588134765625,-0.02653702348470688,-2.74385929107666,1.0268292427062988
1772593782563851000,3.67385107421875,-0.03611990809440613,-3.014925956726074,1.076352834701538
1772593782584115000,3.694114990234375,-0.045967623591423035,-3.233128547668457,1.0438528060913086
1772593782604379000,3.71437890625,-0.055643871426582336,-3.311861038208008,0.9416732788085938
1772593782624642000,3.73464208984375,-0.0839119553565979,-3.2788867950439453,0.8163638114929199
1772593782644906000,3.754906005859375,-0.10277780890464783,-3.0077743530273438,0.6355929374694824
1772593782665170000,3.775169921875,-0.07595556974411011,-2.633146286010742,0.47688865661621094
1772593782685433000,3.79543310546875,-0.03493741154670715,-2.101114273071289,0.3193873167037964
1772593782705697000,3.815697021484375,0.007921315729618073,-1.5757484436035156,0.2009131908416748
1772593782725961000,3.8359609375,0.02998518943786621,-1.0548944473266602,0.11543965339660645
1772593782746224000,3.85622412109375,0.0195196270942688,-0.4268922805786133,0.04519319534301758
1772593782766488000,3.876488037109375,-0.01567775011062622,0.2743511199951172,-0.030121207237243652
1772593782786752000,3.896751953125,-0.06666672229766846,0.9626674652099609,-0.12290596961975098
1772593782807015000,3.917014892578125,-0.13182610273361206,1.6099700927734375,-0.21742630004882812
1772593782827279000,3.937279052734375,-0.21226900815963745,2.223250389099121,-0.3166964054107666
1772593782847543000,3.95754296875,-0.26577115058898926,2.7096381187438965,-0.3994535207748413
1772593782867806000,3.977805908203125,-0.22231131792068481,3.105221748352051,-0.47043371200561523
1772593782888070000,3.99806982421875,-0.002144169993698597,3.09317684173584,-0.5769029855728149
1772593782908334000,4.018333984375,0.2662315368652344,2.4942703247070312,-0.6491198539733887
1772593782928597000,4.038596923828125,0.3081371784210205,1.4885063171386719,-0.5254621505737305
1772593782948861000,4.05886083984375,0.13524699211120605,0.49876976013183594,-0.21514248847961426
1772593782969125000,4.079125,-0.1293654441833496,-0.4146404266357422,0.19405460357666016
1772593782989388000,4.099387939453125,-0.35997891426086426,-1.0663127899169922,0.4983229637145996
1772593783009652000,4.11965185546875,-0.5121893882751465,-1.5288410186767578,0.7190184593200684
1772593783029916000,4.139916015625,-0.6190986633300781,-1.9316511154174805,0.8956797122955322
1772593783050179000,4.160178955078125,-0.6495301723480225,-2.235342025756836,1.0290493965148926
1772593783070443000,4.180443115234375,-0.6059560775756836,-2.4698572158813477,1.0843267440795898
1772593783090707000,4.20070703125,-0.4519071578979492,-2.4638595581054688,0.9743261337280273
1772593783110970000,4.22097021484375,-0.20485448837280273,-1.9949216842651367,0.6540069580078125
1772593783131234000,4.241234130859375,-0.015591949224472046,-1.3169469833374023,0.31321120262145996
1772593783151498000,4.261498046875,0.04800903797149658,-0.7664928436279297,0.11412942409515381
1772593783171761000,4.281760986328125,0.040885329246520996,-0.3418006896972656,0.028943657875061035
1772593783192025000,4.302025146484375,0.015640974044799805,-0.098541259765625,0.005265474319458008
1772593783212289000,4.3222890625,0.008348703384399414,-0.05042266845703125,0.0017322897911071777
1772593783232552000,4.342552001953125,0.01619875431060791,-0.09692001342773438,0.0025075823068618774
1772593783252816000,4.36281591796875,0.018160223960876465,-0.11631298065185547,0.003014206886291504
1772593783273080000,4.383080078125,0.016097307205200195,-0.11746788024902344,0.004423350095748901
1772593783293343000,4.403343017578125,0.0019992589950561523,-0.0169219970703125,0.0009867548942565918
1772593783313607000,4.42360693359375,-0.00788801908493042,0.0872049331665039,-0.006949007511138916
1772593783333871000,4.44387109375,-0.011494278907775879,0.18376922607421875,-0.018513858318328857
1772593783354134000,4.464134033203125,-0.011942148208618164,0.2776460647583008,-0.03143966197967529
1772593783374398000,4.48439794921875,-0.010632097721099854,0.28954601287841797,-0.03590083122253418
1772593783394662000,4.504661865234375,-0.010991573333740234,0.28949928283691406,-0.038762807846069336
1772593783414925000,4.524925048828125,-0.007071644067764282,0.18410682678222656,-0.02619314193725586
1772593783435189000,4.54518896484375,-0.0018435120582580566,0.04654979705810547,-0.007581830024719238
1772593783455453000,4.565452880859375,0.008330196142196655,-0.2101917266845703,0.04022514820098877
1772593783475717000,4.585717041015625,0.022290557622909546,-0.5720596313476562,0.13087725639343262
1772593783495980000,4.60597998046875,0.03937840461730957,-1.0112848281860352,0.2644948959350586
1772593783516244000,4.626243896484375,0.05407944321632385,-1.5248479843139648,0.4290943145751953
1772593783536508000,4.6465078125,0.048044681549072266,-2.10408878326416,0.6256613731384277
1772593783556771000,4.66677099609375,0.03181983530521393,-2.6770858764648438,0.8358972072601318
1772593783577035000,4.687034912109375,0.0338471382856369,-3.1712722778320312,1.0409913063049316
1772593783597299000,4.707298828125,0.061522603034973145,-3.6524715423583984,1.254626989364624
1772593783617562000,4.72756201171875,0.09003043174743652,-3.8965702056884766,1.372945785522461
1772593783637826000,4.747825927734375,0.0897873044013977,-3.9815006256103516,1.3710837364196777
1772593783658090000,4.768090087890625,0.1065521240234375,-3.911515235900879,1.247575044631958
1772593783678353000,4.788352783203125,0.11648169159889221,-3.671149253845215,1.0531537532806396
1772593783698617000,4.8086171875,0.10328656435012817,-3.3559465408325195,0.8577508926391602
1772593783718881000,4.828881103515625,0.11555424332618713,-2.9581356048583984,0.6880533695220947
1772593783739144000,4.84914404296875,0.14028894901275635,-2.4363603591918945,0.5360865592956543
1772593783759408000,4.869408203125,0.1487552523612976,-1.9144477844238281,0.39406275749206543
1772593783779672000,4.889672119140625,0.1259235143661499,-1.2850980758666992,0.23635125160217285
1772593783799935000,4.90993505859375,0.07124447822570801,-0.6373357772827148,0.096016526222229
1772593783820199000,4.930198974609375,0.0022073984146118164,-0.017464637756347656,0.002070307731628418
1772593783840463000,4.950463134765625,-0.07898211479187012,0.5912666320800781,-0.05695313215255737
1772593783860726000,4.97072607421875,-0.15642952919006348,1.1783666610717773,-0.08580940961837769
1772593783880990000,4.990989990234375,-0.2177460789680481,1.7845687866210938,-0.06229877471923828
1772593783901254000,5.01125390625,-0.25375896692276,2.3773398399353027,0.022034406661987305
1772593783921517000,5.03151708984375,-0.16893774271011353,2.850583076477051,0.17103224992752075
1772593783941781000,5.051781005859375,0.10667958855628967,2.863081932067871,0.1948428750038147
1772593783962045000,5.072044921875,0.3234933614730835,2.316958427429199,0.011293921619653702
1772593783982308000,5.09230810546875,0.32603001594543457,1.3510265350341797,-0.10910844802856445
1772593784002572000,5.112572021484375,0.1570429801940918,0.5225629806518555,-0.0808405876159668
1772593784022836000,5.1328359375,-0.023028135299682617,-0.07063961029052734,0.015131950378417969
1772593784043099000,5.153098876953125,-0.21342182159423828,-0.665501594543457,0.168168306350708
1772593784063363000,5.173363037109375,-0.4057033061981201,-1.3917465209960938,0.3863072395324707
1772593784083627000,5.193626953125,-0.5391981601715088,-2.188868522644043,0.6660780906677246
1772593784103890000,5.213889892578125,-0.5727949142456055,-2.8339033126831055,0.919064998626709
1772593784124154000,5.234154052734375,-0.4881722927093506,-3.2318191528320312,1.1272053718566895
1772593784144418000,5.25441796875,-0.2880730628967285,-3.204279899597168,1.1242005825042725
1772593784164681000,5.274680908203125,-0.035953909158706665,-2.6176023483276367,0.823638916015625
1772593784184945000,5.29494482421875,0.16817426681518555,-2.01983642578125,0.5127065181732178
1772593784205209000,5.315208984375,0.2702479362487793,-1.6659374237060547,0.3213317394256592
1772593784225472000,5.335471923828125,0.30157017707824707,-1.580718994140625,0.22297418117523193
1772593784245736000,5.35573583984375,0.28844428062438965,-1.4002962112426758,0.14311766624450684
1772593784266000000,5.375999755859375,0.22459840774536133,-1.0828723907470703,0.08760952949523926
1772593784286263000,5.396262939453125,0.15844321250915527,-0.7692584991455078,0.052167415618896484
1772593784306527000,5.41652685546875,0.12255454063415527,-0.6113033294677734,0.03839963674545288
1772593784326791000,5.436791015625,0.1069035530090332,-0.5872383117675781,0.03362452983856201
1772593784347054000,5.45705419921875,0.09944820404052734,-0.5807476043701172,0.030112504959106445
1772593784367318000,5.477318115234375,0.0743565559387207,-0.4908466339111328,0.02985405921936035
1772593784387582000,5.49758203125,0.029445886611938477,-0.25018787384033203,0.0200040340423584
1772593784407845000,5.51784521484375,0.001583695411682129,-0.01924610137939453,0.0019413232803344727
1772593784428109000,5.538109130859375,-0.011196255683898926,0.15780258178710938,-0.020512104034423828
1772593784448373000,5.558373046875,-0.00778651237487793,0.13226699829101562,-0.020663142204284668
1772593784468636000,5.578635986328125,-0.004657119512557983,0.0996551513671875,-0.017383456230163574
1772593784488900000,5.598900146484375,-0.0002040266990661621,0.007816314697265625,-0.0014255046844482422
1772593784509164000,5.6191640625,0.0020722299814224243,-0.11231327056884766,0.022339582443237305
1772593784529427000,5.639427001953125,0.005796998739242554,-0.2604055404663086,0.05875039100646973
1772593784549691000,5.65969091796875,0.011973917484283447,-0.4440116882324219,0.11603355407714844
1772593784569955000,5.679955078125,0.023819148540496826,-0.7464675903320312,0.22926759719848633
1772593784590218000,5.700218017578125,0.051052868366241455,-1.1887454986572266,0.4206209182739258
1772593784610482000,5.72048193359375,0.07611408829689026,-1.657339096069336,0.6703479290008545
1772593784630746000,5.74074609375,0.10162585973739624,-2.1040964126586914,0.9362747669219971
1772593784651009000,5.761009033203125,0.12565934658050537,-2.443174362182617,1.1610803604125977
1772593784671273000,5.78127294921875,0.16848504543304443,-2.734394073486328,1.3466253280639648
1772593784691537000,5.801536865234375,0.2096179723739624,-2.915921211242676,1.4543952941894531
1772593784711800000,5.821800048828125,0.2181018590927124,-3.021768569946289,1.4671306610107422
1772593784732064000,5.84206396484375,0.2223488688468933,-3.0721683502197266,1.4074053764343262
1772593784752328000,5.862327880859375,0.2185378074645996,-3.0101633071899414,1.286285400390625
1772593784772592000,5.882592041015625,0.21183383464813232,-2.905811309814453,1.1241888999938965
1772593784792855000,5.90285498046875,0.19775474071502686,-2.635885238647461,0.9275317192077637
1772593784813119000,5.923118896484375,0.1998184323310852,-2.3686342239379883,0.7478783130645752
1772593784833383000,5.9433828125,0.19992423057556152,-2.1007518768310547,0.5871577262878418
1772593784853646000,5.96364599609375,0.18815827369689941,-1.7590179443359375,0.4352223873138428
1772593784873910000,5.983909912109375,0.15237510204315186,-1.350677490234375,0.3075556755065918
1772593784894174000,6.004174072265625,0.11289358139038086,-0.9493093490600586,0.2027285099029541
1772593784914437000,6.02443701171875,0.06920218467712402,-0.5511560440063477,0.1114434003829956
1772593784934701000,6.044701171875,0.021925687789916992,-0.165496826171875,0.032540321350097656
1772593784954965000,6.064965087890625,-0.031606078147888184,0.22530746459960938,-0.04084014892578125
1772593784975228000,6.085227783203125,-0.10626375675201416,0.7031126022338867,-0.11596822738647461
1772593784995492000,6.1054921875,-0.1819899082183838,1.1232738494873047,-0.15389084815979004
1772593785015756000,6.125756103515625,-0.24503839015960693,1.4388666152954102,-0.13798582553863525
1772593785036019000,6.14601904296875,-0.22721505165100098,1.5690689086914062,-0.09866398572921753
1772593785056283000,6.166282958984375,-0.12442201375961304,1.3897037506103516,-0.07034552097320557
1772593785076547000,6.186547119140625,-0.027053266763687134,0.9922876358032227,-0.03913375735282898
1772593785096810000,6.20681005859375,0.006066799163818359,0.5554828643798828,-0.020766854286193848
1772593785117074000,6.227073974609375,0.004064679145812988,0.11510181427001953,-0.0025358349084854126
1772593785137338000,6.247338134765625,-0.0196039080619812,-0.3397226333618164,-0.006050959229469299
1772593785157601000,6.26760107421875,-0.08383482694625854,-0.9799327850341797,-0.04600024223327637
1772593785177865000,6.287864990234375,-0.16987740993499756,-1.7076587677001953,-0.08446258306503296
1772593785198129000,6.30812890625,-0.2617073059082031,-2.3356990814208984,-0.0676213800907135
1772593785218392000,6.32839208984375,-0.318159818649292,-2.6541452407836914,0.010815642774105072
1772593785238656000,6.348656005859375,-0.2875312566757202,-2.5764036178588867,0.0738804042339325
1772593785258920000,6.368919921875,-0.1741389036178589,-2.178042411804199,0.1023021936416626
1772593785279183000,6.38918310546875,-0.06655949354171753,-1.6973237991333008,0.11231076717376709
1772593785299447000,6.409447021484375,-0.013510502874851227,-1.320394515991211,0.11394447088241577
1772593785319711000,6.4297109375,0.011699005961418152,-1.0677595138549805,0.1364727020263672
1772593785339974000,6.449973876953125,0.029038071632385254,-0.8811807632446289,0.17333745956420898
1772593785360238000,6.470238037109375,0.043253302574157715,-0.6651716232299805,0.17680096626281738
1772593785380502000,6.490501953125,0.0367242693901062,-0.42096614837646484,0.13213348388671875
1772593785400765000,6.510764892578125,0.022072792053222656,-0.20148468017578125,0.06707167625427246
1772593785421029000,6.531029052734375,0.012549757957458496,-0.10203075408935547,0.03323554992675781
1772593785441293000,6.55129296875,0.021649718284606934,-0.16170310974121094,0.050428152084350586
1772593785461556000,6.571555908203125,0.03761887550354004,-0.2841911315917969,0.0840144157409668
1772593785481820000,6.59181982421875,0.05310046672821045,-0.40814685821533203,0.11438393592834473
1772593785502084000,6.612083984375,0.054759979248046875,-0.45326805114746094,0.12143802642822266
1772593785522347000,6.632346923828125,0.04768991470336914,-0.4228963851928711,0.10918831825256348
1772593785542611000,6.65261083984375,0.04188394546508789,-0.3965301513671875,0.09879279136657715
1772593785562875000,6.672875,0.038881003856658936,-0.39113330841064453,0.09694242477416992
1772593785583138000,6.693137939453125,0.04049420356750488,-0.39435672760009766,0.09733390808105469
1772593785603402000,6.713402099609375,0.03484153747558594,-0.32587623596191406,0.08076143264770508
1772593785623666000,6.733666015625,0.028187274932861328,-0.25304317474365234,0.06293034553527832
1772593785643929000,6.75392919921875,0.020342707633972168,-0.1750774383544922,0.04373621940612793
1772593785664193000,6.774193115234375,0.01153099536895752,-0.09473896026611328,0.023837804794311523
1772593785684457000,6.79445703125,0.0020461082458496094,-0.015952110290527344,0.004061222076416016
1772593785704720000,6.814719970703125,-0.006585121154785156,0.04577350616455078,-0.011827707290649414
1772593785724984000,6.834984130859375,-0.005172848701477051,0.03253459930419922,-0.008492231369018555
1772593785745248000,6.855248046875,-0.002187967300415039,0.012552261352539062,-0.0033135414123535156
1772593785765511000,6.875510986328125,0.0027118921279907227,-0.014348030090332031,0.0038297176361083984
1772593785785775000,6.895775146484375,0.021441221237182617,-0.11202239990234375,0.0308835506439209
1772593785806039000,6.9160390625,0.054466962814331055,-0.2967109680175781,0.08631372451782227
1772593785826302000,6.936302001953125,0.08574867248535156,-0.4922456741333008,0.15076851844787598
1772593785846566000,6.95656591796875,0.10397982597351074,-0.683222770690918,0.219221830368042
1772593785866830000,6.976830078125,0.10758566856384277,-0.8760995864868164,0.29311060905456543
1772593785887093000,6.997093017578125,0.10117530822753906,-1.0777826309204102,0.373659610748291
1772593785907357000,7.01735693359375,0.0859021544456482,-1.3217954635620117,0.45950961112976074
1772593785927621000,7.03762109375,0.05706343054771423,-1.5097570419311523,0.5279426574707031
1772593785947884000,7.057884033203125,0.018746808171272278,-1.7522850036621094,0.5996837615966797
1772593785968148000,7.07814794921875,-0.03061404824256897,-1.9873151779174805,0.6650421619415283
1772593785988412000,7.098411865234375,-0.08185219764709473,-2.0514612197875977,0.6524066925048828
1772593786008675000,7.118675048828125,-0.09951931238174438,-2.081136703491211,0.6111011505126953
1772593786028939000,7.13893896484375,-0.09251290559768677,-2.0130386352539062,0.5293786525726318
1772593786049203000,7.159202880859375,-0.049766749143600464,-1.929305076599121,0.4477095603942871
1772593786069467000,7.179466796875,0.0006390092894434929,-1.7573165893554688,0.3557591438293457
1772593786089730000,7.19972998046875,0.010453388094902039,-1.5883150100708008,0.274522066116333
1772593786109994000,7.219993896484375,0.017010733485221863,-1.366349220275879,0.20648574829101562
1772593786130258000,7.2402578125,0.02044007182121277,-1.1363029479980469,0.14661574363708496
1772593786150521000,7.26052099609375,0.020250141620635986,-0.8337821960449219,0.09476637840270996
1772593786170785000,7.280784912109375,0.014390230178833008,-0.45635223388671875,0.04501497745513916
1772593786191049000,7.301049072265625,0.002211630344390869,-0.056586265563964844,0.0051329731941223145
1772593786211312000,7.32131201171875,-0.015798211097717285,0.4383249282836914,-0.036486268043518066
1772593786231576000,7.341576171875,-0.019308000802993774,0.937342643737793,-0.07207179069519043
1772593786251840000,7.361840087890625,0.010831445455551147,1.4294748306274414,-0.10009539127349854
1772593786272103000,7.38210302734375,0.06955140829086304,1.823265552520752,-0.11182332038879395
1772593786292367000,7.4023671875,0.12433499097824097,2.211000442504883,-0.11457890272140503
1772593786312631000,7.422631103515625,0.23231768608093262,2.4274773597717285,-0.1608690619468689
1772593786332894000,7.44289404296875,0.3497929573059082,2.3351988792419434,-0.2524786591529846
1772593786353158000,7.463157958984375,0.4045978784561157,1.929598331451416,-0.3252207040786743
1772593786373422000,7.483422119140625,0.34853482246398926,1.2863779067993164,-0.3006114959716797
1772593786393685000,7.50368505859375,0.17221808433532715,0.5353813171386719,-0.15444517135620117
1772593786413949000,7.523948974609375,-0.05926203727722168,-0.17612648010253906,0.05507159233093262
1772593786434213000,7.544213134765625,-0.2873377799987793,-0.8794107437133789,0.2831594944000244
1772593786454476000,7.56447607421875,-0.494415283203125,-1.5570392608642578,0.4954805374145508
1772593786474740000,7.584739990234375,-0.6254422664642334,-2.0414371490478516,0.6322536468505859
1772593786495004000,7.60500390625,-0.6767706871032715,-2.3310012817382812,0.6925981044769287
1772593786515267000,7.62526708984375,-0.6209406852722168,-2.4000682830810547,0.636056661605835
1772593786535531000,7.645531005859375,-0.4710979461669922,-2.1854190826416016,0.4815664291381836
1772593786555795000,7.665794921875,-0.2907203435897827,-1.743727684020996,0.28422296047210693
1772593786576058000,7.68605810546875,-0.13108885288238525,-1.3135337829589844,0.12261635065078735
1772593786596322000,7.706322021484375,-0.028046727180480957,-0.9544353485107422,0.02017824351787567
1772593786616586000,7.7265859375,0.013047069311141968,-0.575775146484375,-0.01660194993019104
1772593786636849000,7.746848876953125,0.012775182723999023,-0.2127695083618164,-0.010509788990020752
1772593786657113000,7.767113037109375,-0.013458430767059326,0.1469593048095703,0.0068025290966033936
1772593786677377000,7.787376953125,-0.033825695514678955,0.34009361267089844,0.005689501762390137
1772593786697640000,7.807639892578125,-0.03620469570159912,0.34573841094970703,-0.008967310190200806
1772593786717904000,7.82790380859375,-0.03276681900024414,0.3207130432128906,-0.027658164501190186
1772593786738168000,7.84816796875,-0.025880634784698486,0.2840890884399414,-0.03871798515319824
1772593786758431000,7.868430908203125,-0.020022153854370117,0.2502269744873047,-0.04420280456542969
1772593786778695000,7.88869482421875,-0.018527746200561523,0.3048830032348633,-0.0642780065536499
1772593786798959000,7.908958984375,-0.013648271560668945,0.3333549499511719,-0.08152103424072266
1772593786819222000,7.929221923828125,-0.004296392202377319,0.2068796157836914,-0.054830312728881836
1772593786839486000,7.94948583984375,-0.00009443890303373337,0.08977222442626953,-0.02481698989868164
1772593786859750000,7.96975,-0.00008167698979377747,-0.030365943908691406,0.008722543716430664
1772593786880013000,7.990012939453125,0.0012909695506095886,-0.15093135833740234,0.04481816291809082
1772593786900277000,8.010277099609375,0.008047431707382202,-0.29140472412109375,0.09145951271057129
1772593786920541000,8.030541015625,0.023967891931533813,-0.5272789001464844,0.17419195175170898
1772593786940804000,8.05080419921875,0.04547250270843506,-0.8834409713745117,0.31209516525268555
1772593786961068000,8.071068115234375,0.06273120641708374,-1.2745285034179688,0.48966193199157715
1772593786981332000,8.09133203125,0.0805010199546814,-1.7632169723510742,0.7358458042144775
1772593787001595000,8.111594970703125,0.093607097864151,-2.2192859649658203,0.9754941463470459
1772593787021859000,8.131859130859375,0.11994415521621704,-2.6628293991088867,1.201148509979248
1772593787042123000,8.152123046875,0.14561104774475098,-3.101302146911621,1.3565521240234375
1772593787062386000,8.172385986328125,0.1479470133781433,-3.4649839401245117,1.3948307037353516
1772593787082650000,8.192650146484375,0.1413351595401764,-3.715808868408203,1.3217737674713135
1772593787102914000,8.2129140625,0.08791923522949219,-3.8903465270996094,1.1958050727844238
1772593787123177000,8.233177001953125,0.03232111781835556,-3.8484325408935547,0.9920804500579834
1772593787143441000,8.25344091796875,0.028927147388458252,-3.5941991806030273,0.7634842395782471
1772593787163705000,8.273705078125,0.043622881174087524,-3.207937240600586,0.5392533540725708
1772593787183968000,8.293968017578125,0.052945226430892944,-2.6408262252807617,0.32735514640808105
1772593787204232000,8.31423193359375,0.054332077503204346,-2.006216049194336,0.17075932025909424
1772593787224496000,8.33449609375,0.03407162427902222,-1.1968212127685547,0.06138032674789429
1772593787244759000,8.354759033203125,0.007349520921707153,-0.24237442016601562,0.006962001323699951
1772593787265023000,8.37502294921875,-0.023490726947784424,0.7095203399658203,-0.006441786885261536
1772593787285287000,8.395286865234375,-0.05844169855117798,1.5801048278808594,0.02145484834909439
1772593787305550000,8.415550048828125,-0.11971110105514526,2.3562569618225098,0.12416592240333557
1772593787325814000,8.43581396484375,-0.15217259526252747,2.982621192932129,0.2923967242240906
1772593787346078000,8.456077880859375,-0.04520483314990997,3.507538318634033,0.3337985873222351
1772593787366342000,8.476341796875,0.201923668384552,3.6646199226379395,-0.22654277086257935
1772593787386605000,8.49660498046875,0.4574248194694519,3.2412400245666504,-0.9717229604721069
1772593787406869000,8.516868896484375,0.5171730518341064,2.3781557083129883,-1.2794852256774902
1772593787427133000,8.5371328125,0.41245484352111816,1.461869716644287,-1.0278525352478027
1772593787447396000,8.55739599609375,0.18567132949829102,0.613349437713623,-0.47193193435668945
1772593787467660000,8.577659912109375,-0.04123067855834961,-0.1424555778503418,0.11265182495117188
1772593787487924000,8.597924072265625,-0.20815134048461914,-0.7913575172424316,0.621856689453125
1772593787508187000,8.618186767578125,-0.33634471893310547,-1.4018182754516602,1.0797076225280762
1772593787528440000,8.638440185546875,-0.40335822105407715,-1.9039955139160156,1.430433750152588
1772593787548703000,8.658702880859375,-0.3834421634674072,-2.214413642883301,1.5658531188964844
1772593787568967000,8.678966796875,-0.23418927192687988,-1.9680099487304688,1.1800694465637207
1772593787589231000,8.699231201171875,-0.071875661611557,-1.6308479309082031,0.7503576278686523
1772593787609494000,8.719493896484375,0.05095267295837402,-1.447967529296875,0.48436951637268066
1772593787629758000,8.739758056640625,0.16813218593597412,-1.5235586166381836,0.38117027282714844
1772593787650022000,8.76002197265625,0.2275857925415039,-1.4613533020019531,0.29553329944610596
1772593787670285000,8.78028515625,0.24375367164611816,-1.3220109939575195,0.22494232654571533
1772593787690549000,8.800549072265625,0.24353837966918945,-1.206808090209961,0.1971343755722046
1772593787710813000,8.82081298828125,0.2510337829589844,-1.1474542617797852,0.2106074094772339
1772593787731076000,8.841076171875,0.2909984588623047,-1.3280963897705078,0.30905652046203613
1772593787751340000,8.861340087890625,0.37632155418395996,-1.7535820007324219,0.5081958770751953
1772593787771604000,8.88160400390625,0.5106022357940674,-2.5140819549560547,0.8665339946746826
1772593787791867000,8.901866943359375,0.6373112201690674,-3.437915802001953,1.3058209419250488
1772593787812131000,8.922131103515625,0.704686164855957,-4.437331199645996,1.7646698951721191
1772593787832395000,8.94239501953125,0.694605827331543,-5.278843879699707,2.1589901447296143
1772593787852658000,8.962657958984375,0.7329010963439941,-6.126865386962891,2.5706844329833984
1772593787872922000,8.982922119140625,0.8018661737442017,-6.799489974975586,2.92518949508667
1772593787893186000,9.00318603515625,0.8523942232131958,-7.225549697875977,3.0633552074432373
1772593787913449000,9.023448974609375,0.8779588937759399,-7.333730697631836,2.99409818649292
1772593787933713000,9.043712890625,0.9051637649536133,-7.179583549499512,2.923344850540161
1772593787953977000,9.06397705078125,0.9175605773925781,-6.753741264343262,2.8860630989074707
1772593787974240000,9.084239990234375,0.8639774322509766,-5.951258659362793,2.724259376525879
1772593787994504000,9.10450390625,0.7456634044647217,-4.874256134033203,2.3949990272521973
1772593788014768000,9.12476806640625,0.5991714000701904,-3.613565444946289,1.9275741577148438
1772593788035031000,9.145031005859375,0.4752504825592041,-2.408175468444824,1.4132170677185059
1772593788055295000,9.165294921875,0.2955019474029541,-1.2271184921264648,0.8102178573608398
1772593788075559000,9.185558837890625,0.09154820442199707,-0.30634403228759766,0.22976922988891602
1772593788095822000,9.205822021484375,-0.10916924476623535,0.28126049041748047,-0.2527332305908203
1772593788116086000,9.2260859375,-0.2626171112060547,0.5319294929504395,-0.5723237991333008
1772593788136350000,9.246349853515625,-0.498201847076416,0.7737874984741211,-0.9446420669555664
1772593788156613000,9.266613037109375,-0.8861613273620605,1.0926270484924316,-1.368931770324707
1772593788176877000,9.286876953125,-1.3697752952575684,1.4096412658691406,-1.6936798095703125
1772593788197141000,9.30714111328125,-1.8242125511169434,1.5856757164001465,-1.8310341835021973
1772593788217404000,9.32740380859375,-2.207388401031494,1.6230769157409668,-1.7782151699066162
1772593788237668000,9.347668212890625,-2.5525503158569336,1.5704030990600586,-1.6082663536071777
1772593788257932000,9.36793212890625,-2.73968505859375,1.413644790649414,-1.2966394424438477
1772593788278195000,9.38819482421875,-2.838806629180908,1.2646801471710205,-1.0685954093933105
1772593788298459000,9.408458984375,-2.8565316200256348,1.1545464992523193,-0.8953075408935547
1772593788318723000,9.42872314453125,-2.845139503479004,1.0047659873962402,-0.7650623321533203
1772593788338986000,9.448986083984375,-2.8198537826538086,0.856713056564331,-0.6094094514846802
1772593788359250000,9.46925,-2.7226028442382812,0.7027474641799927,-0.49726104736328125
1772593788379514000,9.48951416015625,-2.519179344177246,0.5393295288085938,-0.40833985805511475
1772593788399777000,9.509777099609375,-2.319601535797119,0.37278950214385986,-0.33152079582214355
1772593788420041000,9.530041015625,-2.194002151489258,0.22247886657714844,-0.2560698390007019
1772593788440305000,9.550304931640625,-2.151181221008301,0.07839882373809814,-0.2007584571838379
1772593788460568000,9.570568115234375,-2.0807833671569824,-0.05244933068752289,-0.14827686548233032
1772593788480832000,9.59083203125,-1.9704861640930176,-0.1675853133201599,-0.09697285294532776
1772593788501096000,9.611095947265625,-1.7321581840515137,-0.26830577850341797,-0.04519346356391907
1772593788521359000,9.631359130859375,-1.4698047637939453,-0.3107764720916748,-0.005681537091732025
1772593788541623000,9.651623046875,-1.1265602111816406,-0.283463716506958,0.009352266788482666
1772593788561887000,9.671886962890625,-0.7759819030761719,-0.22416186332702637,0.015687748789787292
1772593788582150000,9.69214990234375,-0.4137763977050781,-0.13344335556030273,0.017079532146453857
1772593788602414000,9.7124140625,-0.0753021240234375,-0.025785446166992188,0.00453495979309082
1772593788622678000,9.732677978515625,0.22928524017333984,0.08045339584350586,-0.013100266456604004
1772593788642942000,9.75294189453125,0.5048599243164062,0.17662405967712402,-0.026995569467544556
1772593788663205000,9.773205078125,0.6795539855957031,0.2339763641357422,-0.034258484840393066
1772593788683469000,9.793468994140625,0.84619140625,0.28663063049316406,-0.03972518444061279
1772593788703733000,9.81373291015625,0.9071369171142578,0.2946736812591553,-0.03855091333389282
1772593788723996000,9.833995849609375,0.9402284622192383,0.28634142875671387,-0.0356021523475647
1772593788744260000,9.854260009765625,0.8874959945678711,0.25499606132507324,-0.029468506574630737
1772593788764524000,9.87452392578125,0.8326835632324219,0.22495603561401367,-0.023029595613479614
1772593788784787000,9.894786865234375,0.7718019485473633,0.19588637351989746,-0.010037839412689209
1772593788805051000,9.91505078125,0.6093950271606445,0.1463944911956787,0.005223371088504791
1772593788825315000,9.935315185546875,0.44277095794677734,0.10053205490112305,0.008227765560150146
1772593788845578000,9.955577880859375,0.2770061492919922,0.05944395065307617,0.005539208650588989
1772593788865842000,9.975842041015625,0.1338510513305664,0.028158903121948242,0.00274580717086792
