time,seconds_elapsed,z,y,x
1772593779118997000,0.2289970703125,0.0003990844707004726,0.0018623941577970982,-0.0026605629827827215
1772593779139291000,0.249290771484375,-0.003059647511690855,0.002128450432792306,-0.0022614786867052317
1772593779159554000,0.269553955078125,0.0038578163366764784,0.0026605629827827215,0.0006651407456956804
1772593779179818000,0.28981787109375,-0.0038578163366764784,0.004522957373410463,-0.003325703786686063
1772593779200082000,0.31008203125,-0.8797151446342468,-0.19914314150810242,-0.8133341073989868
1772593779220345000,0.330344970703125,-1.4497407674789429,-0.12331710010766983,-0.7925817370414734
1772593779240609000,0.350609130859375,-2.7830820083618164,1.0280416011810303,-0.7436273694038391
1772593779260873000,0.370873046875,-4.868031978607178,2.912252187728882,-0.6517049074172974
1772593779281136000,0.39113623046875,-5.923743724822998,3.6093199253082275,-0.8222470283508301
1772593779301400000,0.411400146484375,-6.248598575592041,3.3338184356689453,-1.004096508026123
1772593779321664000,0.4316640625,-5.237318515777588,1.475947380065918,-1.5577596426010132
1772593779341927000,0.451927001953125,-0.8501828908920288,-2.955486536026001,-2.7514212131500244
1772593779362191000,0.472191162109375,14.66595458984375,-12.96292781829834,-2.278639316558838
1772593779382455000,0.492455078125,28.711732864379883,-28.33473014831543,6.152153015136719
1772593779402718000,0.512718017578125,8.192007064819336,-32.524452209472656,3.0442161560058594
1772593779422982000,0.53298193359375,-2.5540075302124023,-22.666933059692383,-0.26632237434387207
1772593779443246000,0.55324609375,-2.5448286533355713,-10.954203605651855,-0.9645871520042419
1772593779463509000,0.573509033203125,-0.8432654738426208,-4.703476428985596,-0.74868243932724
1772593779483773000,0.59377294921875,0.17320264875888824,-2.826449155807495,-0.42342859506607056
1772593779504037000,0.614037109375,1.101872205734253,-2.198423147201538,-0.12770701944828033
1772593779524300000,0.634300048828125,1.873701572418213,-1.8726372718811035,-0.03857816383242607
1772593779544564000,0.65456396484375,2.5594615936279297,-1.0406792163848877,0.00784866139292717
1772593779564828000,0.674827880859375,3.462456703186035,0.29944637417793274,0.18344582617282867
1772593779585092000,0.695092041015625,4.274726867675781,0.633213996887207,0.45695170760154724
1772593779605355000,0.71535498046875,4.430236339569092,1.5166540145874023,0.7582604885101318
1772593779625619000,0.735618896484375,4.324745178222656,1.9894360303878784,0.7552008032798767
1772593779645883000,0.7558828125,5.421296119689941,1.5066767930984497,0.5980945825576782
1772593779666146000,0.77614599609375,6.691183090209961,0.923215389251709,0.09844083338975906
1772593779686410000,0.796409912109375,6.7221784591674805,1.4738188982009888,0.4505663514137268
1772593779706674000,0.816673828125,5.586251258850098,2.2351388931274414,1.4574564695358276
1772593779726937000,0.83693701171875,3.884289026260376,1.635980248451233,1.3471760749816895
1772593779747201000,0.857200927734375,2.216914176940918,1.147899866104126,1.1792945861816406
1772593779767465000,0.87746484375,1.2294461727142334,1.0918951034545898,1.0603673458099365
1772593779787728000,0.897727783203125,0.822380006313324,1.148698091506958,0.9214860200881958
1772593779807992000,0.917991943359375,0.8560361862182617,1.3872175216674805,1.4794061183929443
1772593779828256000,0.938256103515625,1.4077038764953613,1.3902772665023804,2.458360195159912
1772593779848519000,0.958518798828125,2.194565534591675,0.696402370929718,2.6956825256347656
1772593779868783000,0.978783203125,2.4493143558502197,-0.6338791251182556,1.6589940786361694
1772593779889047000,0.999047119140625,2.15598726272583,-1.9543166160583496,-0.2904004454612732
1772593779909310000,1.01931005859375,1.6162919998168945,-2.0701839923858643,-1.2503316402435303
1772593779929574000,1.039573974609375,1.0921611785888672,-1.5669386386871338,-1.1424458026885986
1772593779949838000,1.059838134765625,0.6650077104568481,-1.1005419492721558,-0.42449283599853516
1772593779970101000,1.08010107421875,0.3517264425754547,-0.6544985175132751,0.13874836266040802
1772593779990365000,1.100364990234375,0.14752821624279022,-0.24064792692661285,0.19142751395702362
1772593780010629000,1.120629150390625,0.09897294640541077,-0.0172936599701643,0.1799870878458023
1772593780030892000,1.14089208984375,0.3324373662471771,0.09724357724189758,0.16535399854183197
1772593780051156000,1.161156005859375,0.80734783411026,0.10855097323656082,0.12464737892150879
1772593780071420000,1.181419921875,0.9017978310585022,0.22295518219470978,0.017426688224077225
1772593780091683000,1.20168310546875,0.7488154768943787,0.45641958713531494,-0.14034469425678253
1772593780111947000,1.221947021484375,0.201936736702919,0.7695678472518921,-0.24157913029193878
1772593780132211000,1.2422109375,-0.8517792820930481,0.6607508063316345,-0.33443278074264526
1772593780152474000,1.26247412109375,-1.7271045446395874,-0.07875266671180725,-0.3589099645614624
1772593780172738000,1.282738037109375,-2.2127902507781982,-0.22681300342082977,-0.2756343185901642
1772593780193002000,1.303001953125,-2.508112668991089,0.1690787822008133,0.08872977644205093
1772593780213265000,1.323264892578125,-2.774036169052124,0.2047303318977356,0.15497779846191406
1772593780233529000,1.343529052734375,-2.674264907836914,0.1597668081521988,-0.3197996914386749
1772593780253793000,1.36379296875,-2.1265881061553955,-0.026472602039575577,-0.634544312953949
1772593780274056000,1.384055908203125,-1.3002171516418457,-0.49473169445991516,-0.8278341889381409
1772593780294320000,1.404320068359375,-0.11985836178064346,-0.6551636457443237,-0.7647788524627686
1772593780314584000,1.424583984375,1.0276424884796143,-0.30223995447158813,-0.7079758048057556
1772593780334847000,1.444846923828125,2.095991611480713,0.15577596426010132,-0.6575581431388855
1772593780355111000,1.46511083984375,2.861435651779175,0.45748382806777954,-0.5503374934196472
1772593780375375000,1.485375,2.8771328926086426,0.5121583938598633,-0.20220279693603516
1772593780395638000,1.505637939453125,2.283827304840088,0.27151045203208923,0.3638319969177246
1772593780415902000,1.52590185546875,1.6322554349899292,-0.18397793173789978,0.6094019412994385
1772593780436166000,1.546165771484375,1.13406503200531,-0.6103331446647644,0.429813951253891
1772593780456429000,1.566428955078125,0.8203846216201782,-1.1365925073623657,-0.040972672402858734
1772593780476693000,1.58669287109375,0.4142496585845947,-1.5114659070968628,-0.1811843365430832
1772593780496957000,1.60695703125,0.8311598896980286,-1.8292701244354248,-0.0828765407204628
1772593780517220000,1.62722021484375,1.309662103652954,-1.9798580408096313,0.005454154219478369
1772593780537484000,1.647484130859375,1.2839877605438232,-1.904297947883606,0.012105561792850494
1772593780557748000,1.667748046875,1.4396306276321411,-1.8039947748184204,-0.03605062887072563
1772593780578011000,1.688010986328125,2.0744409561157227,-2.0680556297302246,-0.13648688793182373
1772593780598275000,1.708275146484375,2.345552444458008,-2.1767396926879883,-0.29013440012931824
1772593780618539000,1.7285390625,2.0381243228912354,-1.8240820169448853,-0.5310483574867249
1772593780638802000,1.748802001953125,-0.3255198895931244,-0.27084532380104065,-1.545654058456421
1772593780659066000,1.769066162109375,-5.919353485107422,2.4297592639923096,-2.516094446182251
1772593780679330000,1.789330078125,-9.625517845153809,2.656572103500366,-4.187061309814453
1772593780699593000,1.809593017578125,-7.230745315551758,0.9306649565696716,-4.069730281829834
1772593780719857000,1.82985693359375,-3.6909990310668945,0.2633957266807556,-2.443993091583252
1772593780740121000,1.85012109375,-1.1162391901016235,0.08872977644205093,-1.3141851425170898
1772593780760384000,1.870384033203125,0.6094019412994385,0.3365612328052521,0.07329851388931274
1772593780780648000,1.89064794921875,1.2076295614242554,0.7558659315109253,1.6805446147918701
1772593780800912000,1.910911865234375,1.2793316841125488,0.8104075193405151,2.390781879425049
1772593780821175000,1.931175048828125,0.7014574408531189,0.8771876096725464,2.300588846206665
1772593780841439000,1.95143896484375,1.0624958276748657,0.9946514964103699,1.7054208517074585
1772593780861703000,1.971702880859375,1.8172975778579712,1.370589017868042,1.488318920135498
1772593780881967000,1.991967041015625,2.8675549030303955,1.9714772701263428,2.1598451137542725
1772593780902230000,2.01222998046875,4.578030586242676,2.052757501602173,3.352708578109741
1772593780922494000,2.032493896484375,5.987064838409424,1.0166010856628418,3.4515483379364014
1772593780942758000,2.0527578125,5.453887939453125,-0.04855527728796005,1.8194260597229004
1772593780963021000,2.07302099609375,3.556640625,-0.17479899525642395,-0.17852377891540527
1772593780983285000,2.093284912109375,1.3880157470703125,0.7050492167472839,-1.0486608743667603
1772593781003549000,2.113548828125,-0.29598763585090637,1.54884672164917,-0.6129937171936035
1772593781023812000,2.13381201171875,-1.3665982484817505,1.7989397048950195,0.4131854474544525
1772593781044076000,2.154075927734375,-2.1933681964874268,1.5544339418411255,1.0703445672988892
1772593781064340000,2.174340087890625,-2.774036169052124,1.2333040237426758,1.0079543590545654
1772593781084603000,2.194602783203125,-3.08119797706604,1.2153451442718506,0.3876440227031708
1772593781104867000,2.2148671875,-3.02559232711792,1.570663332939148,-0.17799167335033417
1772593781125131000,2.235131103515625,-2.584604024887085,2.235006093978882,-0.3360291123390198
1772593781145394000,2.255393798828125,-2.5408377647399902,3.014417886734009,-0.5584521889686584
1772593781165658000,2.275658203125,-2.540970802307129,3.3412680625915527,-1.0066239833831787
1772593781185922000,2.295922119140625,-2.431089401245117,3.5152688026428223,-1.175569772720337
1772593781206185000,2.31618505859375,-2.283694267272949,3.660402536392212,-1.1291429996490479
1772593781226449000,2.336448974609375,-2.053954601287842,3.666788101196289,-0.7083749175071716
1772593781246713000,2.356713134765625,-1.7925543785095215,3.7742748260498047,-0.4894105792045593
1772593781266976000,2.37697607421875,-1.1331337690353394,4.162583827972412,-1.5819708108901978
1772593781287240000,2.397239990234375,0.9409081339836121,5.343341827392578,-4.02596378326416
1772593781307504000,2.417504150390625,3.3052175045013428,5.95447301864624,-4.746843338012695
1772593781327767000,2.43776708984375,3.417227268218994,5.626824855804443,-3.526576280593872
1772593781348031000,2.458031005859375,2.373488187789917,4.893174648284912,-2.179267168045044
1772593781368295000,2.478294921875,1.2118864059448242,4.359997749328613,-1.1239548921585083
1772593781388558000,2.49855810546875,0.3490658700466156,4.2429327964782715,-0.5579200983047485
1772593781408822000,2.518822021484375,-0.07968386262655258,4.692036151885986,-0.48927754163742065
1772593781429086000,2.5390859375,-0.10003717243671417,5.226010799407959,-0.7361778020858765
1772593781449349000,2.55934912109375,-0.012105561792850494,5.234524726867676,-1.1679872274398804
1772593781469613000,2.579613037109375,-0.2244184911251068,4.927229881286621,-1.0765968561172485
1772593781489877000,2.599876953125,-1.0561105012893677,4.457241058349609,-0.5843926668167114
1772593781510140000,2.620139892578125,-1.8673161268234253,4.0326151847839355,-0.4193047285079956
1772593781530404000,2.640404052734375,-2.385593891143799,3.517397403717041,-0.4960619807243347
1772593781550668000,2.66066796875,-2.4490482807159424,3.148510217666626,-0.6712600588798523
1772593781570931000,2.680930908203125,-2.3048458099365234,2.887376070022583,-0.8640178442001343
1772593781591195000,2.70119482421875,-2.0618033409118652,2.671870470046997,-1.0043625831604004
1772593781611459000,2.721458984375,-1.902302622795105,2.4421308040618896,-1.086440920829773
1772593781631722000,2.741721923828125,-1.6596592664718628,2.263740062713623,-1.124087929725647
1772593781651986000,2.76198583984375,-1.3370659351348877,2.153592824935913,-1.1385879516601562
1772593781672250000,2.78225,-1.0361562967300415,1.896449327468872,-1.0062249898910522
1772593781692513000,2.802512939453125,-0.6845628619194031,1.568668007850647,-0.8290314674377441
1772593781712777000,2.82277685546875,-0.26858383417129517,1.2404875755310059,-0.6805720329284668
1772593781733041000,2.843041015625,-0.09378484636545181,0.9234814047813416,-0.47118571400642395
1772593781753304000,2.863303955078125,-0.31035467982292175,0.5640393495559692,-0.2645930051803589
1772593781773568000,2.883568115234375,-1.0043625831604004,0.522268533706665,-0.2635287642478943
1772593781793832000,2.90383203125,-0.8511140942573547,0.4977913498878479,-0.6333470344543457
1772593781814095000,2.92409521484375,-0.24237729609012604,0.8316919803619385,-0.9615274667739868
1772593781834359000,2.944359130859375,-0.3062308132648468,0.911907970905304,-1.108257532119751
1772593781854623000,2.964623046875,-0.8315590023994446,0.43287360668182373,-0.8649490475654602
1772593781874886000,2.984885986328125,-0.9862707257270813,0.7960404753684998,-0.11812900006771088
1772593781895150000,3.005150146484375,-0.6707279682159424,1.1549503803253174,0.7175538539886475
1772593781915414000,3.0254140625,-0.39496058225631714,1.049592137336731,1.1663908958435059
1772593781935677000,3.045677001953125,-0.16335856914520264,0.8654811382293701,1.2176066637039185
1772593781955941000,3.065941162109375,0.198078915476799,0.7046501040458679,1.1496292352676392
1772593781976205000,3.086205078125,0.7756871581077576,0.5927734375,0.8379443287849426
1772593781996468000,3.106468017578125,1.8262104988098145,0.6324158310890198,0.35252460837364197
1772593782016732000,3.12673193359375,3.206111431121826,1.2383590936660767,0.5310483574867249
1772593782036996000,3.14699609375,3.783320665359497,1.4244654178619385,0.9768257141113281
1772593782057259000,3.167259033203125,3.271162271499634,0.8360819220542908,0.41132304072380066
1772593782077523000,3.18752294921875,2.294203519821167,0.13036759197711945,0.4642682373523712
1772593782097787000,3.207786865234375,1.4586536884307861,-0.37301093339920044,0.5249291062355042
1772593782118050000,3.228050048828125,0.9330594539642334,-0.5059060454368591,-0.09471604228019714
1772593782138314000,3.24831396484375,1.0672848224639893,-0.13050061464309692,-0.7067785859107971
1772593782158578000,3.268577880859375,1.5097365379333496,0.4461764097213745,-0.3313731253147125
1772593782178842000,3.288842041015625,1.7743295431137085,0.849118709564209,-0.8649490475654602
1772593782199105000,3.30910498046875,1.52822744846344,0.7711641788482666,-0.4412543773651123
1772593782219369000,3.329368896484375,0.7994992136955261,0.289070188999176,0.1327620893716812
1772593782239633000,3.3496328125,0.18424399197101593,0.012770703062415123,0.20260187983512878
1772593782259896000,3.36989599609375,-0.25541403889656067,-0.061991117894649506,0.22162489593029022
1772593782280160000,3.390159912109375,-0.7517420649528503,-0.05547273904085159,0.15125301480293274
1772593782300424000,3.410423828125,-0.8696050047874451,0.2547489106655121,0.12637674808502197
1772593782320687000,3.43068701171875,-0.7779486179351807,0.844994843006134,0.4774380326271057
1772593782340951000,3.450950927734375,-0.6646086573600769,1.4618463516235352,0.6576911807060242
1772593782361215000,3.471215087890625,-0.570956826210022,1.8874033689498901,-0.013435843400657177
1772593782381478000,3.491477783203125,-0.37779995799064636,1.9343624114990234,-1.127280592918396
1772593782401742000,3.5117421875,-0.4098597466945648,1.5010896921157837,-1.5380715131759644
1772593782422006000,3.532006103515625,-1.080986738204956,0.6675352454185486,-1.175968885421753
1772593782442269000,3.55226904296875,-1.6707005500793457,0.08846372365951538,-0.560048520565033
1772593782462533000,3.572533203125,-1.7024942636489868,-0.029266193509101868,0.06505076587200165
1772593782482797000,3.592797119140625,-1.5621496438980103,-0.011041336692869663,-0.06544984877109528
1772593782503060000,3.61306005859375,-1.1389870643615723,0.1734687089920044,-0.8934170603752136
1772593782523324000,3.633323974609375,-0.6552966833114624,0.33004283905029297,-1.6692372560501099
1772593782543588000,3.653588134765625,0.009977111592888832,0.641860842704773,-2.1534597873687744
1772593782563851000,3.67385107421875,1.0114130973815918,1.3729835748672485,-2.0051333904266357
1772593782584115000,3.694114990234375,2.054752826690674,2.1698222160339355,-1.2495334148406982
1772593782604379000,3.71437890625,2.8050315380096436,2.910522937774658,-0.6121955513954163
1772593782624642000,3.73464208984375,2.974642515182495,3.1407947540283203,-0.31368038058280945
1772593782644906000,3.754906005859375,2.4072773456573486,2.4813740253448486,-0.08487196266651154
1772593782665170000,3.775169921875,1.703824520111084,1.4738188982009888,0.13435843586921692
1772593782685433000,3.79543310546875,0.9543439745903015,0.6425259709358215,0.5669659972190857
1772593782705697000,3.815697021484375,0.05733513459563255,0.06997280567884445,0.9139034152030945
1772593782725961000,3.8359609375,-0.7309896945953369,-0.04057358577847481,0.8994033336639404
1772593782746224000,3.85622412109375,-1.1512256860733032,0.21590469777584076,0.7139620780944824
1772593782766488000,3.876488037109375,-1.0535829067230225,0.47278204560279846,0.5031124949455261
1772593782786752000,3.896751953125,-0.48209401965141296,0.47278204560279846,0.3755384683609009
1772593782807015000,3.917014892578125,0.05361034348607063,0.2623315155506134,0.2995794117450714
1772593782827279000,3.937279052734375,0.49765831232070923,-0.004522957373410463,0.25607919692993164
1772593782847543000,3.95754296875,1.2512627840042114,-0.15444567799568176,0.2382534146308899
1772593782867806000,3.977805908203125,1.438300371170044,-0.3171391189098358,-0.012371618300676346
1772593782888070000,3.99806982421875,0.904192328453064,-0.6483792066574097,-1.1556155681610107
1772593782908334000,4.018333984375,-1.3584834337234497,-0.937715470790863,-3.6441731452941895
1772593782928597000,4.038596923828125,-5.156304359436035,-1.0720739364624023,-6.607774257659912
1772593782948861000,4.05886083984375,-6.651806831359863,-0.9358530640602112,-5.824371814727783
1772593782969125000,4.079125,-5.015560626983643,-0.4247588813304901,-2.861701488494873
1772593782989388000,4.099387939453125,-2.29180908203125,0.10110139846801758,-0.5025803446769714
1772593783009652000,4.11965185546875,0.7732926607131958,0.4847545921802521,0.3869788944721222
1772593783029916000,4.139916015625,2.3867909908294678,0.644122302532196,1.1699825525283813
1772593783050179000,4.160178955078125,2.54296612739563,0.43114423751831055,2.4265666007995605
1772593783070443000,4.180443115234375,2.2678639888763428,0.02008725143969059,3.5143377780914307
1772593783090707000,4.20070703125,2.5115714073181152,0.11373907327651978,4.140501022338867
1772593783110970000,4.22097021484375,3.2271299362182617,0.1503218114376068,4.2389421463012695
1772593783131234000,4.241234130859375,3.280740261077881,0.1355556845664978,3.6409804821014404
1772593783151498000,4.261498046875,2.6604299545288086,-0.012903730385005474,2.7633938789367676
1772593783171761000,4.281760986328125,1.611103892326355,-0.2526204586029053,1.546851396560669
1772593783192025000,4.302025146484375,0.7058473825454712,-0.2421112358570099,-0.016229433938860893
1772593783212289000,4.3222890625,0.2611342668533325,0.11533540487289429,-1.1008079051971436
1772593783232552000,4.342552001953125,0.04310112074017525,0.4949977397918701,-1.4853923320770264
1772593783252816000,4.36281591796875,-0.06731224805116653,0.7239391803741455,-0.911907970905304
1772593783273080000,4.383080078125,-0.348400741815567,0.8311598896980286,-0.1954183578491211
1772593783293343000,4.403343017578125,-0.8342195153236389,0.626828670501709,0.08314259350299835
1772593783313607000,4.42360693359375,-0.9661834836006165,0.4318093955516815,0.0658489316701889
1772593783333871000,4.44387109375,-0.8765224814414978,0.4956628978252411,-0.4220983386039734
1772593783354134000,4.464134033203125,-0.7087739706039429,0.6392002701759338,-0.8155956268310547
1772593783374398000,4.48439794921875,-0.5098969340324402,0.6489112973213196,-0.7786137461662292
1772593783394662000,4.504661865234375,-0.2898683547973633,0.6797738671302795,-0.6897509694099426
1772593783414925000,4.524925048828125,-0.11812900006771088,0.8193203806877136,-0.6302874088287354
1772593783435189000,4.54518896484375,-0.055073656141757965,0.8387424945831299,-0.523199737071991
1772593783455453000,4.565452880859375,-0.6648747324943542,0.22415243089199066,-0.05839935690164566
1772593783475717000,4.585717041015625,-1.916536569595337,-1.025514006614685,0.7658430933952332
1772593783495980000,4.60597998046875,-2.755279064178467,-1.9013713598251343,1.1033354997634888
1772593783516244000,4.626243896484375,-2.4691355228424072,-1.8915272951126099,0.9574036002159119
1772593783536508000,4.6465078125,-1.4218049049377441,-1.29050612449646,0.13409237563610077
1772593783556771000,4.66677099609375,-0.32631805539131165,-0.6487783193588257,-0.9193575382232666
1772593783577035000,4.687034912109375,0.13462449610233307,-0.7391043901443481,-1.0398811101913452
1772593783597299000,4.707298828125,0.17080815136432648,-0.9898625016212463,-0.2979830503463745
1772593783617562000,4.72756201171875,0.12704189121723175,-0.745489776134491,0.3678228259086609
1772593783637826000,4.747825927734375,0.2739049792289734,0.1877027153968811,0.5721541047096252
1772593783658090000,4.768090087890625,0.822380006313324,1.3012813329696655,0.35864388942718506
1772593783678353000,4.788352783203125,1.414621353149414,1.5738561153411865,0.5114932656288147
1772593783698617000,4.8086171875,1.7008979320526123,0.9588668942451477,0.810939610004425
1772593783718881000,4.828881103515625,1.5731909275054932,0.03525245934724808,0.6249662637710571
1772593783739144000,4.84914404296875,1.24421226978302,-0.4758417010307312,0.29944637417793274
1772593783759408000,4.869408203125,0.47052058577537537,-0.6623471975326538,0.2173680067062378
1772593783779672000,4.889672119140625,-0.1559089869260788,-0.5909110307693481,0.27802884578704834
1772593783799935000,4.90993505859375,0.12597766518592834,-0.38059353828430176,0.6548975706100464
1772593783820199000,4.930198974609375,0.8733298182487488,-0.24118003249168396,1.0124772787094116
1772593783840463000,4.950463134765625,1.5181173086166382,-0.31035467982292175,1.0727390050888062
1772593783860726000,4.97072607421875,2.076303482055664,-0.348400741815567,0.8038890957832336
1772593783880990000,4.990989990234375,2.5719664096832275,-0.3480016589164734,0.21337716281414032
1772593783901254000,5.01125390625,3.194937229156494,-0.33895573019981384,-0.31540974974632263
1772593783921517000,5.03151708984375,3.9485416412353516,-0.25767552852630615,-1.4392316341400146
1772593783941781000,5.051781005859375,3.7567150592803955,0.05560576915740967,-3.557837963104248
1772593783962045000,5.072044921875,0.34999707341194153,0.7617192268371582,-6.904027938842773
1772593783982308000,5.09230810546875,-6.45040225982666,0.3199326992034912,-7.615728855133057
1772593784002572000,5.112572021484375,-9.461228370666504,-0.7498797178268433,-3.871119260787964
1772593784022836000,5.1328359375,-6.79733943939209,-0.4095936715602875,-1.0684821605682373
1772593784043099000,5.153098876953125,-3.8099262714385986,0.21763405203819275,0.8795821666717529
1772593784063363000,5.173363037109375,-1.8146370649337769,0.34174931049346924,2.348745107650757
1772593784083627000,5.193626953125,-0.16588610410690308,0.2792260944843292,3.346456289291382
1772593784103890000,5.213889892578125,0.21670286357402802,0.0570690780878067,4.298671722412109
1772593784124154000,5.234154052734375,0.8896923065185547,-0.35771268606185913,4.499943256378174
1772593784144418000,5.25441796875,1.238625168800354,-0.7425631284713745,3.852229118347168
1772593784164681000,5.274680908203125,0.9582017660140991,-0.800031304359436,2.7450358867645264
1772593784184945000,5.29494482421875,1.0509223937988281,-0.4093276262283325,1.9454036951065063
1772593784205209000,5.315208984375,1.862394094467163,0.2096523642539978,1.9056283235549927
1772593784225472000,5.335471923828125,2.3901166915893555,0.8355498313903809,1.8625271320343018
1772593784245736000,5.35573583984375,2.128849506378174,0.7726275324821472,0.6743196845054626
1772593784266000000,5.375999755859375,1.5974020957946777,0.4501672685146332,-0.6111313104629517
1772593784286263000,5.396262939453125,0.9643210768699646,0.24942778050899506,-0.8505820035934448
1772593784306527000,5.41652685546875,0.05986266955733299,-0.10948216915130615,-0.5173465013504028
1772593784326791000,5.436791015625,-0.6901500821113586,-0.5685623288154602,0.03804605081677437
1772593784347054000,5.45705419921875,-0.8649490475654602,-0.6172506213188171,-0.262996643781662
1772593784367318000,5.477318115234375,-0.7387053370475769,-0.5255942344665527,-0.7090400457382202
1772593784387582000,5.49758203125,-0.5673650503158569,-0.5543283224105835,-0.737774133682251
1772593784407845000,5.51784521484375,-0.4916720390319824,-0.5504704713821411,-0.9733669757843018
1772593784428109000,5.538109130859375,-0.4633370637893677,-0.4017450213432312,-1.1682531833648682
1772593784448373000,5.558373046875,-0.6139249205589294,-0.3253868520259857,-1.0280416011810303
1772593784468636000,5.578635986328125,-0.9139034152030945,-0.4045386016368866,-0.8044212460517883
1772593784488900000,5.598900146484375,-0.8002973794937134,-0.15231724083423615,-0.6228377819061279
1772593784509164000,5.6191640625,-0.44484615325927734,0.1015004813671112,-0.3815247416496277
1772593784529427000,5.639427001953125,-0.6229708194732666,0.1497897058725357,0.3420153856277466
1772593784549691000,5.65969091796875,-1.231441617012024,-0.6048790216445923,1.0374865531921387
1772593784569955000,5.679955078125,-2.1301798820495605,-1.5113328695297241,1.2428820133209229
1772593784590218000,5.700218017578125,-2.7691140174865723,-1.9334311485290527,1.2479370832443237
1772593784610482000,5.72048193359375,-2.7446367740631104,-1.135927438735962,0.6334800720214844
1772593784630746000,5.74074609375,-2.2703914642333984,-0.9417062997817993,0.2969188392162323
1772593784651009000,5.761009033203125,-1.8423068523406982,-1.4839290380477905,0.1745329350233078
1772593784671273000,5.78127294921875,-0.932793378829956,-0.7275309562683105,-0.11786293983459473
1772593784691537000,5.801536865234375,0.2600700259208679,0.6723242998123169,-0.34161630272865295
1772593784711800000,5.821800048828125,1.3386622667312622,1.9822524785995483,-0.5483420491218567
1772593784732064000,5.84206396484375,2.196560859680176,2.7010035514831543,-0.7204804420471191
1772593784752328000,5.862327880859375,2.6181271076202393,2.504521131515503,-0.5496723055839539
1772593784772592000,5.882592041015625,2.3804056644439697,1.5705304145812988,-0.16149617731571198
1772593784792855000,5.90285498046875,1.813173770904541,0.5945028066635132,0.1371520310640335
1772593784813119000,5.923118896484375,1.0320323705673218,-0.3102216422557831,0.3507952392101288
1772593784833383000,5.9433828125,0.26206547021865845,-0.8766555190086365,0.4687912166118622
1772593784853646000,5.96364599609375,-0.2914646863937378,-1.2581802606582642,0.5525989532470703
1772593784873910000,5.983909912109375,-0.2853453755378723,-1.584099292755127,0.6912142634391785
1772593784894174000,6.004174072265625,0.22401940822601318,-1.9734725952148438,0.8771876096725464
1772593784914437000,6.02443701171875,0.7658430933952332,-2.1989552974700928,1.0003716945648193
1772593784934701000,6.044701171875,1.361410140991211,-2.1037073135375977,0.9583348035812378
1772593784954965000,6.064965087890625,1.9806561470031738,-1.938752293586731,0.8344855904579163
1772593784975228000,6.085227783203125,2.4197821617126465,-1.7441320419311523,0.7466869950294495
1772593784995492000,6.1054921875,2.5871315002441406,-1.9126787185668945,0.7796779870986938
1772593785015756000,6.125756103515625,2.425236225128174,-2.4501125812530518,0.8512471318244934
1772593785036019000,6.14601904296875,2.2980613708496094,-3.4515483379364014,0.6147230863571167
1772593785056283000,6.166282958984375,1.7753937244415283,-4.793270587921143,-0.9885321855545044
1772593785076547000,6.186547119140625,0.38950642943382263,-6.705417156219482,-3.461259603500366
1772593785096810000,6.20681005859375,-0.9629908204078674,-7.697275161743164,-4.714251518249512
1772593785117074000,6.227073974609375,-1.3348045349121094,-6.583829402923584,-3.471768617630005
1772593785137338000,6.247338134765625,-0.3639650344848633,-4.497814655303955,-1.1502944231033325
1772593785157601000,6.26760107421875,1.6672418117523193,-3.342465400695801,0.19608350098133087
1772593785177865000,6.287864990234375,2.972647190093994,-3.53189754486084,0.1887669414281845
1772593785198129000,6.30812890625,2.0011425018310547,-4.359864711761475,-0.23958370089530945
1772593785218392000,6.32839208984375,-0.7051822543144226,-4.950775623321533,0.03285795450210571
1772593785238656000,6.348656005859375,-3.003110647201538,-4.58481502532959,0.5682962536811829
1772593785258920000,6.368919921875,-3.906238555908203,-3.6995129585266113,0.9885321855545044
1772593785279183000,6.38918310546875,-3.747668981552124,-2.959078311920166,1.565076231956482
1772593785299447000,6.409447021484375,-3.208240032196045,-1.8312655687332153,1.2487353086471558
1772593785319711000,6.4297109375,-2.412731647491455,-2.7148385047912598,1.9847800731658936
1772593785339974000,6.449973876953125,-1.5008236169815063,-3.013486623764038,1.97280752658844
1772593785360238000,6.470238037109375,-0.7619852423667908,-3.0380969047546387,1.7102099657058716
1772593785380502000,6.490501953125,-0.02700471505522728,-2.7578065395355225,1.3783047199249268
1772593785400765000,6.510764892578125,0.4463094472885132,-2.4309563636779785,1.0952208042144775
1772593785421029000,6.531029052734375,0.5333098769187927,-2.4098050594329834,0.9716376066207886
1772593785441293000,6.55129296875,0.5137547254562378,-2.422309637069702,0.9230823516845703
1772593785461556000,6.571555908203125,0.47185084223747253,-2.3673689365386963,0.885967493057251
1772593785481820000,6.59181982421875,0.4570847451686859,-2.464346408843994,0.8692059516906738
1772593785502084000,6.612083984375,0.4496351480484009,-2.4253692626953125,0.7868615388870239
1772593785522347000,6.632346923828125,0.4395250082015991,-2.3385019302368164,0.4890114963054657
1772593785542611000,6.65261083984375,0.4177083969116211,-2.423905849456787,0.03232584148645401
1772593785562875000,6.672875,0.363432914018631,-2.379873752593994,-0.06904160976409912
1772593785583138000,6.693137939453125,0.2947903871536255,-2.2969970703125,0.05201400816440582
1772593785603402000,6.713402099609375,0.22628088295459747,-2.0973217487335205,0.4117221236228943
1772593785623666000,6.733666015625,0.1366199105978012,-1.7135356664657593,0.9942523837089539
1772593785643929000,6.75392919921875,0.021151475608348846,-1.3586164712905884,1.1758358478546143
1772593785664193000,6.774193115234375,-0.007715632673352957,-1.0970832109451294,1.0934914350509644
1772593785684457000,6.79445703125,-0.00013302815204951912,-0.9929221272468567,0.9760275483131409
1772593785704720000,6.814719970703125,0.002128450432792306,-1.0285736322402954,0.8890271186828613
1772593785724984000,6.834984130859375,-0.007183520123362541,-1.0229865312576294,0.810939610004425
1772593785745248000,6.855248046875,0.06119294837117195,-1.1115832328796387,0.7323199510574341
1772593785765511000,6.875510986328125,0.20566152036190033,-1.2827904224395752,0.6293562054634094
1772593785785775000,6.895775146484375,0.2797582149505615,-1.4742180109024048,0.5756128430366516
1772593785806039000,6.9160390625,0.1783907562494278,-1.561484456062317,0.4346029758453369
1772593785826302000,6.936302001953125,-0.3648962080478668,-1.652342677116394,0.11772991716861725
1772593785846566000,6.95656591796875,-0.8890271186828613,-1.7265723943710327,-0.37074947357177734
1772593785866830000,6.976830078125,-0.9021969437599182,-1.7646183967590332,-0.5438190698623657
1772593785887093000,6.997093017578125,-0.7211456298828125,-1.6870629787445068,-1.3099281787872314
1772593785907357000,7.01735693359375,-0.5271905660629272,-1.4227360486984253,-1.5662734508514404
1772593785927621000,7.03762109375,-0.08154625445604324,-0.8588297367095947,-1.4614472389221191
1772593785947884000,7.057884033203125,0.5663008689880371,-0.3511943221092224,-1.1892716884613037
1772593785968148000,7.07814794921875,1.0962849855422974,-0.3319052457809448,-0.8175910115242004
1772593785988412000,7.098411865234375,1.2944968938827515,-0.5628421306610107,-0.49087387323379517
1772593786008675000,7.118675048828125,1.3100612163543701,-0.651837944984436,-0.25647827982902527
1772593786028939000,7.13893896484375,1.3024786710739136,-0.6298882961273193,0.36130446195602417
1772593786049203000,7.159202880859375,1.4155526161193848,-0.6417278051376343,1.2684234380722046
1772593786069467000,7.179466796875,1.4762134552001953,-0.4510984718799591,1.808783769607544
1772593786089730000,7.19972998046875,1.2136157751083374,-0.13701899349689484,1.9581743478775024
1772593786109994000,7.219993896484375,0.9504861235618591,-0.60820472240448,0.971371591091156
1772593786130258000,7.2402578125,0.7755541205406189,-1.5207778215408325,-0.3380245268344879
1772593786150521000,7.26052099609375,0.6127276420593262,-1.8850089311599731,-0.06850949674844742
1772593786170785000,7.280784912109375,0.4774380326271057,-2.0507619380950928,-0.011041336692869663
1772593786191049000,7.301049072265625,0.32512080669403076,-2.0277481079101562,-0.24849659204483032
1772593786211312000,7.32131201171875,0.17918892204761505,-1.8756968975067139,-0.2793591320514679
1772593786231576000,7.341576171875,0.05613787844777107,-1.7718019485473633,-0.17918892204761505
1772593786251840000,7.361840087890625,0.1827806830406189,-1.9471330642700195,-0.1223858967423439
1772593786272103000,7.38210302734375,0.6753839254379272,-2.340630292892456,-0.10948216915130615
1772593786292367000,7.4023671875,0.8787840008735657,-2.4161903858184814,-0.1404777318239212
1772593786312631000,7.422631103515625,0.8054854869842529,-2.357923984527588,-0.6108652949333191
1772593786332894000,7.44289404296875,-0.0949821025133133,-1.6600582599639893,-2.1899094581604004
1772593786353158000,7.463157958984375,-2.3516716957092285,-0.13023455440998077,-3.7692196369171143
1772593786373422000,7.483422119140625,-3.8889451026916504,0.8759903907775879,-1.2745426893234253
1772593786393685000,7.50368505859375,-3.849036455154419,0.9841422438621521,-1.8482931852340698
1772593786413949000,7.523948974609375,-3.0173444747924805,0.6752508878707886,-1.7648844718933105
1772593786434213000,7.544213134765625,-1.5902185440063477,0.3546530604362488,-0.6231038570404053
1772593786454476000,7.56447607421875,0.04655985161662102,0.3533227741718292,1.0795234441757202
1772593786474740000,7.584739990234375,0.3511943221092224,0.27151045203208923,2.017371892929077
1772593786495004000,7.60500390625,1.3648688793182373,0.03299098089337349,0.9982432723045349
1772593786515267000,7.62526708984375,2.256556510925293,-0.31101980805397034,0.4626719057559967
1772593786535531000,7.645531005859375,2.715104579925537,-0.6841638088226318,0.2523544132709503
1772593786555795000,7.665794921875,3.0452804565429688,-0.844595730304718,1.4175479412078857
1772593786576058000,7.68605810546875,2.8968210220336914,-0.6394663453102112,2.1445467472076416
1772593786596322000,7.706322021484375,2.439204216003418,-0.3978872001171112,2.5259385108947754
1772593786616586000,7.7265859375,1.732425570487976,-0.45083239674568176,2.4934797286987305
1772593786636849000,7.746848876953125,0.8749261498451233,-0.2184322327375412,2.1033082008361816
1772593786657113000,7.767113037109375,-0.5176125168800354,0.31913453340530396,1.7336229085922241
1772593786677377000,7.787376953125,-1.9350274801254272,0.6308194994926453,1.1722440719604492
1772593786697640000,7.807639892578125,-3.1023495197296143,1.0134084224700928,-0.05773421749472618
1772593786717904000,7.82790380859375,-3.7599077224731445,1.4094332456588745,0.3228593170642853
1772593786738168000,7.84816796875,-3.746471881866455,1.6543381214141846,1.197386384010315
1772593786758431000,7.868430908203125,-2.9796974658966064,1.6351820230484009,0.6035487055778503
1772593786778695000,7.88869482421875,-1.3733826875686646,1.3063364028930664,-0.6586223840713501
1772593786798959000,7.908958984375,0.13954652845859528,0.9238805174827576,-0.6844298243522644
1772593786819222000,7.929221923828125,1.0303030014038086,0.8084120750427246,-0.5173465013504028
1772593786839486000,7.94948583984375,1.1585421562194824,0.9580687284469604,-0.3853825628757477
1772593786859750000,7.96975,0.4879472553730011,1.2090928554534912,-0.25341862440109253
1772593786880013000,7.990012939453125,-0.7113015055656433,1.5535027980804443,0.08593618869781494
1772593786900277000,8.010277099609375,-1.822751760482788,1.7054208517074585,0.289336234331131
1772593786920541000,8.030541015625,-2.4698007106781006,1.5878239870071411,0.3726118505001068
1772593786940804000,8.05080419921875,-2.607484817504883,1.3167126178741455,0.522800624370575
1772593786961068000,8.071068115234375,-2.064729928970337,0.6446544528007507,0.023146897554397583
1772593786981332000,8.09133203125,-1.302744746208191,-0.07037189602851868,-0.6394663453102112
1772593787001595000,8.111594970703125,-0.6658058762550354,-0.5592503547668457,-0.7412328720092773
1772593787021859000,8.131859130859375,-0.02421112358570099,-0.7548017501831055,-0.4550893008708954
1772593787042123000,8.152123046875,1.0052937269210815,-0.6874895095825195,0.056536965072155
1772593787062386000,8.172385986328125,2.1225972175598145,-0.5686953663825989,0.39775416254997253
1772593787082650000,8.192650146484375,3.0734825134277344,-0.5205391645431519,0.38498347997665405
1772593787102914000,8.2129140625,3.4410393238067627,-0.5416906476020813,0.24543693661689758
1772593787123177000,8.233177001953125,3.0342390537261963,-0.7206134796142578,-0.07808752357959747
1772593787143441000,8.25344091796875,2.2927401065826416,-1.0867069959640503,-0.27789580821990967
1772593787163705000,8.273705078125,1.6413013935089111,-1.436437964439392,-0.07609210163354874
1772593787183968000,8.293968017578125,1.1512256860733032,-1.695576786994934,0.15271632373332977
1772593787204232000,8.31423193359375,0.7941780686378479,-1.6754895448684692,0.2112487107515335
1772593787224496000,8.33449609375,0.5462135672569275,-1.4613142013549805,0.38618072867393494
1772593787244759000,8.354759033203125,0.38604769110679626,-1.2483361959457397,0.4582819938659668
1772593787265023000,8.37502294921875,0.37181368470191956,-1.0823169946670532,0.4770389497280121
1772593787285287000,8.395286865234375,1.1352622509002686,-1.7934855222702026,0.2918637692928314
1772593787305550000,8.415550048828125,2.6431362628936768,-3.424410581588745,0.1987440586090088
1772593787325814000,8.43581396484375,4.046849250793457,-4.737398624420166,-0.17958800494670868
1772593787346078000,8.456077880859375,4.039133548736572,-1.395997405052185,-0.02540837787091732
1772593787366342000,8.476341796875,0.4872821271419525,1.286116123199463,-2.3291900157928467
1772593787386605000,8.49660498046875,-8.011886596679688,6.741999626159668,-4.620998859405518
1772593787406869000,8.516868896484375,-15.523055076599121,8.830941200256348,-6.372048377990723
1772593787427133000,8.5371328125,-13.449678421020508,5.654760837554932,-4.9350786209106445
1772593787447396000,8.55739599609375,-7.619852542877197,2.782416820526123,-2.5050530433654785
1772593787467660000,8.577659912109375,-2.119138479232788,0.9589999318122864,-0.5663008689880371
1772593787487924000,8.597924072265625,1.9686836004257202,0.28295087814331055,1.4031809568405151
1772593787508187000,8.618186767578125,4.070262432098389,-0.18091829121112823,1.846031665802002
1772593787528440000,8.638440185546875,5.159762859344482,-0.9744312167167664,-0.20699180662631989
1772593787548703000,8.658702880859375,5.447768688201904,-0.385249525308609,-0.3792632520198822
1772593787568967000,8.678966796875,5.095510482788086,-0.8737289309501648,-0.6236359477043152
1772593787589231000,8.699231201171875,4.224442005157471,0.2371891885995865,0.18012011051177979
1772593787609494000,8.719493896484375,3.0402255058288574,1.8008021116256714,1.482332706451416
1772593787629758000,8.739758056640625,1.2339690923690796,4.076780796051025,2.3028502464294434
1772593787650022000,8.76002197265625,-0.8694720268249512,5.977487087249756,2.384263515472412
1772593787670285000,8.78028515625,-2.056748151779175,5.6227006912231445,1.196987271308899
1772593787690549000,8.800549072265625,-1.5795762538909912,3.479750394821167,-0.19355596601963043
1772593787710813000,8.82081298828125,-0.3831210732460022,1.5759844779968262,-0.4781031906604767
1772593787731076000,8.841076171875,-0.030596474185585976,0.3692861497402191,-0.31208404898643494
1772593787751340000,8.861340087890625,-0.9935872554779053,-0.32472172379493713,-0.5563237071037292
1772593787771604000,8.88160400390625,-2.26094651222229,-0.5289199352264404,-1.333740234375
1772593787791867000,8.901866943359375,-2.478447437286377,-0.29838213324546814,-1.1608036756515503
1772593787812131000,8.922131103515625,-1.7341549396514893,-0.24716630578041077,-0.5612457990646362
1772593787832395000,8.94239501953125,-0.7231410145759583,-0.6011542081832886,0.06398653984069824
1772593787852658000,8.962657958984375,-0.10402801632881165,-0.8582976460456848,0.18517518043518066
1772593787872922000,8.982922119140625,0.03551851585507393,-0.8120038509368896,-0.06451865285634995
1772593787893186000,9.00318603515625,0.1289042830467224,-0.5571218729019165,0.03857816383242607
1772593787913449000,9.023448974609375,0.9286695122718811,-0.34161630272865295,0.537300705909729
1772593787933713000,9.043712890625,1.993825912475586,-0.16828061640262604,0.6739206314086914
1772593787953977000,9.06397705078125,1.5404659509658813,0.21031750738620758,0.45641958713531494
1772593787974240000,9.084239990234375,-1.2494003772735596,0.6092689633369446,0.02979830652475357
1772593787994504000,9.10450390625,-3.9622435569763184,0.8864995837211609,-0.12411526590585709
1772593788014768000,9.12476806640625,-4.523223400115967,1.1625330448150635,-0.26964807510375977
1772593788035031000,9.145031005859375,-3.9236652851104736,1.8078526258468628,-0.5930395126342773
1772593788055295000,9.165294921875,-3.6445722579956055,1.745462417602539,-0.6002230048179626
1772593788075559000,9.185558837890625,-3.6653246879577637,3.8776376247406006,-1.5392687320709229
1772593788095822000,9.205822021484375,-3.4286675453186035,5.38631010055542,-1.7122052907943726
1772593788116086000,9.2260859375,-3.149308443069458,6.745192527770996,-1.1584091186523438
1772593788136350000,9.246349853515625,-2.9945967197418213,6.964688777923584,-0.5347731709480286
1772593788156613000,9.266613037109375,-2.788403034210205,6.387878894805908,0.03538548946380615
1772593788176877000,9.286876953125,-2.2259600162506104,5.894211292266846,0.35811179876327515
1772593788197141000,9.30714111328125,-1.7377467155456543,5.333630561828613,0.18145039677619934
1772593788217404000,9.32740380859375,-1.4599839448928833,4.999730110168457,-0.011573448777198792
1772593788237668000,9.347668212890625,-1.7181916236877441,5.081010341644287,0.21523955464363098
1772593788257932000,9.36793212890625,-2.4534382820129395,5.346800327301025,0.7720953822135925
1772593788278195000,9.38819482421875,-2.897885322570801,5.030459403991699,1.34198796749115
1772593788298459000,9.408458984375,-2.738384485244751,3.9537296295166016,1.4384334087371826
1772593788318723000,9.42872314453125,-2.201349973678589,2.737985372543335,1.287845492362976
1772593788338986000,9.448986083984375,-1.9426101446151733,1.9243851900100708,1.5339475870132446
1772593788359250000,9.46925,-1.970546007156372,1.269620656967163,1.9411468505859375
1772593788379514000,9.48951416015625,-2.0861475467681885,1.140051245689392,2.2618777751922607
1772593788399777000,9.509777099609375,-1.8043938875198364,0.6540994048118591,2.1819276809692383
1772593788420041000,9.530041015625,-1.675622582435608,1.1421797275543213,2.4902870655059814
1772593788440305000,9.550304931640625,-2.0365278720855713,1.5266311168670654,3.22420334815979
1772593788460568000,9.570568115234375,-2.125922918319702,1.6327875852584839,3.7802610397338867
1772593788480832000,9.59083203125,-1.534612774848938,1.2716161012649536,3.4947826862335205
1772593788501096000,9.611095947265625,-0.793246865272522,0.9057886600494385,2.6062874794006348
1772593788521359000,9.631359130859375,-0.348666787147522,0.689617931842804,2.1313769817352295
1772593788541623000,9.651623046875,-0.28122150897979736,0.540493369102478,2.0869455337524414
1772593788561887000,9.671886962890625,-0.429813951253891,0.37074947357177734,1.5452550649642944
1772593788582150000,9.69214990234375,-0.5345070958137512,0.2985151708126068,0.941839337348938
1772593788602414000,9.7124140625,-0.9265410900115967,0.5416906476020813,0.593172550201416
1772593788622678000,9.732677978515625,-1.304474115371704,0.6360076069831848,0.3938963711261749
1772593788642942000,9.75294189453125,-1.3014143705368042,0.12438131868839264,0.266588419675827
1772593788663205000,9.773205078125,-1.0336287021636963,-0.7045170664787292,0.1492575854063034
1772593788683469000,9.793468994140625,-0.9629908204078674,-1.0128763914108276,-0.12744097411632538
1772593788703733000,9.81373291015625,-0.8899583220481873,-0.9578027129173279,-0.5718880295753479
1772593788723996000,9.833995849609375,-0.7251364588737488,-0.8056184649467468,-0.6769802570343018
1772593788744260000,9.854260009765625,-0.48209401965141296,-0.6087368130683899,-0.7577283382415771
1772593788764524000,9.87452392578125,-0.3502631187438965,-0.4303460717201233,-1.0017019510269165
1772593788784787000,9.894786865234375,-0.4078643023967743,-0.34228143095970154,-0.9519494771957397
1772593788805051000,9.91505078125,-0.41145607829093933,-0.3478686213493347,-0.7404347062110901
1772593788825315000,9.935315185546875,-0.16402371227741241,-0.6320167779922485,-0.4796995222568512
1772593788845578000,9.955577880859375,0.019555138424038887,-0.8484535813331604,-0.20073948800563812
1772593788865842000,9.975842041015625,-0.11560146510601044,-0.5537961721420288,-0.06052780896425247
1772593788886106000,9.996106201171875,-0.7767513990402222,-0.10110139846801758,-0.00572021072730422
