time,seconds_elapsed,z,y,x
1772593779139291000,0.249290771484375,11.131241798400879,-0.1885433793067932,0.7544727921485901
1772593779159554000,0.269553955078125,10.134356498718262,-0.9789292216300964,0.8206126093864441
1772593779179818000,0.28981787109375,9.266458511352539,-0.9199720025062561,0.8652046322822571
1772593779200082000,0.31008203125,9.187748908996582,-0.8891466856002808,0.8744821548461914
1772593779220345000,0.330344970703125,8.481160163879395,-0.8466495871543884,-1.5289970636367798
1772593779240609000,0.350609130859375,8.449437141418457,-0.9259575009346008,-2.462735652923584
1772593779260873000,0.370873046875,8.379406929016113,-1.9473837614059448,-2.4950573444366455
1772593779281136000,0.39113623046875,7.3600754737854,-2.0275895595550537,-2.4064719676971436
1772593779301400000,0.411400146484375,6.422745227813721,-2.8574798107147217,0.2702455222606659
1772593779321664000,0.4316640625,4.733635902404785,-2.882319688796997,3.2540194988250732
1772593779341927000,0.451927001953125,1.8270751237869263,-2.8455088138580322,6.178536891937256
1772593779362191000,0.472191162109375,-4.78660774230957,-0.027832595631480217,9.749189376831055
1772593779382455000,0.492455078125,-7.708730697631836,0.9702502489089966,12.787132263183594
1772593779402718000,0.512718017578125,-6.555324077606201,0.2139817774295807,13.954305648803711
1772593779422982000,0.53298193359375,-4.52803373336792,-0.7077859044075012,13.849858283996582
1772593779443246000,0.55324609375,-4.466084003448486,-0.7520785927772522,10.655095100402832
1772593779463509000,0.573509033203125,-4.43585729598999,-1.6433202028274536,9.624990463256836
1772593779483773000,0.59377294921875,-4.415805816650391,-2.4169466495513916,8.563461303710938
1772593779504037000,0.614037109375,-4.354454517364502,-2.48368501663208,7.6006927490234375
1772593779524300000,0.634300048828125,-3.353677988052368,-3.423708438873291,7.548917770385742
1772593779544564000,0.65456396484375,-2.426523447036743,-4.576815605163574,7.490858554840088
1772593779564828000,0.674827880859375,-1.3434463739395142,-5.895721912384033,7.507617950439453
1772593779585092000,0.695092041015625,-1.348833441734314,-6.676829814910889,8.263886451721191
1772593779605355000,0.71535498046875,-1.2623428106307983,-7.75092887878418,8.236352920532227
1772593779625619000,0.735618896484375,-2.4588451385498047,-11.644798278808594,7.01860237121582
1772593779645883000,0.7558828125,-2.4501662254333496,-12.412738800048828,5.435735702514648
1772593779666146000,0.77614599609375,0.01646013744175434,-13.728053092956543,4.415805816650391
1772593779686410000,0.796409912109375,1.0028712749481201,-13.808259010314941,4.437653064727783
1772593779706674000,0.816673828125,1.0339958667755127,-13.033734321594238,4.422688961029053
1772593779726937000,0.83693701171875,1.0651204586029053,-10.627861022949219,4.340089321136475
1772593779747201000,0.857200927734375,1.102829098701477,-9.7698392868042,3.5242648124694824
1772593779767465000,0.87746484375,1.1791443824768066,-8.976759910583496,3.4781765937805176
1772593779787728000,0.897727783203125,2.742558002471924,-9.004592895507812,2.6985645294189453
1772593779807992000,0.917991943359375,3.867832899093628,-9.87039566040039,1.7232266664505005
1772593779828256000,0.938256103515625,3.8902785778045654,-11.694178581237793,1.713649868965149
1772593779848519000,0.958518798828125,1.6199767589569092,-11.748946189880371,1.7130513191223145
1772593779868783000,0.978783203125,0.5051765441894531,-11.74505615234375,1.7175405025482178
1772593779889047000,0.999047119140625,0.49320554733276367,-11.675923347473145,1.6959925889968872
1772593779909310000,1.01931005859375,0.5668272376060486,-10.697892189025879,1.6891093254089355
1772593779929574000,1.039573974609375,1.449090600013733,-10.629956245422363,1.701080322265625
1772593779949838000,1.059838134765625,1.4128782749176025,-9.864410400390625,1.7043722867965698
1772593779970101000,1.08010107421875,1.3844470977783203,-9.835081100463867,1.6864157915115356
1772593779990365000,1.100364990234375,1.3943232297897339,-9.80096435546875,1.6196774244308472
1772593780010629000,1.120629150390625,1.4113819599151611,-9.789591789245605,0.7269394993782043
1772593780030892000,1.14089208984375,1.3883377313613892,-9.81024169921875,0.7140706777572632
1772593780051156000,1.161156005859375,1.3637971878051758,-10.894515991210938,0.7236474752426147
1772593780071420000,1.181419921875,1.344643473625183,-10.94569206237793,0.7867945432662964
1772593780091683000,1.20168310546875,1.3332710266113281,-11.698966979980469,2.046743154525757
1772593780111947000,1.221947021484375,1.3180080652236938,-11.718420028686523,3.0277674198150635
1772593780132211000,1.2422109375,1.3302782773971558,-11.722311019897461,3.9001545906066895
1772593780152474000,1.26247412109375,1.3967174291610718,-11.745354652404785,4.630685329437256
1772593780172738000,1.282738037109375,2.129343032836914,-11.799822807312012,5.8331732749938965
1772593780193002000,1.303001953125,1.2497732639312744,-11.862071990966797,6.6127848625183105
1772593780213265000,1.323264892578125,1.2006921768188477,-11.872846603393555,6.634931564331055
1772593780233529000,1.343529052734375,0.26755204796791077,-11.874940872192383,6.591835975646973
1772593780253793000,1.36379296875,0.20440496504306793,-11.931204795837402,5.570708751678467
1772593780274056000,1.384055908203125,0.17657238245010376,-12.743437767028809,4.492719650268555
1772593780294320000,1.404320068359375,0.19692309200763702,-12.815862655639648,3.0837318897247314
1772593780314584000,1.424583984375,0.2265513390302658,-13.565546989440918,1.6157869100570679
1772593780334847000,1.444846923828125,0.2783259451389313,-13.505093574523926,0.6596025824546814
1772593780355111000,1.46511083984375,1.1079168319702148,-11.750741958618164,0.635959804058075
1772593780375375000,1.485375,1.094150185585022,-10.584765434265137,0.6739677786827087
1772593780395638000,1.505637939453125,1.0453683137893677,-9.780912399291992,0.7422025203704834
1772593780415902000,1.52590185546875,0.20679916441440582,-9.743204116821289,0.8146271109580994
1772593780436166000,1.546165771484375,0.20380641520023346,-9.675867080688477,0.8427590131759644
1772593780456429000,1.566428955078125,0.24091655015945435,-8.889671325683594,0.7718307971954346
1772593780476693000,1.58669287109375,0.262763649225235,-8.035539627075195,-0.2759317457675934
1772593780496957000,1.60695703125,0.24690204858779907,-7.173327445983887,-0.3363853394985199
1772593780517220000,1.62722021484375,0.18166005611419678,-5.940313816070557,-0.38726213574409485
1772593780537484000,1.647484130859375,0.11013327538967133,-4.702212333679199,-1.1953052282333374
1772593780557748000,1.667748046875,0.05057751014828682,-3.8435914516448975,-1.1866261959075928
1772593780578011000,1.688010986328125,0.023044191300868988,-3.8061821460723877,-1.1997942924499512
1772593780598275000,1.708275146484375,-0.020649990066885948,-3.800196647644043,-1.1441291570663452
1772593780618539000,1.7285390625,-1.1225813627243042,-4.822221279144287,0.4761468768119812
1772593780638802000,1.748802001953125,-1.204882025718689,-8.148665428161621,4.86830997467041
1772593780659066000,1.769066162109375,-5.400421142578125,-13.94592571258545,9.282918930053711
1772593780679330000,1.789330078125,-6.402095317840576,-17.071256637573242,10.53478717803955
1772593780699593000,1.809593017578125,-6.443994045257568,-17.027263641357422,10.553940773010254
1772593780719857000,1.82985693359375,-6.4287309646606445,-17.02666473388672,7.9286980628967285
1772593780740121000,1.85012109375,-2.410961151123047,-16.130634307861328,6.623259544372559
1772593780760384000,1.870384033203125,0.15412673354148865,-13.925575256347656,4.995800971984863
1772593780780648000,1.89064794921875,0.9196727275848389,-11.08994197845459,3.597288131713867
1772593780800912000,1.910911865234375,0.9391255974769592,-8.5903959274292,2.2508487701416016
1772593780821175000,1.931175048828125,0.9792284965515137,-7.336432456970215,1.1929110288619995
1772593780841439000,1.95143896484375,1.0429741144180298,-6.2614359855651855,0.4578910768032074
1772593780861703000,1.971702880859375,2.366668462753296,-6.284181118011475,-0.9005191326141357
1772593780881967000,1.991967041015625,3.2414498329162598,-7.142202854156494,-2.433706045150757
1772593780902230000,2.01222998046875,3.2603042125701904,-9.981127738952637,-3.5709519386291504
1772593780922494000,2.032493896484375,2.144606113433838,-12.713809967041016,-3.5790321826934814
1772593780942758000,2.0527578125,1.139639973640442,-13.78940486907959,-3.4904468059539795
1772593780963021000,2.07302099609375,1.1632827520370483,-13.766959190368652,-2.350208282470703
1772593780983285000,2.093284912109375,2.1832127571105957,-12.775460243225098,-1.382950782775879
1772593781003549000,2.113548828125,2.9305028915405273,-11.736376762390137,-0.2289455384016037
1772593781023812000,2.13381201171875,2.9676129817962646,-11.68190860748291,0.9690531492233276
1772593781044076000,2.154075927734375,2.8709471225738525,-11.614272117614746,1.8417396545410156
1772593781064340000,2.174340087890625,1.9051860570907593,-10.842142105102539,2.6027965545654297
1772593781084603000,2.194602783203125,1.875258445739746,-10.78348445892334,2.680009603500366
1772593781104867000,2.2148671875,1.8136078119277954,-8.898948669433594,2.741959571838379
1772593781125131000,2.235131103515625,1.0740987062454224,-7.9322896003723145,2.798522472381592
1772593781145394000,2.255393798828125,1.0854711532592773,-7.858667850494385,2.8248586654663086
1772593781165658000,2.275658203125,1.1243770122528076,-7.061997413635254,2.8353333473205566
1772593781185922000,2.295922119140625,1.1959037780761719,-7.021894454956055,2.871246337890625
1772593781206185000,2.31618505859375,1.909675121307373,-7.023989200592041,2.912546396255493
1772593781226449000,2.336448974609375,1.8854337930679321,-7.844601631164551,2.9514522552490234
1772593781246713000,2.356713134765625,0.10384850203990936,-10.767024040222168,2.8862102031707764
1772593781266976000,2.37697607421875,-1.281197190284729,-14.557344436645508,0.3109469413757324
1772593781287240000,2.397239990234375,-1.3419500589370728,-15.980697631835938,-0.5434837937355042
1772593781307504000,2.417504150390625,-1.3302782773971558,-15.959748268127441,-0.5662286877632141
1772593781327767000,2.43776708984375,-1.2614450454711914,-14.363714218139648,0.24510639905929565
1772593781348031000,2.458031005859375,-0.5880758166313171,-13.210906028747559,0.32381579279899597
1772593781368295000,2.478294921875,-0.6494272351264954,-12.357671737670898,1.0489596128463745
1772593781388558000,2.49855810546875,-0.7272387742996216,-11.387721061706543,1.0214263200759888
1772593781408822000,2.518822021484375,-1.602020263671875,-11.308114051818848,0.9840168952941895
1772593781429086000,2.5390859375,-1.5783774852752686,-10.615591049194336,1.0100538730621338
1772593781449349000,2.55934912109375,-0.8110358119010925,-10.593744277954102,2.3478140830993652
1772593781469613000,2.579613037109375,-0.760757565498352,-10.531793594360352,3.2609026432037354
1772593781489877000,2.599876953125,-0.7083844542503357,-9.424775123596191,4.054281234741211
1772593781510140000,2.620139892578125,-0.6766612529754639,-8.499714851379395,4.100968360900879
1772593781530404000,2.640404052734375,-0.6847416758537292,-7.574057102203369,4.14795446395874
1772593781550668000,2.66066796875,-0.7128735780715942,-7.506121635437012,4.16800594329834
1772593781570931000,2.680930908203125,-0.7161656022071838,-6.729203224182129,4.192845821380615
1772593781591195000,2.70119482421875,-0.7167641520500183,-6.714239597320557,4.2550950050354
1772593781611459000,2.721458984375,-0.7242460250854492,-6.719925403594971,4.300285339355469
1772593781631722000,2.741721923828125,-0.6931213736534119,-6.7166337966918945,4.3179426193237305
1772593781651986000,2.76198583984375,-0.6350619792938232,-6.654384136199951,4.282927513122559
1772593781672250000,2.78225,-0.5883750915527344,-5.794566631317139,3.4362781047821045
1772593781692513000,2.802512939453125,-0.5392939448356628,-5.7556610107421875,3.392883062362671
1772593781712777000,2.82277685546875,-0.4842272996902466,-5.705382823944092,3.389890432357788
1772593781733041000,2.843041015625,-0.5398924946784973,-5.6676740646362305,4.253000259399414
1772593781753304000,2.863303955078125,-0.579995334148407,-6.904877662658691,5.216965675354004
1772593781773568000,2.883568115234375,-1.3673884868621826,-9.363722801208496,6.066009044647217
1772593781793832000,2.90383203125,-1.3913304805755615,-12.434885025024414,7.84729528427124
1772593781814095000,2.92409521484375,-2.2870612144470215,-13.59248161315918,9.830292701721191
1772593781834359000,2.944359130859375,-2.2625205516815186,-13.623307228088379,11.039963722229004
1772593781854623000,2.964623046875,0.1487397849559784,-12.75421142578125,10.194809913635254
1772593781874886000,2.984885986328125,1.0190321207046509,-10.001777648925781,8.004714012145996
1772593781895150000,3.005150146484375,1.0525509119033813,-7.561786651611328,6.520608425140381
1772593781915414000,3.0254140625,1.0519523620605469,-6.320692539215088,4.709095478057861
1772593781935677000,3.045677001953125,0.9735422730445862,-4.948216438293457,3.444657802581787
1772593781955941000,3.065941162109375,0.22834698855876923,-4.984428882598877,2.6482863426208496
1772593781976205000,3.086205078125,1.1201871633529663,-6.592733860015869,2.5998036861419678
1772593781996468000,3.106468017578125,2.0853497982025146,-10.087369918823242,2.58274507522583
1772593782016732000,3.12673193359375,2.1257517337799072,-11.126453399658203,2.5579051971435547
1772593782036996000,3.14699609375,2.147000312805176,-11.089642524719238,2.547729969024658
1772593782057259000,3.167259033203125,2.1173720359802246,-9.93354320526123,2.5145103931427
1772593782077523000,3.18752294921875,1.0729016065597534,-9.073126792907715,2.480692148208618
1772593782097787000,3.207786865234375,1.015440821647644,-9.091681480407715,2.4145524501800537
1772593782118050000,3.228050048828125,0.22415713965892792,-9.97364616394043,1.587654948234558
1772593782138314000,3.24831396484375,0.2073977291584015,-9.993996620178223,0.7532756924629211
1772593782158578000,3.268577880859375,0.27742812037467957,-9.979032516479492,0.7661445140838623
1772593782178842000,3.288842041015625,1.1228805780410767,-9.929951667785645,0.8131307363510132
1772593782199105000,3.30910498046875,1.1094132661819458,-9.863213539123535,1.5505448579788208
1772593782219369000,3.329368896484375,1.0767922401428223,-9.80216121673584,1.6071078777313232
1772593782239633000,3.3496328125,1.0761936902999878,-9.771036148071289,2.4028806686401367
1772593782259896000,3.36989599609375,1.0782885551452637,-9.742006301879883,2.445377826690674
1772593782280160000,3.390159912109375,1.1306617259979248,-9.691429138183594,2.4576480388641357
1772593782300424000,3.410423828125,2.0736780166625977,-9.643545150756836,2.420837163925171
1772593782320687000,3.43068701171875,2.122459888458252,-9.63636302947998,2.360682964324951
1772593782340951000,3.450950927734375,1.282094955444336,-9.720458984375,2.339733600616455
1772593782361215000,3.471215087890625,0.30047231912612915,-10.779593467712402,2.375347375869751
1772593782381478000,3.491477783203125,0.3552396893501282,-10.832265853881836,3.420715570449829
1772593782401742000,3.5117421875,0.4183867573738098,-10.845733642578125,4.563348293304443
1772593782422006000,3.532006103515625,1.2246341705322266,-10.864887237548828,4.6420578956604
1772593782442269000,3.55226904296875,1.1857284307479858,-11.854889869689941,5.5324015617370605
1772593782462533000,3.572533203125,0.15083470940589905,-11.941679954528809,5.562628269195557
1772593782482797000,3.592797119140625,-0.6706757545471191,-12.683582305908203,5.56053352355957
1772593782503060000,3.61306005859375,-1.6615760326385498,-12.698546409606934,5.483320236206055
1772593782523324000,3.633323974609375,-1.6750433444976807,-12.761394500732422,4.544793605804443
1772593782543588000,3.653588134765625,-0.7811083197593689,-13.956101417541504,2.9299042224884033
1772593782563851000,3.67385107421875,-0.013168109580874443,-13.999197006225586,1.4718354940414429
1772593782584115000,3.694114990234375,0.03651157766580582,-13.976751327514648,0.25498247146606445
1772593782604379000,3.71437890625,0.06404489278793335,-12.633005142211914,0.233135387301445
1772593782624642000,3.73464208984375,0.09247604012489319,-11.35120964050293,0.25977087020874023
1772593782644906000,3.754906005859375,0.15562310814857483,-9.905410766601562,0.30526071786880493
1772593782665170000,3.775169921875,0.9130886793136597,-8.758588790893555,1.183034896850586
1772593782685433000,3.79543310546875,0.9088988304138184,-7.844601631164551,1.2533645629882812
1772593782705697000,3.815697021484375,0.8667010068893433,-7.782651901245117,1.9674352407455444
1772593782725961000,3.8359609375,0.8251017332077026,-7.720701694488525,1.9515736103057861
1772593782746224000,3.85622412109375,0.7975684404373169,-7.651269912719727,1.877652645111084
1772593782766488000,3.876488037109375,0.7416039705276489,-6.889914035797119,1.0899603366851807
1772593782786752000,3.896751953125,0.6847416758537292,-6.818387031555176,1.0313023328781128
1772593782807015000,3.917014892578125,0.6221931576728821,-5.978022575378418,-0.020949264988303185
1772593782827279000,3.937279052734375,0.5841852426528931,-5.008370876312256,-0.04668693244457245
1772593782847543000,3.95754296875,-0.1364694982767105,-4.950311183929443,-0.0553659126162529
1772593782867806000,3.977805908203125,-1.1976994276046753,-4.956296920776367,0.8900445103645325
1772593782888070000,3.99806982421875,-3.7421371936798096,-7.651269912719727,3.514089584350586
1772593782908334000,4.018333984375,-6.585850238800049,-11.771990776062012,7.828740119934082
1772593782928597000,4.038596923828125,-7.462128162384033,-14.138360023498535,10.655095100402832
1772593782948861000,4.05886083984375,-5.8331732749938965,-14.169184684753418,10.627861022949219
1772593782969125000,4.079125,-4.876091003417969,-14.119804382324219,7.492055892944336
1772593782989388000,4.099387939453125,-3.634099006652832,-12.820651054382324,3.7759554386138916
1772593783009652000,4.11965185546875,-0.6700772047042847,-10.569802284240723,2.4223334789276123
1772593783029916000,4.139916015625,0.585382342338562,-9.540295600891113,1.391929030418396
1772593783050179000,4.160178955078125,1.9105730056762695,-8.687959671020508,1.316511631011963
1772593783070443000,4.180443115234375,2.768594980239868,-8.780435562133789,0.25588029623031616
1772593783090707000,4.20070703125,2.8009166717529297,-9.87578296661377,-0.4976946711540222
1772593783110970000,4.22097021484375,2.8443117141723633,-9.930251121520996,-0.5150526165962219
1772593783131234000,4.241234130859375,2.8191723823547363,-10.00955867767334,-0.4644751250743866
1772593783151498000,4.261498046875,1.9913772344589233,-10.07629680633545,0.3687070608139038
1772593783171761000,4.281760986328125,0.5913678407669067,-10.09126091003418,0.44592007994651794
1772593783192025000,4.302025146484375,-0.14365209639072418,-10.07779312133789,0.49290627241134644
1772593783212289000,4.3222890625,-0.08559270948171616,-10.062829971313477,0.5413888692855835
1772593783232552000,4.342552001953125,0.8152256608009338,-10.004770278930664,0.5802946090698242
1772593783252816000,4.36281591796875,0.8921394348144531,-9.049484252929688,1.3302782773971558
1772593783273080000,4.383080078125,0.9319429993629456,-9.021651268005371,1.414673924446106
1772593783293343000,4.403343017578125,0.8472481369972229,-9.0051908493042,1.479616641998291
1772593783313607000,4.42360693359375,0.06314706802368164,-9.024643898010254,1.493682622909546
1772593783333871000,4.44387109375,0.0694318488240242,-9.066542625427246,1.4712369441986084
1772593783354134000,4.464134033203125,0.08409633487462997,-9.108141899108887,1.4520833492279053
1772593783374398000,4.48439794921875,-0.011372458189725876,-9.874286651611328,1.43532395362854
1772593783394662000,4.504661865234375,-0.030226796865463257,-9.951798439025879,1.4101848602294922
1772593783414925000,4.524925048828125,-0.0077811554074287415,-11.005247116088867,1.4643535614013672
1772593783435189000,4.54518896484375,0.9702502489089966,-11.079168319702148,2.715024709701538
1772593783455453000,4.565452880859375,0.978330671787262,-11.145606994628906,4.472668170928955
1772593783475717000,4.585717041015625,0.9798270463943481,-11.92282485961914,5.755062103271484
1772593783495980000,4.60597998046875,0.987308919429779,-12.67819595336914,5.755361557006836
1772593783516244000,4.626243896484375,-0.13527239859104156,-13.697826385498047,4.890755653381348
1772593783536508000,4.6465078125,-1.1902174949645996,-14.490306854248047,4.831499099731445
1772593783556771000,4.66677099609375,-1.1109095811843872,-14.46546745300293,4.8359880447387695
1772593783577035000,4.687034912109375,-0.10923545062541962,-14.383166313171387,4.841973781585693
1772593783597299000,4.707298828125,0.8137292861938477,-14.329297065734863,4.816535472869873
1772593783617562000,4.72756201171875,0.8514379858970642,-13.181876182556152,3.374328136444092
1772593783637826000,4.747825927734375,0.9217676520347595,-12.15865421295166,2.0377650260925293
1772593783658090000,4.768090087890625,1.599326729774475,-11.141716957092285,1.1052234172821045
1772593783678353000,4.788352783203125,1.524208664894104,-10.34145450592041,1.0528502464294434
1772593783698617000,4.8086171875,0.788889467716217,-10.275015830993652,1.047463297843933
1772593783718881000,4.828881103515625,0.7924807667732239,-10.19720458984375,1.1225813627243042
1772593783739144000,4.84914404296875,0.8337807655334473,-9.449316024780273,2.1523873805999756
1772593783759408000,4.869408203125,0.9083002805709839,-9.39784049987793,2.0901381969451904
1772593783779672000,4.889672119140625,1.6265608072280884,-8.317755699157715,1.2090718746185303
1772593783799935000,4.90993505859375,1.6331448554992676,-8.23276138305664,0.279223769903183
1772593783820199000,4.930198974609375,1.5981296300888062,-7.2242045402526855,-0.6275801062583923
1772593783840463000,4.950463134765625,0.8227075338363647,-6.208165168762207,-0.6865373253822327
1772593783860726000,4.97072607421875,0.7709329724311829,-5.468656063079834,-1.4416086673736572
1772593783880990000,4.990989990234375,-0.08978256583213806,-4.6040496826171875,-2.374150276184082
1772593783901254000,5.01125390625,-1.0324994325637817,-4.569334030151367,-2.4064719676971436
1772593783921517000,5.03151708984375,-2.9730000495910645,-5.675754547119141,-2.343324899673462
1772593783941781000,5.051781005859375,-5.837961673736572,-9.377190589904785,1.600523829460144
1772593783962045000,5.072044921875,-6.8342485427856445,-14.20988655090332,6.430825710296631
1772593783982308000,5.09230810546875,-7.71591329574585,-15.89271068572998,8.148066520690918
1772593784002572000,5.112572021484375,-5.038597583770752,-14.384364128112793,7.254431247711182
1772593784022836000,5.1328359375,-2.0638017654418945,-11.616666793823242,5.526715278625488
1772593784043099000,5.153098876953125,-0.41539400815963745,-11.585541725158691,4.21349573135376
1772593784063363000,5.173363037109375,1.4431051015853882,-12.913725852966309,3.0475194454193115
1772593784083627000,5.193626953125,2.5971102714538574,-12.919112205505371,2.9583353996276855
1772593784103890000,5.213889892578125,2.607884168624878,-11.308114051818848,2.0428526401519775
1772593784124154000,5.234154052734375,2.5387516021728516,-9.717466354370117,2.000056266784668
1772593784144418000,5.25441796875,1.7163434028625488,-9.638457298278809,1.9473837614059448
1772593784164681000,5.274680908203125,2.6868927478790283,-9.673771858215332,0.5093663930892944
1772593784184945000,5.29494482421875,3.4922423362731934,-11.121366500854492,-0.33997663855552673
1772593784205209000,5.315208984375,3.5143887996673584,-11.193790435791016,-0.3630208373069763
1772593784225472000,5.335471923828125,1.025316834449768,-11.0887451171875,-0.33608606457710266
1772593784245736000,5.35573583984375,0.9352350234985352,-9.93593692779541,-0.27383682131767273
1772593784266000000,5.375999755859375,0.9717466235160828,-9.890148162841797,0.4701613485813141
1772593784286263000,5.396262939453125,1.8213889598846436,-9.898826599121094,1.3596073389053345
1772593784306527000,5.41652685546875,1.7501614093780518,-9.860519409179688,1.4347254037857056
1772593784326791000,5.436791015625,0.6790554523468018,-9.833285331726074,1.4398130178451538
1772593784347054000,5.45705419921875,0.6368576288223267,-9.778817176818848,1.4024035930633545
1772593784367318000,5.477318115234375,0.568622887134552,-9.026439666748047,1.3874398469924927
1772593784387582000,5.49758203125,-0.18884265422821045,-9.017760276794434,1.436221718788147
1772593784407845000,5.51784521484375,-0.18584990501403809,-9.041702270507812,1.501164436340332
1772593784428109000,5.538109130859375,-0.22206220030784607,-9.081207275390625,2.2385785579681396
1772593784448373000,5.558373046875,-0.2172738015651703,-9.91049861907959,2.2242133617401123
1772593784468636000,5.578635986328125,-0.18315643072128296,-9.993996620178223,2.225111246109009
1772593784488900000,5.598900146484375,-0.12928688526153564,-10.755053520202637,2.2753894329071045
1772593784509164000,5.6191640625,1.0363900661468506,-10.785280227661133,3.2082302570343018
1772593784529427000,5.639427001953125,1.0705074071884155,-10.787673950195312,4.251802921295166
1772593784549691000,5.65969091796875,1.1267712116241455,-10.82388687133789,5.182249546051025
1772593784569955000,5.679955078125,1.1189900636672974,-10.904990196228027,6.509235858917236
1772593784590218000,5.700218017578125,1.060032844543457,-12.114660263061523,7.253533363342285
1772593784610482000,5.72048193359375,0.26904842257499695,-12.183793067932129,8.04810905456543
1772593784630746000,5.74074609375,0.18465280532836914,-12.229881286621094,7.987356185913086
1772593784651009000,5.761009033203125,0.25019407272338867,-12.270583152770996,6.688800811767578
1772593784671273000,5.78127294921875,1.1064205169677734,-12.271181106567383,5.292382717132568
1772593784691537000,5.801536865234375,1.1644798517227173,-12.303203582763672,3.7729625701904297
1772593784711800000,5.821800048828125,1.1797429323196411,-12.301408767700195,2.397493839263916
1772593784732064000,5.84206396484375,1.1976994276046753,-12.221800804138184,1.6696563959121704
1772593784752328000,5.862327880859375,1.182137131690979,-11.21743392944336,1.6660650968551636
1772593784772592000,5.882592041015625,1.171662449836731,-11.132439613342285,1.7438766956329346
1772593784792855000,5.90285498046875,1.1899182796478271,-10.440515518188477,2.457049608230591
1772593784813119000,5.923118896484375,1.2297219038009644,-10.449792861938477,3.215113639831543
1772593784833383000,5.9433828125,1.272218942642212,-10.388141632080078,3.2381577491760254
1772593784853646000,5.96364599609375,1.3093290328979492,-9.487024307250977,2.3116016387939453
1772593784873910000,5.983909912109375,1.3422492742538452,-8.546401977539062,2.231395959854126
1772593784894174000,6.004174072265625,1.3754688501358032,-8.505701065063477,1.4266449213027954
1772593784914437000,6.02443701171875,1.3922282457351685,-8.45931339263916,0.43185412883758545
1772593784934701000,6.044701171875,1.3871406316757202,-8.385092735290527,0.3528454899787903
1772593784954965000,6.064965087890625,1.413776159286499,-7.475595474243164,-0.5021837949752808
1772593784975228000,6.085227783203125,1.4793174266815186,-6.467337131500244,-0.5482721924781799
1772593784995492000,6.1054921875,1.5104420185089111,-6.468534469604492,-0.56233811378479
1772593785015756000,6.125756103515625,1.446696400642395,-7.6081743240356445,-0.5360019207000732
1772593785036019000,6.14601904296875,-0.9112930297851562,-9.706991195678711,0.49470192193984985
1772593785056283000,6.166282958984375,-2.952349901199341,-11.965322494506836,1.4425065517425537
1772593785076547000,6.186547119140625,-3.7433342933654785,-12.922404289245605,1.469441294670105
1772593785096810000,6.20681005859375,-2.031480073928833,-12.911930084228516,1.4110826253890991
1772593785117074000,6.227073974609375,-1.015440821647644,-12.852374076843262,-0.889445960521698
1772593785137338000,6.247338134765625,-1.036988615989685,-12.839804649353027,-3.5820250511169434
1772593785157601000,6.26760107421875,-1.9285295009613037,-13.592781066894531,-3.737947463989258
1772593785177865000,6.287864990234375,-0.7260416746139526,-13.608942031860352,-1.171961784362793
1772593785198129000,6.30812890625,-0.6260837316513062,-12.698546409606934,1.6053122282028198
1772593785218392000,6.32839208984375,0.12599486112594604,-10.744877815246582,3.463212728500366
1772593785238656000,6.348656005859375,0.19393034279346466,-8.983044624328613,3.520374298095703
1772593785258920000,6.368919921875,1.2446856498718262,-8.20732307434082,3.5182793140411377
1772593785279183000,6.38918310546875,1.3024457693099976,-8.245331764221191,3.451540946960449
1772593785299447000,6.409447021484375,1.3317747116088867,-9.063549995422363,3.3871967792510986
1772593785319711000,6.4297109375,1.3009493350982666,-9.897629737854004,3.334524393081665
1772593785339974000,6.449973876953125,1.2384008169174194,-9.877578735351562,3.268085241317749
1772593785360238000,6.470238037109375,1.193210244178772,-9.850643157958984,2.5160067081451416
1772593785380502000,6.490501953125,1.191115379333496,-9.821614265441895,2.504634141921997
1772593785400765000,6.510764892578125,1.2300211191177368,-9.80904483795166,2.4938602447509766
1772593785421029000,6.531029052734375,1.283591389656067,-9.815628051757812,2.4845829010009766
1772593785441293000,6.55129296875,1.3248913288116455,-9.830592155456543,2.486079216003418
1772593785461556000,6.571555908203125,1.3207014799118042,-9.862015724182129,2.4753053188323975
1772593785481820000,6.59181982421875,1.2982559204101562,-9.885957717895508,2.434903144836426
1772593785502084000,6.612083984375,0.52552729845047,-9.905710220336914,2.4070706367492676
1772593785522347000,6.632346923828125,0.5084685683250427,-9.897929191589355,2.375945806503296
1772593785542611000,6.65261083984375,0.5351040959358215,-9.88386344909668,2.3780407905578613
1772593785562875000,6.672875,0.5832874178886414,-9.881169319152832,2.3965959548950195
1772593785583138000,6.693137939453125,1.5167267322540283,-9.847352027893066,2.408566951751709
1772593785603402000,6.713402099609375,1.567304253578186,-9.062651634216309,2.409165382385254
1772593785623666000,6.733666015625,1.6343419551849365,-9.025242805480957,2.372354507446289
1772593785643929000,6.75392919921875,1.6912041902542114,-8.978555679321289,2.3819313049316406
1772593785664193000,6.774193115234375,1.7432781457901,-8.96149730682373,2.42203426361084
1772593785684457000,6.79445703125,1.799242615699768,-8.960898399353027,2.484283447265625
1772593785704720000,6.814719970703125,1.8737621307373047,-9.019556045532227,2.5357589721679688
1772593785724984000,6.834984130859375,1.9072809219360352,-9.774328231811523,2.587533473968506
1772593785745248000,6.855248046875,1.952770709991455,-9.799467086791992,2.6315269470214844
1772593785765511000,6.875510986328125,1.944091796875,-9.858125686645508,2.669534921646118
1772593785785775000,6.895775146484375,1.8824410438537598,-10.58656120300293,3.4290952682495117
1772593785806039000,6.9160390625,1.1276689767837524,-10.673351287841797,4.3068695068359375
1772593785826302000,6.936302001953125,1.036689281463623,-10.739789962768555,4.369118690490723
1772593785846566000,6.95656591796875,-0.17328034341335297,-10.80772590637207,4.387973308563232
1772593785866830000,6.976830078125,-0.9391255974769592,-10.853514671325684,4.413411617279053
1772593785887093000,6.997093017578125,-0.9430161714553833,-10.896310806274414,4.381089687347412
1772593785907357000,7.01735693359375,-0.93254154920578,-11.620556831359863,3.5377323627471924
1772593785927621000,7.03762109375,-0.8912416100502014,-11.710339546203613,3.4805707931518555
1772593785947884000,7.057884033203125,-0.93254154920578,-12.492046356201172,2.751236915588379
1772593785968148000,7.07814794921875,-0.9729437232017517,-12.417227745056152,2.6895864009857178
1772593785988412000,7.098411865234375,-0.9220669269561768,-11.627140998840332,1.8851345777511597
1772593786008675000,7.118675048828125,0.18285715579986572,-11.577760696411133,1.7968484163284302
1772593786028939000,7.13893896484375,1.2473790645599365,-10.811615943908691,0.8696937561035156
1772593786049203000,7.159202880859375,2.144007682800293,-10.719738960266113,0.8176198601722717
1772593786069467000,7.179466796875,2.061707019805908,-9.751882553100586,0.7930793166160583
1772593786089730000,7.19972998046875,-0.24420857429504395,-9.721057891845703,0.8140285611152649
1772593786109994000,7.219993896484375,-0.29628247022628784,-9.72734260559082,0.8095394372940063
1772593786130258000,7.2402578125,-0.31513679027557373,-9.69621753692627,0.7781155705451965
1772593786150521000,7.26052099609375,-0.31842881441116333,-9.632771492004395,0.7580640912055969
1772593786170785000,7.280784912109375,-0.32172083854675293,-8.776844024658203,0.7433996200561523
1772593786191049000,7.301049072265625,-0.3031657934188843,-7.6764092445373535,0.7167641520500183
1772593786211312000,7.32131201171875,-0.2941875457763672,-6.7025675773620605,0.6590040326118469
1772593786231576000,7.341576171875,-0.2932897210121155,-5.913378715515137,-0.09876082092523575
1772593786251840000,7.361840087890625,-0.3076549172401428,-5.8651957511901855,-0.12868833541870117
1772593786272103000,7.38210302734375,-0.339078813791275,-5.801449775695801,-0.1744774430990219
1772593786292367000,7.4023671875,-1.4625579118728638,-5.812822341918945,-0.1445499211549759
1772593786312631000,7.422631103515625,-3.0376434326171875,-7.1903862953186035,1.7337013483047485
1772593786332894000,7.44289404296875,-4.259583950042725,-9.64564037322998,3.830423355102539
1772593786353158000,7.463157958984375,-5.1780595779418945,-11.954548835754395,5.561431407928467
1772593786373422000,7.483422119140625,-6.0396728515625,-12.84519100189209,6.602310657501221
1772593786393685000,7.50368505859375,-6.004059314727783,-12.87631607055664,6.567594528198242
1772593786413949000,7.523948974609375,-3.635894536972046,-12.910433769226074,4.648043155670166
1772593786434213000,7.544213134765625,-1.713350534439087,-12.966398239135742,3.0172927379608154
1772593786454476000,7.56447607421875,-1.656488299369812,-12.94993782043457,1.757044792175293
1772593786474740000,7.584739990234375,-0.7927800416946411,-11.106701850891113,0.5752069354057312
1772593786495004000,7.60500390625,-0.7257423996925354,-9.365518569946289,-0.4767454266548157
1772593786515267000,7.62526708984375,0.020350715145468712,-9.279327392578125,-1.3670891523361206
1772593786535531000,7.645531005859375,0.826897382736206,-9.250896453857422,-1.4329297542572021
1772593786555795000,7.665794921875,0.9014169573783875,-9.326313018798828,-1.492186188697815
1772593786576058000,7.68605810546875,1.7782933712005615,-10.20079517364502,-1.5065513849258423
1772593786596322000,7.706322021484375,1.8387469053268433,-10.12358283996582,-1.4502876996994019
1772593786616586000,7.7265859375,1.8722656965255737,-9.122207641601562,-0.6141127347946167
1772593786636849000,7.746848876953125,1.9306243658065796,-9.107542991638184,1.0758943557739258
1772593786657113000,7.767113037109375,1.1429320573806763,-9.135675430297852,2.243666172027588
1772593786677377000,7.787376953125,-0.2265513390302658,-9.192537307739258,3.4455554485321045
1772593786697640000,7.807639892578125,-0.2439092993736267,-9.238326072692871,3.535038709640503
1772593786717904000,7.82790380859375,-0.22415713965892792,-9.230545043945312,4.2957963943481445
1772593786738168000,7.84816796875,-0.21847090125083923,-9.190741539001465,3.260004997253418
1772593786758431000,7.868430908203125,-0.15173253417015076,-9.163507461547852,2.2679076194763184
1772593786778695000,7.88869482421875,-0.08768763393163681,-9.169792175292969,1.478718876838684
1772593786798959000,7.908958984375,-0.03531447425484657,-9.23563289642334,1.4574702978134155
1772593786819222000,7.929221923828125,0.038007952272892,-9.97753620147705,1.4930840730667114
1772593786839486000,7.94948583984375,0.10714052617549896,-10.025420188903809,2.3861212730407715
1772593786859750000,7.96975,0.7867945432662964,-10.070611000061035,3.523367166519165
1772593786880013000,7.990012939453125,0.8469488620758057,-10.149918556213379,4.64594841003418
1772593786900277000,8.010277099609375,1.5999252796173096,-10.170867919921875,5.4426188468933105
1772593786920541000,8.030541015625,1.57987380027771,-11.086051940917969,6.499359607696533
1772593786940804000,8.05080419921875,0.5213374495506287,-12.080244064331055,6.531681537628174
1772593786961068000,8.071068115234375,-0.23193828761577606,-12.164040565490723,6.547543048858643
1772593786981332000,8.09133203125,-0.28221651911735535,-13.031939506530762,6.541557788848877
1772593787001595000,8.111594970703125,-0.24839842319488525,-13.085209846496582,5.549160957336426
1772593787021859000,8.131859130859375,0.5404910445213318,-14.021343231201172,4.606144905090332
1772593787042123000,8.152123046875,0.5551555156707764,-14.856619834899902,2.9158384799957275
1772593787062386000,8.172385986328125,0.4770447015762329,-14.843452453613281,1.2360066175460815
1772593787082650000,8.192650146484375,0.4118026793003082,-14.091972351074219,0.1711854189634323
1772593787102914000,8.2129140625,-0.3274070918560028,-13.295899391174316,0.14664486050605774
1772593787123177000,8.233177001953125,-0.29568392038345337,-11.908459663391113,0.1379658728837967
1772593787143441000,8.25344091796875,0.46178165078163147,-10.501566886901855,0.14514847099781036
1772593787163705000,8.273705078125,0.45759180188179016,-9.078513145446777,0.18704700469970703
1772593787183968000,8.293968017578125,0.4462193548679352,-7.961917877197266,0.23163901269435883
1772593787204232000,8.31423193359375,0.4593874514102936,-7.114070892333984,0.23822307586669922
1772593787224496000,8.33449609375,0.47973817586898804,-6.147711277008057,0.22176292538642883
1772593787244759000,8.354759033203125,0.47165772318840027,-5.394734859466553,0.16669629514217377
1772593787265023000,8.37502294921875,0.4423287510871887,-5.352237701416016,-0.8212111592292786
1772593787285287000,8.395286865234375,0.441430926322937,-5.367800235748291,-1.7687164545059204
1772593787305550000,8.415550048828125,0.40372225642204285,-5.3489460945129395,-2.6470892429351807
1772593787325814000,8.43581396484375,-0.6162076592445374,-5.3133320808410645,-2.5785553455352783
1772593787346078000,8.456077880859375,-2.180818557739258,-5.396530628204346,0.8248024582862854
1772593787366342000,8.476341796875,-3.709815502166748,-7.6222405433654785,9.904812812805176
1772593787386605000,8.49660498046875,-4.745606899261475,-7.556100368499756,14.631265640258789
1772593787406869000,8.516868896484375,-4.247612953186035,-7.480683326721191,14.874576568603516
1772593787427133000,8.5371328125,-4.173692226409912,-8.662819862365723,12.057498931884766
1772593787447396000,8.55739599609375,-2.62015438079834,-11.292252540588379,8.9157075881958
1772593787467660000,8.577659912109375,-0.6596025824546814,-12.345701217651367,6.19110631942749
1772593787487924000,8.597924072265625,0.6203975081443787,-12.353482246398926,3.3405098915100098
1772593787508187000,8.618186767578125,0.6688801050186157,-12.269086837768555,1.382950782775879
1772593787528440000,8.638440185546875,0.6488286852836609,-11.312602996826172,0.21847090125083923
1772593787548703000,8.658702880859375,0.6646902561187744,-10.477624893188477,0.16519992053508759
1772593787568967000,8.678966796875,1.5517419576644897,-9.543886184692383,0.1604115068912506
1772593787589231000,8.699231201171875,2.906860113143921,-9.528024673461914,1.1267712116241455
1772593787609494000,8.719493896484375,4.169801712036133,-9.580697059631348,2.3570916652679443
1772593787629758000,8.739758056640625,4.1611223220825195,-11.06210994720459,3.603273630142212
1772593787650022000,8.76002197265625,2.3307554721832275,-11.096226692199707,3.612550973892212
1772593787670285000,8.78028515625,2.2403743267059326,-11.050737380981445,2.4555530548095703
1772593787690549000,8.800549072265625,2.2340893745422363,-11.002853393554688,2.3837270736694336
1772593787710813000,8.82081298828125,2.217928647994995,-11.053131103515625,3.3186628818511963
1772593787731076000,8.841076171875,0.8861538767814636,-12.233772277832031,5.629665851593018
1772593787751340000,8.861340087890625,0.8484452366828918,-13.573627471923828,7.150881767272949
1772593787771604000,8.88160400390625,1.590348482131958,-15.948675155639648,8.388384819030762
1772593787791867000,8.901866943359375,2.4280197620391846,-18.045995712280273,8.444948196411133
1772593787812131000,8.922131103515625,2.416647434234619,-19.393932342529297,8.485649108886719
1772593787832395000,8.94239501953125,1.601720929145813,-19.431041717529297,8.545804023742676
1772593787852658000,8.962657958984375,1.6103999614715576,-19.35801887512207,8.591293334960938
1772593787872922000,8.982922119140625,2.7398645877838135,-17.45313262939453,6.8162922859191895
1772593787893186000,9.00318603515625,2.7664999961853027,-15.462652206420898,3.2911295890808105
1772593787913449000,9.023448974609375,2.6874914169311523,-12.614151000976562,1.413776159286499
1772593787933713000,9.043712890625,1.7283143997192383,-10.666467666625977,4.813542366027832
1772593787953977000,9.06397705078125,1.755548357963562,-8.58500862121582,8.282740592956543
1772593787974240000,9.084239990234375,1.7307085990905762,-6.843526363372803,8.997110366821289
1772593787994504000,9.10450390625,1.7501614093780518,-6.072892665863037,7.529165744781494
1772593788014768000,9.12476806640625,1.8073229789733887,-5.205293655395508,6.633435249328613
1772593788035031000,9.145031005859375,2.6198551654815674,-5.143343925476074,6.6612677574157715
1772593788055295000,9.165294921875,2.6773159503936768,-4.40353536605835,6.603208065032959
1772593788075559000,9.185558837890625,4.179378509521484,-4.316147327423096,5.262754440307617
1772593788095822000,9.205822021484375,5.155913352966309,-3.3710360527038574,4.206612586975098
1772593788116086000,9.2260859375,5.191826343536377,-3.313575267791748,3.3297359943389893
1772593788136350000,9.246349853515625,5.170876979827881,-2.50642991065979,3.2423477172851562
1772593788156613000,9.266613037109375,5.097255229949951,-2.44747257232666,2.189497470855713
1772593788176877000,9.286876953125,4.390068054199219,-2.3669676780700684,1.3769652843475342
1772593788197141000,9.30714111328125,4.424784183502197,-2.316390037536621,1.3608044385910034
1772593788217404000,9.32740380859375,5.247491359710693,-2.2810757160186768,1.3365631103515625
1772593788237668000,9.347668212890625,6.487388610839844,-2.221519947052002,1.348534107208252
1772593788257932000,9.36793212890625,7.536647796630859,-2.1455039978027344,1.3739725351333618
1772593788278195000,9.38819482421875,7.563881874084473,-2.0964229106903076,1.414973258972168
1772593788298459000,9.408458984375,7.574954986572266,-2.0236990451812744,1.4200608730316162
1772593788318723000,9.42872314453125,7.627926826477051,-1.179443597793579,1.3721768856048584
1772593788338986000,9.448986083984375,7.676708698272705,-0.2522889971733093,0.5575497150421143
1772593788359250000,9.46925,7.684489727020264,-0.2073977291584015,0.5321113467216492
1772593788379514000,9.48951416015625,7.631218433380127,-0.1454477459192276,0.5416881442070007
1772593788399777000,9.509777099609375,7.582736015319824,0.8834604024887085,0.48063600063323975
1772593788420041000,9.530041015625,7.5435309410095215,1.7926585674285889,-0.2983773946762085
1772593788440305000,9.550304931640625,7.5782470703125,2.6045920848846436,-0.3016694188117981
1772593788460568000,9.570568115234375,8.45003604888916,2.562992811203003,-0.23792380094528198
1772593788480832000,9.59083203125,8.475772857666016,2.583942174911499,-0.23582886159420013
1772593788501096000,9.611095947265625,9.240720748901367,3.670311212539673,-0.33608606457710266
1772593788521359000,9.631359130859375,9.317934036254883,3.6724061965942383,-0.38815996050834656
1772593788541623000,9.651623046875,10.264242172241211,3.660435199737549,-0.45160630345344543
1772593788561887000,9.671886962890625,10.28818416595459,3.665522813796997,-0.5186439156532288
1772593788582150000,9.69214990234375,10.318410873413086,3.625419855117798,-1.3883377313613892
1772593788602414000,9.7124140625,10.334571838378906,3.60028076171875,-1.3724761009216309
1772593788622678000,9.732677978515625,10.36300277709961,3.558980941772461,-0.1759738177061081
1772593788642942000,9.75294189453125,10.380660057067871,3.4865562915802,-0.10504560172557831
1772593788663205000,9.773205078125,10.368390083312988,2.6839001178741455,-0.03651157766580582
1772593788683469000,9.793468994140625,10.313921928405762,2.652176856994629,0.02214636653661728
1772593788703733000,9.81373291015625,10.251971244812012,2.593219757080078,0.07122749835252762
1772593788723996000,9.833995849609375,10.206781387329102,1.868973731994629,0.05177461355924606
1772593788744260000,9.854260009765625,10.190620422363281,1.8638859987258911,0.0314238965511322
1772593788764524000,9.87452392578125,10.173262596130371,1.866280198097229,0.05596446618437767
1772593788784787000,9.894786865234375,10.115801811218262,1.8911200761795044,0.12180501222610474
1772593788805051000,9.91505078125,9.015366554260254,1.889324426651001,0.8322843909263611
1772593788825315000,9.935315185546875,8.962993621826172,1.9048867225646973,0.812831461429596
1772593788845578000,9.955577880859375,8.971372604370117,1.9384055137634277,0.008379706181585789
1772593788865842000,9.975842041015625,9.018059730529785,1.9838954210281372,-0.013168109580874443
1772593788886106000,9.996106201171875,9.071630477905273,2.0377650260925293,0.023044191300868988
