time,seconds_elapsed,z,y,x
1772594765332370000,0.224369873046875,0.13106536865234375,0.00034109875559806824,0.003069072961807251
1772594765352664000,0.2446640625,0.15027523040771484,0.0006796903908252716,0.0035121142864227295
1772594765372928000,0.264927978515625,0.15889358520507812,0.0005071237683296204,0.0038761794567108154
1772594765393192000,0.28519189453125,0.16840267181396484,0.00035240501165390015,0.004153519868850708
1772594765413456000,0.305455810546875,0.15662479400634766,0.0003244839608669281,0.003939136862754822
1772594765433719000,0.325718994140625,0.15561580657958984,0.00008106324821710587,0.00402107834815979
1772594765453983000,0.34598291015625,0.12144851684570312,0.00014502182602882385,0.003050297498703003
1772594765474247000,0.366246826171875,0.12893199920654297,-0.00005795015022158623,0.003188610076904297
1772594765494510000,0.386510009765625,0.12456893920898438,-0.00004538707435131073,0.0030793696641921997
1772594765514774000,0.40677392578125,0.13014507293701172,-0.00012336578220129013,0.0034076273441314697
1772594765535038000,0.427037841796875,0.14384746551513672,0.00015279650688171387,0.0036238133907318115
1772594765555301000,0.447301025390625,0.14019107818603516,0.00007762201130390167,0.003587186336517334
1772594765575565000,0.46756494140625,0.1333475112915039,0.000021556857973337173,0.003450453281402588
1772594765595829000,0.4878291015625,0.12224960327148438,-0.000016255537047982216,0.0032022595405578613
1772594765616092000,0.508091796875,0.11037254333496094,-0.000046382658183574677,0.002918243408203125
1772594765636356000,0.528356201171875,0.09673595428466797,-0.00006564753130078316,0.0025870203971862793
1772594765656620000,0.5486201171875,0.08632755279541016,-0.00008535478264093399,0.0023334920406341553
1772594765676883000,0.568883056640625,0.0765085220336914,-0.00009223911911249161,0.002095431089401245
1772594765697147000,0.58914697265625,0.06773853302001953,-0.00009797047823667526,0.001877814531326294
1772594765717411000,0.6094111328125,0.058925628662109375,-0.00009524263441562653,0.0016518831253051758
1772594765737674000,0.629674072265625,0.04987049102783203,-0.00008812174201011658,0.0014123320579528809
1772594765757938000,0.64993798828125,0.04514598846435547,-0.00008803792297840118,0.001293480396270752
1772594765778202000,0.6702021484375,0.044854164123535156,-0.00009280629456043243,0.0012951195240020752
1772594765798465000,0.690465087890625,0.04850006103515625,-0.00010831467807292938,0.0014105439186096191
1772594765818729000,0.71072900390625,0.05527973175048828,-0.0001400243490934372,0.0016257762908935547
1772594765838993000,0.730992919921875,0.06237030029296875,-0.0001681707799434662,0.001844167709350586
1772594765859256000,0.751256103515625,0.06719112396240234,-0.00019496306777000427,0.001997828483581543
1772594765879520000,0.77152001953125,0.06919384002685547,-0.00020704418420791626,0.0020683109760284424
1772594765899784000,0.791783935546875,0.06814098358154297,-0.00020369328558444977,0.002051830291748047
1772594765920047000,0.812047119140625,0.06643867492675781,-0.00020065344870090485,0.002009749412536621
1772594765940311000,0.83231103515625,0.06568431854248047,-0.00020041503012180328,0.0019854307174682617
1772594765960575000,0.852574951171875,0.06436634063720703,-0.00019397959113121033,0.0019436478614807129
1772594765980838000,0.872837890625,0.06189155578613281,-0.00018771737813949585,0.0018744170665740967
1772594766001102000,0.89310205078125,0.0574951171875,-0.00017708539962768555,0.001750648021697998
1772594766021366000,0.913365966796875,0.049559593200683594,-0.00015040487051010132,0.0015114247798919678
1772594766041629000,0.93362890625,0.041611671447753906,-0.00012344308197498322,0.00127410888671875
1772594766061893000,0.95389306640625,0.03356361389160156,-0.00009970739483833313,0.0010312795639038086
1772594766082157000,0.974156982421875,0.024713516235351562,-0.00007137656211853027,0.000762253999710083
1772594766102420000,0.994419921875,0.016653060913085938,-0.000048162415623664856,0.0005133152008056641
1772594766122684000,1.014683837890625,0.008591651916503906,-0.00002527981996536255,0.00026425719261169434
1772594766142948000,1.034947998046875,-0.0025873184204101562,0.0000075511634349823,-0.00007939338684082031
1772594766163211000,1.0552109375,-0.015649795532226562,0.000047264620661735535,-0.00048094987869262695
1772594766183475000,1.075474853515625,-0.030678749084472656,0.00010001286864280701,-0.0009444653987884521
1772594766203739000,1.09573876953125,-0.04584789276123047,0.0001521483063697815,-0.0014064013957977295
1772594766224002000,1.116001953125,-0.059967994689941406,0.00020105019211769104,-0.0018389225006103516
1772594766244266000,1.136265869140625,-0.07343292236328125,0.0002500303089618683,-0.0022421181201934814
1772594766264530000,1.156530029296875,-0.08549213409423828,0.0002958253026008606,-0.0026010870933532715
1772594766284793000,1.17679296875,-0.09584617614746094,0.0003492869436740875,-0.002902209758758545
1772594766305057000,1.19705712890625,-0.10126972198486328,0.0003904588520526886,-0.0030517578125
1772594766325321000,1.217321044921875,-0.10384082794189453,0.00042140111327171326,-0.0031206905841827393
1772594766345584000,1.237584228515625,-0.1035604476928711,0.0004381723701953888,-0.003116995096206665
1772594766365848000,1.25784814453125,-0.10026741027832031,0.0004297420382499695,-0.0030267834663391113
1772594766386112000,1.278112060546875,-0.09378528594970703,0.0003983601927757263,-0.0028380155563354492
1772594766406375000,1.298375,-0.08475494384765625,0.0003600865602493286,-0.0025740861892700195
1772594766426639000,1.31863916015625,-0.07218551635742188,0.00029848143458366394,-0.002190828323364258
1772594766446903000,1.338903076171875,-0.060853004455566406,0.00024876371026039124,-0.0018444061279296875
1772594766467166000,1.359166015625,-0.0492706298828125,0.00019456446170806885,-0.0014961659908294678
1772594766487430000,1.379429931640625,-0.0371246337890625,0.00013879314064979553,-0.0011293292045593262
1772594766507694000,1.399694091796875,-0.029067039489746094,0.00009844452142715454,-0.0008931159973144531
1772594766527957000,1.41995703125,-0.024873733520507812,0.00007322616875171661,-0.0007714331150054932
1772594766548221000,1.440220947265625,-0.02435302734375,0.00006248615682125092,-0.0007599592208862305
1772594766568485000,1.460485107421875,-0.02382946014404297,0.000058010220527648926,-0.0007443726062774658
1772594766588748000,1.480748046875,-0.02385234832763672,0.00005380809307098389,-0.0007435083389282227
1772594766609012000,1.501011962890625,-0.0231170654296875,0.000047963112592697144,-0.0007197856903076172
1772594766629276000,1.52127587890625,-0.024105072021484375,0.00004795193672180176,-0.0007517039775848389
1772594766649539000,1.5415390625,-0.02186870574951172,0.0000403430312871933,-0.0006848275661468506
1772594766669803000,1.561802978515625,-0.01837444305419922,0.000034168362617492676,-0.0005775988101959229
1772594766690067000,1.58206689453125,-0.012433052062988281,0.000025037676095962524,-0.0003916025161743164
1772594766710331000,1.602330810546875,-0.0042247772216796875,0.000009268522262573242,-0.00013208389282226562
1772594766730594000,1.622593994140625,0.005608558654785156,-0.000013090670108795166,0.00017431378364562988
1772594766750858000,1.64285791015625,0.017633438110351562,-0.00004569627344608307,0.0005435943603515625
1772594766771122000,1.663121826171875,0.02958393096923828,-0.00008048303425312042,0.0009043216705322266
1772594766791385000,1.683385009765625,0.03791522979736328,-0.00011123716831207275,0.0011540353298187256
1772594766811649000,1.70364892578125,0.041728973388671875,-0.00013460591435432434,0.0012628734111785889
1772594766831913000,1.723912841796875,0.043526649475097656,-0.00015444308519363403,0.0013131797313690186
1772594766852176000,1.74417578125,0.04311084747314453,-0.00016487762331962585,0.0012942254543304443
1772594766872440000,1.764440185546875,0.04355812072753906,-0.00017289072275161743,0.0012988746166229248
1772594766892704000,1.7847041015625,0.04248523712158203,-0.0001698322594165802,0.0012592673301696777
1772594766912967000,1.804966796875,0.041398048400878906,-0.0001723654568195343,0.0012297332286834717
1772594766933231000,1.825231201171875,0.040871620178222656,-0.00017869845032691956,0.0012142062187194824
1772594766953495000,1.8454951171875,0.041054725646972656,-0.00017907097935676575,0.00122109055519104
1772594766973758000,1.865758056640625,0.04008007049560547,-0.00017212703824043274,0.0011933743953704834
1772594766994022000,1.88602197265625,0.039612770080566406,-0.00016924738883972168,0.0011793971061706543
1772594767014286000,1.9062861328125,0.040309906005859375,-0.00017353147268295288,0.001203089952468872
1772594767034549000,1.926549072265625,0.039775848388671875,-0.00017108768224716187,0.0011834800243377686
1772594767054813000,1.94681298828125,0.03809356689453125,-0.00016838684678077698,0.0011358857154846191
1772594767075077000,1.9670771484375,0.034720420837402344,-0.0001562163233757019,0.0010396242141723633
1772594767095340000,1.987340087890625,0.029333114624023438,-0.00013488531112670898,0.0008845925331115723
1772594767115604000,2.00760400390625,0.02064228057861328,-0.00009647011756896973,0.0006226301193237305
1772594767135868000,2.027867919921875,0.008913040161132812,-0.00004232674837112427,0.000269085168838501
1772594767156131000,2.048131103515625,-0.004242897033691406,0.000021267682313919067,-0.00012832880020141602
1772594767176395000,2.06839501953125,-0.019248008728027344,0.00010204315185546875,-0.0005851984024047852
1772594767196659000,2.088658935546875,-0.03285789489746094,0.00017908215522766113,-0.0010037720203399658
1772594767216922000,2.108922119140625,-0.0458221435546875,0.00025198981165885925,-0.001405477523803711
1772594767237186000,2.12918603515625,-0.05699348449707031,0.0003100372850894928,-0.001757800579071045
1772594767257450000,2.149449951171875,-0.0639944076538086,0.0003407895565032959,-0.001974135637283325
1772594767277713000,2.169712890625,-0.06814289093017578,0.00035455450415611267,-0.0021025240421295166
1772594767297977000,2.18997705078125,-0.06901741027832031,0.00035123899579048157,-0.0021195411682128906
1772594767318241000,2.210240966796875,-0.06604480743408203,0.00032029300928115845,-0.0020272433757781982
1772594767338504000,2.23050390625,-0.05915069580078125,0.0002723783254623413,-0.001817166805267334
1772594767358768000,2.25076806640625,-0.050652503967285156,0.00021413713693618774,-0.0015570521354675293
1772594767379032000,2.271031982421875,-0.03943347930908203,0.00015050172805786133,-0.0012150406837463379
1772594767399295000,2.291294921875,-0.026968955993652344,0.00009029731154441833,-0.0008421540260314941
1772594767419559000,2.311558837890625,-0.013653755187988281,0.000038929283618927,-0.0004347860813140869
1772594767439823000,2.331822998046875,0.0015916824340820312,-0.0000040549784898757935,0.0000521242618560791
1772594767460086000,2.3520859375,0.01590442657470703,-0.00003531947731971741,0.0005346238613128662
1772594767480350000,2.372349853515625,0.029189109802246094,-0.00005576014518737793,0.0010048747062683105
1772594767500614000,2.39261376953125,0.041629791259765625,-0.0000699758529663086,0.001468956470489502
1772594767520877000,2.412876953125,0.04875755310058594,-0.00007894635200500488,0.0017556846141815186
1772594767541141000,2.43314111328125,0.052451133728027344,-0.00008856318891048431,0.0019185841083526611
1772594767561405000,2.453405029296875,0.05260753631591797,-0.00010409578680992126,0.0019559264183044434
1772594767581668000,2.473668212890625,0.049396514892578125,-0.00011534057557582855,0.0018579661846160889
1772594767601932000,2.49393212890625,0.04366874694824219,-0.00012018904089927673,0.0016432702541351318
1772594767622196000,2.514196044921875,0.036238670349121094,-0.00011784955859184265,0.0013541877269744873
1772594767642459000,2.534458984375,0.026442527770996094,-0.00009546801447868347,0.0009756982326507568
1772594767662723000,2.55472314453125,0.014307022094726562,-0.000056568533182144165,0.0005213916301727295
1772594767682987000,2.574987060546875,0.00090789794921875,-0.000003974884748458862,0.00003266334533691406
1772594767703250000,2.59525,-0.012628555297851562,0.000059954822063446045,-0.00044855475425720215
1772594767723514000,2.61551416015625,-0.020979881286621094,0.00010633096098899841,-0.0007372200489044189
1772594767743778000,2.635778076171875,-0.026952743530273438,0.00014254450798034668,-0.0009368360042572021
1772594767764041000,2.656041015625,-0.028862953186035156,0.00015334412455558777,-0.0009916126728057861
1772594767784305000,2.676304931640625,-0.02736949920654297,0.00014390423893928528,-0.0009282529354095459
1772594767804569000,2.696569091796875,-0.021950721740722656,0.00011532753705978394,-0.0007391870021820068
1772594767824832000,2.71683203125,-0.013956069946289062,0.0000717751681804657,-0.00046646595001220703
1772594767845096000,2.737095947265625,-0.0032339096069335938,0.000016596168279647827,-0.0001068115234375
1772594767865360000,2.75735986328125,0.009870529174804688,-0.000051196664571762085,0.0003236830234527588
1772594767885623000,2.777623046875,0.023415565490722656,-0.0001221969723701477,0.000762939453125
1772594767905887000,2.797886962890625,0.036731719970703125,-0.00019283965229988098,0.0011855363845825195
1772594767926151000,2.81815087890625,0.048819541931152344,-0.00025326013565063477,0.001559823751449585
1772594767946414000,2.8384140625,0.05790424346923828,-0.0002990737557411194,0.0018413662910461426
1772594767966678000,2.858677978515625,0.06353473663330078,-0.0003273375332355499,0.00201454758644104
1772594767986942000,2.87894189453125,0.06810474395751953,-0.0003519318997859955,0.002166271209716797
1772594768007206000,2.899205810546875,0.07124137878417969,-0.00036833807826042175,0.002266138792037964
1772594768027469000,2.919468994140625,0.07509422302246094,-0.0003865286707878113,0.0023933053016662598
1772594768047733000,2.93973291015625,0.07824993133544922,-0.0003998801112174988,0.0025103986263275146
1772594768067997000,2.959996826171875,0.08030223846435547,-0.00040062516927719116,0.0025779008865356445
1772594768088260000,2.980260009765625,0.08166027069091797,-0.00039160624146461487,0.0026226043701171875
1772594768108524000,3.00052392578125,0.08265399932861328,-0.00038337334990501404,0.0026610493659973145
1772594768128788000,3.0207880859375,0.0838327407836914,-0.00038078799843788147,0.0027056634426116943
1772594768149051000,3.04105078125,0.088592529296875,-0.0003912001848220825,0.00285378098487854
1772594768169315000,3.061315185546875,0.09570789337158203,-0.0004154592752456665,0.003080308437347412
1772594768189579000,3.0815791015625,0.10162925720214844,-0.0004348866641521454,0.0032511651515960693
1772594768209842000,3.101842041015625,0.10698223114013672,-0.00044723600149154663,0.003395557403564453
1772594768230106000,3.122106201171875,0.1115121841430664,-0.00046369433403015137,0.003497481346130371
1772594768250370000,3.1423701171875,0.11534881591796875,-0.0004787743091583252,0.003558129072189331
1772594768270633000,3.162633056640625,0.11889076232910156,-0.0004961900413036346,0.003613770008087158
1772594768290897000,3.18289697265625,0.12384700775146484,-0.0005087554454803467,0.0037107467651367188
1772594768311161000,3.2031611328125,0.12823009490966797,-0.0005129687488079071,0.003793060779571533
1772594768331424000,3.223424072265625,0.13226890563964844,-0.0005061700940132141,0.0038740038871765137
1772594768351688000,3.24368798828125,0.13496780395507812,-0.0004802010953426361,0.003915518522262573
1772594768371952000,3.2639521484375,0.13735294342041016,-0.000441182404756546,0.003931224346160889
1772594768392215000,3.284215087890625,0.13904857635498047,-0.0004174802452325821,0.003944098949432373
1772594768412479000,3.30447900390625,0.13742733001708984,-0.00038265250623226166,0.0038879215717315674
1772594768432743000,3.324742919921875,0.1322793960571289,-0.00034112483263015747,0.003758549690246582
1772594768453006000,3.345006103515625,0.12598800659179688,-0.00029452890157699585,0.0035911202430725098
1772594768473270000,3.36527001953125,0.12153911590576172,-0.0002691764384508133,0.003481745719909668
1772594768493534000,3.385533935546875,0.11689949035644531,-0.0002562478184700012,0.003378748893737793
1772594768513797000,3.405797119140625,0.11232662200927734,-0.00024500302970409393,0.003281116485595703
1772594768534061000,3.42606103515625,0.10802555084228516,-0.00024056434631347656,0.00318223237991333
1772594768554325000,3.446324951171875,0.10342216491699219,-0.0002512931823730469,0.003077387809753418
1772594768574588000,3.466587890625,0.09806442260742188,-0.00026844441890716553,0.0029471218585968018
1772594768594852000,3.48685205078125,0.09423160552978516,-0.0002765972167253494,0.0028488337993621826
1772594768615116000,3.507115966796875,0.09419631958007812,-0.0002955552190542221,0.002844184637069702
1772594768635379000,3.52737890625,0.09778690338134766,-0.00033738836646080017,0.002938210964202881
1772594768655643000,3.547642822265625,0.10321044921875,-0.00038410723209381104,0.003109067678451538
1772594768675907000,3.567906982421875,0.10707378387451172,-0.00040745362639427185,0.003228515386581421
1772594768696170000,3.588169921875,0.10959529876708984,-0.00042526423931121826,0.003286898136138916
1772594768716434000,3.608433837890625,0.11128807067871094,-0.0004389733076095581,0.0033081769943237305
1772594768736698000,3.628697998046875,0.1116800308227539,-0.0004577450454235077,0.003294914960861206
1772594768756961000,3.6489609375,0.11255550384521484,-0.0004641786217689514,0.0033058524131774902
1772594768777225000,3.669224853515625,0.11176109313964844,-0.00045164674520492554,0.0032796859741210938
1772594768797489000,3.689489013671875,0.10823535919189453,-0.0004304759204387665,0.003170579671859741
1772594768817752000,3.709751953125,0.10515594482421875,-0.0004177503287792206,0.003086566925048828
1772594768838016000,3.73001611328125,0.10208988189697266,-0.0003928057849407196,0.0030049383640289307
1772594768858280000,3.750280029296875,0.09869575500488281,-0.000379025936126709,0.002901405096054077
1772594768878543000,3.770543212890625,0.09597110748291016,-0.0003763437271118164,0.0028278231620788574
1772594768898807000,3.79080712890625,0.09141349792480469,-0.00036832690238952637,0.0027136802673339844
1772594768919071000,3.811071044921875,0.0841531753540039,-0.0003510192036628723,0.0025203824043273926
1772594768939334000,3.831333984375,0.07556724548339844,-0.0003241300582885742,0.0022811591625213623
1772594768959598000,3.85159814453125,0.06429862976074219,-0.0002815723419189453,0.0019500553607940674
1772594768979862000,3.871862060546875,0.055965423583984375,-0.00025584176182746887,0.0016928911209106445
1772594769000125000,3.892125,0.05128002166748047,-0.00024924054741859436,0.0015510618686676025
1772594769020389000,3.91238916015625,0.047537803649902344,-0.00024155527353286743,0.001440286636352539
1772594769040653000,3.932653076171875,0.04353141784667969,-0.00022980943322181702,0.001315981149673462
1772594769060916000,3.952916015625,0.036810874938964844,-0.0001975521445274353,0.0011126697063446045
1772594769081180000,3.973179931640625,0.030801773071289062,-0.00016573816537857056,0.0009295046329498291
1772594769101444000,3.993444091796875,0.028799057006835938,-0.00015688687562942505,0.0008644461631774902
1772594769121707000,4.01370703125,0.03092193603515625,-0.00017106905579566956,0.0009281039237976074
1772594769141971000,4.033970947265625,0.035736083984375,-0.00019976496696472168,0.001070857048034668
1772594769162235000,4.05423486328125,0.043365478515625,-0.0002459287643432617,0.001302272081375122
1772594769182498000,4.074498046875,0.04988574981689453,-0.00028572604060173035,0.0015050172805786133
1772594769202762000,4.094761962890625,0.055480003356933594,-0.0003154836595058441,0.0016827285289764404
1772594769223026000,4.11502587890625,0.05880928039550781,-0.00033391639590263367,0.001788109540939331
1772594769243289000,4.1352890625,0.062282562255859375,-0.00035717710852622986,0.0019114017486572266
1772594769263553000,4.155552978515625,0.06911468505859375,-0.0003938153386116028,0.0021404922008514404
1772594769283817000,4.17581689453125,0.07508087158203125,-0.00043019652366638184,0.0023418664932250977
1772594769304081000,4.196080810546875,0.0792388916015625,-0.0004535764455795288,0.0024938881397247314
1772594769324344000,4.216343994140625,0.08442211151123047,-0.00048369914293289185,0.002678900957107544
1772594769344608000,4.23660791015625,0.08965206146240234,-0.0005078501999378204,0.0028731226921081543
1772594769364872000,4.256871826171875,0.0942525863647461,-0.000544227659702301,0.003035247325897217
1772594769385135000,4.277135009765625,0.09885692596435547,-0.000572938472032547,0.003197789192199707
1772594769405399000,4.29739892578125,0.10439491271972656,-0.0006085336208343506,0.0033811330795288086
1772594769425663000,4.3176630859375,0.110748291015625,-0.000648796558380127,0.0035968422889709473
1772594769445926000,4.33792578125,0.11475849151611328,-0.000663507729768753,0.003731340169906616
1772594769466190000,4.358190185546875,0.11604785919189453,-0.0006808191537857056,0.00376051664352417
1772594769486454000,4.3784541015625,0.1187143325805664,-0.0006931200623512268,0.0038428306579589844
1772594769506717000,4.398717041015625,0.12166595458984375,-0.0007127821445465088,0.0039213597774505615
1772594769526981000,4.418981201171875,0.12317562103271484,-0.0007111728191375732,0.0039373040199279785
1772594769547245000,4.4392451171875,0.12159442901611328,-0.0007020309567451477,0.0038497447967529297
1772594769567508000,4.459508056640625,0.11844348907470703,-0.0006698742508888245,0.003717780113220215
1772594769587772000,4.47977197265625,0.11607646942138672,-0.000647522509098053,0.003623068332672119
1772594769608036000,4.5000361328125,0.11381816864013672,-0.0006175413727760315,0.003548562526702881
1772594769628299000,4.520299072265625,0.11154651641845703,-0.0005874894559383392,0.0034639835357666016
1772594769648563000,4.54056298828125,0.11126899719238281,-0.0005846843123435974,0.003433823585510254
1772594769668827000,4.560826904296875,0.11181259155273438,-0.0005871765315532684,0.0034247636795043945
1772594769689090000,4.581090087890625,0.11073970794677734,-0.0005887635052204132,0.0033806264400482178
1772594769709354000,4.60135400390625,0.10914325714111328,-0.0005866289138793945,0.003334343433380127
1772594769729618000,4.621617919921875,0.1089181900024414,-0.0005971714854240417,0.0033376216888427734
1772594769749881000,4.641881103515625,0.1116495132446289,-0.0006072968244552612,0.0034307539463043213
1772594769770145000,4.66214501953125,0.11695671081542969,-0.000641845166683197,0.003591984510421753
1772594769790409000,4.682408935546875,0.12122249603271484,-0.0006751194596290588,0.0037268996238708496
1772594769810672000,4.702672119140625,0.12547874450683594,-0.0007070377469062805,0.0038472414016723633
1772594769830936000,4.72293603515625,0.12857437133789062,-0.0007216297090053558,0.0039456188678741455
1772594769851200000,4.743199951171875,0.13084125518798828,-0.000712130218744278,0.0040274858474731445
1772594769871463000,4.763462890625,0.13458251953125,-0.0007002949714660645,0.0041686296463012695
1772594769891727000,4.78372705078125,0.134429931640625,-0.0006688162684440613,0.004155933856964111
1772594769911991000,4.803990966796875,0.1318492889404297,-0.0006082430481910706,0.004057735204696655
1772594769932254000,4.82425390625,0.12500762939453125,-0.0005407407879829407,0.00382155179977417
1772594769952518000,4.844517822265625,0.11507987976074219,-0.0004786252975463867,0.003510087728500366
1772594769972782000,4.864781982421875,0.1018838882446289,-0.00040975213050842285,0.0031218230724334717
1772594769993045000,4.885044921875,0.08947944641113281,-0.000355646014213562,0.0027446448802948
1772594770013309000,4.905308837890625,0.07681560516357422,-0.0002990737557411194,0.0023638010025024414
1772594770033573000,4.925572998046875,0.06580543518066406,-0.00025017932057380676,0.002019137144088745
1772594770053836000,4.9458359375,0.056677818298339844,-0.0002140253782272339,0.0017257928848266602
1772594770074100000,4.966099853515625,0.04827308654785156,-0.00018208473920822144,0.001462399959564209
1772594770094364000,4.986364013671875,0.04440784454345703,-0.00017452985048294067,0.0013386309146881104
1772594770114627000,5.006626953125,0.04422187805175781,-0.00018275529146194458,0.0013307631015777588
1772594770134891000,5.02689111328125,0.048363685607910156,-0.00021179020404815674,0.001453697681427002
1772594770155155000,5.047155029296875,0.05656147003173828,-0.0002587325870990753,0.0016990602016448975
1772594770175418000,5.067418212890625,0.06496429443359375,-0.00030146539211273193,0.0019443333148956299
1772594770195682000,5.08768212890625,0.07382869720458984,-0.0003463663160800934,0.0021972954273223877
1772594770215946000,5.107946044921875,0.08134746551513672,-0.00039612501859664917,0.002400428056716919
1772594770236209000,5.128208984375,0.08728599548339844,-0.0004363991320133209,0.002572476863861084
1772594770256473000,5.14847314453125,0.09218311309814453,-0.0004864819347858429,0.002713799476623535
1772594770276737000,5.168737060546875,0.09307384490966797,-0.0005146972835063934,0.002736210823059082
1772594770297000000,5.189,0.09104061126708984,-0.0005087889730930328,0.002685725688934326
1772594770317264000,5.209263916015625,0.0854349136352539,-0.00048720091581344604,0.0025154054164886475
1772594770337528000,5.229528076171875,0.0786886215209961,-0.000446416437625885,0.0023129284381866455
1772594770357791000,5.249791015625,0.0713052749633789,-0.0003993771970272064,0.0020834505558013916
1772594770378055000,5.270054931640625,0.06701183319091797,-0.0003708787262439728,0.0019400715827941895
1772594770398319000,5.290319091796875,0.06171417236328125,-0.00032955780625343323,0.0017849206924438477
1772594770418582000,5.31058203125,0.057600975036621094,-0.00029192864894866943,0.0016718804836273193
1772594770438846000,5.330845947265625,0.055197715759277344,-0.0002719312906265259,0.0016090571880340576
1772594770459110000,5.35110986328125,0.04940032958984375,-0.0002300068736076355,0.001456141471862793
1772594770479373000,5.371373046875,0.044938087463378906,-0.0001990869641304016,0.0013377666473388672
1772594770499637000,5.391636962890625,0.04164600372314453,-0.0001771785318851471,0.0012508630752563477
1772594770519901000,5.41190087890625,0.037878990173339844,-0.00015387684106826782,0.0011520683765411377
1772594770540164000,5.4321640625,0.03234386444091797,-0.00012622401118278503,0.0009974539279937744
1772594770560440000,5.452440185546875,0.025171279907226562,-0.00009668618440628052,0.000787585973739624
1772594770580704000,5.4727041015625,0.016890525817871094,-0.00006285309791564941,0.0005375444889068604
1772594770600968000,5.492968017578125,0.008088111877441406,-0.000029474496841430664,0.00026026368141174316
1772594770621231000,5.513231201171875,-0.0013265609741210938,0.000004708766937255859,-0.00004309415817260742
1772594770641495000,5.5334951171875,-0.009950637817382812,0.00003576651215553284,-0.0003241896629333496
1772594770661759000,5.553759033203125,-0.014860153198242188,0.00005475431680679321,-0.0004839599132537842
1772594770682022000,5.57402197265625,-0.017213821411132812,0.00006267428398132324,-0.0005574226379394531
1772594770702286000,5.5942861328125,-0.01723003387451172,0.00006189197301864624,-0.0005553960800170898
1772594770722550000,5.614550048828125,-0.012485504150390625,0.00004452839493751526,-0.0004000067710876465
1772594770742813000,5.63481298828125,-0.005387306213378906,0.000019244849681854248,-0.00017145276069641113
1772594770763077000,5.6550771484375,0.0032720565795898438,-0.000011589378118515015,0.00010341405868530273
1772594770783341000,5.675341064453125,0.013710975646972656,-0.0000484958291053772,0.00043135881423950195
1772594770803605000,5.69560498046875,0.02592945098876953,-0.00009002536535263062,0.0008142590522766113
1772594770823868000,5.715867919921875,0.03938484191894531,-0.0001367814838886261,0.0012362897396087646
1772594770844132000,5.736132080078125,0.05029487609863281,-0.0001683942973613739,0.0015766024589538574
1772594770864396000,5.75639599609375,0.06125831604003906,-0.00019348226487636566,0.0019198954105377197
1772594770884659000,5.776658935546875,0.07228660583496094,-0.0002291649580001831,0.0022700726985931396
1772594770904923000,5.7969228515625,0.08257198333740234,-0.0002626553177833557,0.002594172954559326
1772594770925187000,5.81718701171875,0.0913848876953125,-0.0002829078584909439,0.0028765201568603516
1772594770945450000,5.837449951171875,0.09979820251464844,-0.0003029368817806244,0.0031512081623077393
1772594770965714000,5.8577138671875,0.10837745666503906,-0.0003143046051263809,0.003428041934967041
1772594770985978000,5.87797802734375,0.11686325073242188,-0.00033574365079402924,0.0037005245685577393
1772594771006241000,5.898240966796875,0.12497901916503906,-0.0003749188035726547,0.003954589366912842
1772594771026505000,5.9185048828125,0.131744384765625,-0.00041598454117774963,0.00415271520614624
1772594771046769000,5.938768798828125,0.13955211639404297,-0.00044753775000572205,0.004402577877044678
1772594771067032000,5.959031982421875,0.14728736877441406,-0.0004913657903671265,0.0046516358852386475
1772594771087296000,5.9792958984375,0.15417861938476562,-0.0005334764719009399,0.00488126277923584
1772594771107560000,5.999559814453125,0.15951919555664062,-0.0005816556513309479,0.005048036575317383
1772594771127823000,6.019822998046875,0.16314411163330078,-0.0006392262876033783,0.005166113376617432
1772594771148087000,6.040087158203125,0.1656017303466797,-0.0006766580045223236,0.005218207836151123
1772594771168351000,6.06035107421875,0.16697406768798828,-0.0007166191935539246,0.005224019289016724
1772594771188614000,6.08061376953125,0.1670217514038086,-0.0007420293986797333,0.0051957666873931885
1772594771208878000,6.100878173828125,0.16406726837158203,-0.0007429197430610657,0.005081653594970703
1772594771229142000,6.12114208984375,0.15846920013427734,-0.0007201582193374634,0.0048867762088775635
1772594771249405000,6.141405029296875,0.1497821807861328,-0.0007013827562332153,0.004602164030075073
1772594771269669000,6.161669189453125,0.1374368667602539,-0.0006585270166397095,0.004198819398880005
1772594771289933000,6.18193310546875,0.12287712097167969,-0.0005976967513561249,0.0037430524826049805
1772594771310196000,6.202196044921875,0.1077127456665039,-0.0005199238657951355,0.0032923519611358643
1772594771330460000,6.2224599609375,0.09386253356933594,-0.00044890493154525757,0.002885758876800537
1772594771350724000,6.24272412109375,0.0811014175415039,-0.00038884952664375305,0.00251045823097229
1772594771370987000,6.262987060546875,0.0697946548461914,-0.00034332647919654846,0.0021811723709106445
1772594771391251000,6.2832509765625,0.05893707275390625,-0.0002954453229904175,0.0018476247787475586
1772594771411515000,6.303514892578125,0.05069732666015625,-0.0002533644437789917,0.0015906989574432373
1772594771431778000,6.323778076171875,0.04663562774658203,-0.00023357942700386047,0.001465439796447754
1772594771452042000,6.3440419921875,0.04618549346923828,-0.00023217499256134033,0.0014458000659942627
1772594771472306000,6.364305908203125,0.050658226013183594,-0.0002481415867805481,0.001586228609085083
1772594771492569000,6.384569091796875,0.05826568603515625,-0.000274021178483963,0.0018299221992492676
1772594771513260000,6.405260009765625,0.06758785247802734,-0.0003033950924873352,0.002127319574356079
1772594771533524000,6.42552392578125,0.07864093780517578,-0.0003296397626399994,0.0024628639221191406
1772594771553788000,6.445787841796875,0.08881664276123047,-0.0003441758453845978,0.0027731359004974365
1772594771574051000,6.466051025390625,0.09734058380126953,-0.0003425963222980499,0.0030243396759033203
1772594771594315000,6.48631494140625,0.10473155975341797,-0.0003428459167480469,0.00325089693069458
1772594771614579000,6.506578857421875,0.11237335205078125,-0.00035586580634117126,0.003482252359390259
1772594771634842000,6.526842041015625,0.11794376373291016,-0.0003600381314754486,0.0036382675170898438
1772594771655106000,6.54710595703125,0.12270736694335938,-0.0003642980009317398,0.0037826597690582275
1772594771675370000,6.567369873046875,0.12503433227539062,-0.00036993809044361115,0.0038379430770874023
1772594771695633000,6.5876328125,0.12530136108398438,-0.0003782324492931366,0.0038060545921325684
1772594771715897000,6.60789697265625,0.12539958953857422,-0.00039372965693473816,0.003756284713745117
1772594771736161000,6.6281611328125,0.1235342025756836,-0.0004104524850845337,0.0036610066890716553
1772594771756424000,6.648423828125,0.12096691131591797,-0.00042912736535072327,0.003546774387359619
1772594771776688000,6.668688232421875,0.11486053466796875,-0.00043487548828125,0.0033514797687530518
1772594771796952000,6.6889521484375,0.10678958892822266,-0.00042515993118286133,0.0030965805053710938
1772594771817215000,6.709215087890625,0.09832763671875,-0.0004022642970085144,0.0028456151485443115
1772594771837479000,6.72947900390625,0.0912933349609375,-0.00039036571979522705,0.0026448071002960205
1772594771857743000,6.7497431640625,0.0849008560180664,-0.00036701932549476624,0.002466738224029541
1772594771878006000,6.770006103515625,0.08015632629394531,-0.0003516189754009247,0.0023458898067474365
1772594771898270000,6.79027001953125,0.07803630828857422,-0.0003405846655368805,0.002305924892425537
1772594771918534000,6.810533935546875,0.07622528076171875,-0.0003288090229034424,0.002276182174682617
1772594771938797000,6.830797119140625,0.07375907897949219,-0.00031986087560653687,0.002232104539871216
1772594771959061000,6.85106103515625,0.0703744888305664,-0.00030758604407310486,0.00215834379196167
1772594771979325000,6.871324951171875,0.06914138793945312,-0.0003031417727470398,0.002133786678314209
1772594771999588000,6.891588134765625,0.06740188598632812,-0.0002972260117530823,0.002094089984893799
1772594772019852000,6.91185205078125,0.06332683563232422,-0.000286739319562912,0.0019751787185668945
1772594772040116000,6.932115966796875,0.058058738708496094,-0.00026474520564079285,0.0018178224563598633
1772594772060379000,6.95237890625,0.05311298370361328,-0.0002467036247253418,0.0016650557518005371
1772594772080643000,6.97264306640625,0.047118186950683594,-0.00022155046463012695,0.0014691054821014404
1772594772100907000,6.992906982421875,0.04132080078125,-0.00019991397857666016,0.0012801289558410645
1772594772121170000,7.013169921875,0.03562164306640625,-0.00018051639199256897,0.0010990798473358154
1772594772141434000,7.03343408203125,0.028731346130371094,-0.0001509450376033783,0.0008796751499176025
1772594772161698000,7.053697998046875,0.02198028564453125,-0.00011675432324409485,0.0006685853004455566
1772594772181961000,7.0739609375,0.0146026611328125,-0.00007770955562591553,0.00044333934783935547
1772594772202225000,7.094224853515625,0.009546279907226562,-0.00005087628960609436,0.00029009580612182617
1772594772222489000,7.114489013671875,0.005005836486816406,-0.000026654452085494995,0.00015234947204589844
1772594772242752000,7.134751953125,-0.0004177093505859375,0.0000022388994693756104,-0.000012755393981933594
1772594772263016000,7.155015869140625,-0.00922393798828125,0.000049933791160583496,-0.00028383731842041016
1772594772283280000,7.17527978515625,-0.015642166137695312,0.00008565559983253479,-0.00048661231994628906
1772594772303543000,7.19554296875,-0.021116256713867188,0.00011582672595977783,-0.0006657242774963379
1772594772323807000,7.215806884765625,-0.026294708251953125,0.00014491379261016846,-0.0008377730846405029
1772594772344071000,7.23607080078125,-0.02883434295654297,0.00016015395522117615,-0.0009290575981140137
1772594772364334000,7.256333984375,-0.031045913696289062,0.0001770704984664917,-0.0010080933570861816
1772594772384598000,7.276597900390625,-0.031330108642578125,0.00018381699919700623,-0.0010274946689605713
1772594772404862000,7.296862060546875,-0.031223297119140625,0.0001851692795753479,-0.0010326504707336426
1772594772425126000,7.3171259765625,-0.02937602996826172,0.0001735873520374298,-0.0009756684303283691
1772594772445389000,7.33738916015625,-0.027710914611816406,0.00016206130385398865,-0.0009201467037200928
1772594772465653000,7.357653076171875,-0.02500152587890625,0.00014027580618858337,-0.0008246004581451416
1772594772485917000,7.3779169921875,-0.026780128479003906,0.00014526769518852234,-0.0008762180805206299
1772594772506180000,7.39818017578125,-0.033089637756347656,0.0001736655831336975,-0.0010709166526794434
1772594772526444000,7.418444091796875,-0.03726673126220703,0.00018475577235221863,-0.0011977851390838623
1772594772546708000,7.4387080078125,-0.040313720703125,0.0001882500946521759,-0.0012854039669036865
1772594772566971000,7.458970947265625,-0.03983497619628906,0.0001744888722896576,-0.0012597739696502686
1772594772587235000,7.479235107421875,-0.038138389587402344,0.00015664845705032349,-0.0011886954307556152
1772594772607499000,7.4994990234375,-0.034491539001464844,0.00013178586959838867,-0.0010589361190795898
1772594772627762000,7.519761962890625,-0.02915668487548828,0.00010398775339126587,-0.0008837878704071045
1772594772648026000,7.540026123046875,-0.021337509155273438,0.00007134675979614258,-0.0006421804428100586
1772594772668290000,7.5602900390625,-0.011504173278808594,0.000037517398595809937,-0.0003451406955718994
1772594772688553000,7.580552978515625,0.00116729736328125,-0.0000037550926208496094,0.00003510713577270508
1772594772708817000,7.60081689453125,0.01558685302734375,-0.00004775635898113251,0.00046902894973754883
1772594772729081000,7.6210810546875,0.026488304138183594,-0.00008035823702812195,0.0007930099964141846
1772594772749344000,7.641343994140625,0.037064552307128906,-0.00010959617793560028,0.0011026561260223389
1772594772769608000,7.66160791015625,0.045035362243652344,-0.00012705102562904358,0.0013327598571777344
1772594772789872000,7.6818720703125,0.05031871795654297,-0.00013417750597000122,0.0014912784099578857
1772594772810135000,7.702135009765625,0.05441761016845703,-0.00014069676399230957,0.0016124546527862549
1772594772830399000,7.72239892578125,0.05761241912841797,-0.00014859624207019806,0.0017122924327850342
1772594772850663000,7.742662841796875,0.060192108154296875,-0.00015796907246112823,0.0017923414707183838
1772594772870926000,7.762926025390625,0.060669898986816406,-0.0001642238348722458,0.0018106698989868164
1772594772891190000,7.78318994140625,0.05705738067626953,-0.0001556389033794403,0.0017001926898956299
1772594772911454000,7.803453857421875,0.05061054229736328,-0.00014484301209449768,0.001509159803390503
1772594772931717000,7.823717041015625,0.04236793518066406,-0.00012328475713729858,0.0012660324573516846
1772594772951981000,7.84398095703125,0.032807350158691406,-0.00009844452142715454,0.0009839832782745361
1772594772972245000,7.864244873046875,0.024343490600585938,-0.00007622689008712769,0.0007339417934417725
1772594772992508000,7.8845078125,0.019913673400878906,-0.00006295181810855865,0.0006007850170135498
1772594773012772000,7.904772216796875,0.017528533935546875,-0.00005485117435455322,0.0005290210247039795
1772594773033036000,7.9250361328125,0.016391754150390625,-0.000049052760004997253,0.0004939138889312744
1772594773053299000,7.945298828125,0.014424324035644531,-0.00004027411341667175,0.0004354417324066162
1772594773073563000,7.96556298828125,0.009991645812988281,-0.000024376437067985535,0.0003019273281097412
1772594773093827000,7.9858271484375,0.006427764892578125,-0.000014310702681541443,0.00019410252571105957
1772594773114090000,8.006090087890625,0.0032596588134765625,-0.00000646151602268219,0.00009867548942565918
1772594773134354000,8.02635400390625,0.0013341903686523438,-0.0000023245811462402344,0.00004056096076965332
1772594773154618000,8.0466181640625,-0.0009546279907226562,0.0000013103708624839783,-0.0000292360782623291
1772594773174881000,8.066881103515625,-0.004813194274902344,0.000004840083420276642,-0.00014862418174743652
1772594773195145000,8.08714501953125,-0.011538505554199219,0.00000924430787563324,-0.0003585219383239746
1772594773215409000,8.107408935546875,-0.022176742553710938,0.000017939135432243347,-0.0006945431232452393
1772594773235672000,8.127672119140625,-0.034867286682128906,0.00003347918391227722,-0.0010999739170074463
1772594773255936000,8.14793603515625,-0.048259735107421875,0.00005574803799390793,-0.0015288889408111572
1772594773276200000,8.168199951171875,-0.05824565887451172,0.00008521787822246552,-0.0018602311611175537
1772594773296463000,8.188463134765625,-0.06755352020263672,0.00012408196926116943,-0.002185642719268799
1772594773316727000,8.20872705078125,-0.07456493377685547,0.00016236305236816406,-0.0024307072162628174
1772594773336991000,8.228990966796875,-0.07745075225830078,0.00019082240760326385,-0.002532750368118286
1772594773357254000,8.24925390625,-0.07723426818847656,0.00022193044424057007,-0.0025344491004943848
1772594773377518000,8.26951806640625,-0.07478618621826172,0.00023685581982135773,-0.0024632513523101807
1772594773397782000,8.289781982421875,-0.07123565673828125,0.00024576112627983093,-0.00235632061958313
1772594773418045000,8.310044921875,-0.06738471984863281,0.0002366378903388977,-0.0022355318069458008
1772594773438309000,8.33030908203125,-0.0637969970703125,0.00021909922361373901,-0.0021224915981292725
1772594773458573000,8.350572998046875,-0.05801105499267578,0.0001911073923110962,-0.0019262731075286865
1772594773478836000,8.3708359375,-0.05078887939453125,0.00016536936163902283,-0.001674354076385498
1772594773499100000,8.391099853515625,-0.039264678955078125,0.00012064352631568909,-0.0012820661067962646
1772594773519364000,8.411364013671875,-0.029834747314453125,0.00008728727698326111,-0.0009666979312896729
1772594773539627000,8.431626953125,-0.023819923400878906,0.00006836093962192535,-0.0007676184177398682
1772594773559891000,8.451890869140625,-0.021605491638183594,0.00006140954792499542,-0.0006891489028930664
1772594773580155000,8.47215478515625,-0.021697998046875,0.00006271898746490479,-0.0006823837757110596
1772594773600418000,8.49241796875,-0.02356433868408203,0.00006853044033050537,-0.0007331967353820801
1772594773620682000,8.512681884765625,-0.024390220642089844,0.00007133930921554565,-0.0007519423961639404
1772594773640946000,8.53294580078125,-0.026899337768554688,0.00008059293031692505,-0.0008245706558227539
1772594773661209000,8.553208984375,-0.030496597290039062,0.00009449757635593414,-0.0009355843067169189
1772594773681473000,8.57347314453125,-0.03548145294189453,0.00011356547474861145,-0.0010921657085418701
1772594773701737000,8.593737060546875,-0.043738365173339844,0.00014523416757583618,-0.0013453364372253418
1772594773722001000,8.6140009765625,-0.05144691467285156,0.00017781183123588562,-0.0015849471092224121
1772594773742264000,8.63426416015625,-0.059246063232421875,0.00020996108651161194,-0.0018291473388671875
1772594773762528000,8.654528076171875,-0.06386947631835938,0.0002368539571762085,-0.0019871294498443604
1772594773782792000,8.6747919921875,-0.06486701965332031,0.0002583041787147522,-0.002038419246673584
1772594773803055000,8.69505517578125,-0.062272071838378906,0.0002711489796638489,-0.001965165138244629
1772594773823319000,8.715319091796875,-0.05788612365722656,0.00027428194880485535,-0.0018330216407775879
1772594773843583000,8.7355830078125,-0.05391883850097656,0.00027563050389289856,-0.0017119646072387695
1772594773863846000,8.755845947265625,-0.051321983337402344,0.0002877451479434967,-0.001623690128326416
1772594773884110000,8.776110107421875,-0.05007743835449219,0.00030162185430526733,-0.0015723705291748047
1772594773904374000,8.7963740234375,-0.049317359924316406,0.0003196299076080322,-0.0015424489974975586
1772594773924637000,8.816636962890625,-0.04485321044921875,0.0003084242343902588,-0.0013969242572784424
1772594773944901000,8.836901123046875,-0.03866863250732422,0.00027801841497421265,-0.001198887825012207
1772594773965165000,8.8571650390625,-0.033326148986816406,0.00024242699146270752,-0.001027226448059082
1772594773985428000,8.877427978515625,-0.029623985290527344,0.0002147480845451355,-0.0009064078330993652
1772594774005692000,8.89769189453125,-0.030294418334960938,0.00021404027938842773,-0.0009219050407409668
1772594774025956000,8.9179560546875,-0.034361839294433594,0.00023940950632095337,-0.001040428876876831
1772594774046219000,8.938218994140625,-0.03467559814453125,0.0002370104193687439,-0.001043945550918579
1772594774066483000,8.95848291015625,-0.03316974639892578,0.00021792948246002197,-0.0009961128234863281
1772594774086747000,8.978746826171875,-0.02961444854736328,0.00018611177802085876,-0.000890582799911499
1772594774107010000,8.999010009765625,-0.024789810180664062,0.00014487281441688538,-0.0007435083389282227
1772594774127274000,9.01927392578125,-0.023116111755371094,0.00012563914060592651,-0.000690072774887085
1772594774147538000,9.039537841796875,-0.02418804168701172,0.00012304633855819702,-0.0007213354110717773
1772594774167801000,9.059801025390625,-0.02764129638671875,0.00013265013694763184,-0.0008192062377929688
1772594774188065000,9.08006494140625,-0.03404712677001953,0.00015704333782196045,-0.0010043978691101074
1772594774208329000,9.100328857421875,-0.03999805450439453,0.00017842277884483337,-0.0011782348155975342
1772594774228592000,9.120592041015625,-0.04534149169921875,0.00019700080156326294,-0.001334846019744873
1772594774248856000,9.14085595703125,-0.053272247314453125,0.00022293627262115479,-0.0015669465065002441
1772594774269120000,9.1611201171875,-0.0626993179321289,0.0002532787621021271,-0.0018413662910461426
1772594774289383000,9.1813828125,-0.07270240783691406,0.00028267502784729004,-0.00212860107421875
1772594774309647000,9.201647216796875,-0.0842752456665039,0.0003234595060348511,-0.0024662017822265625
1772594774329911000,9.2219111328125,-0.09566497802734375,0.0003666616976261139,-0.002798527479171753
1772594774350174000,9.242174072265625,-0.10520458221435547,0.0004103817045688629,-0.0030639469623565674
1772594774370438000,9.26243798828125,-0.1107320785522461,0.000443384051322937,-0.0032086074352264404
1772594774390702000,9.2827021484375,-0.11108779907226562,0.00045745447278022766,-0.0032143890857696533
1772594774410965000,9.302965087890625,-0.10916614532470703,0.00046821311116218567,-0.0031540393829345703
1772594774431229000,9.32322900390625,-0.10561752319335938,0.0004560314118862152,-0.003041386604309082
1772594774451493000,9.3434931640625,-0.1021280288696289,0.0004494711756706238,-0.002931565046310425
1772594774471756000,9.363756103515625,-0.09811782836914062,0.0004318244755268097,-0.002811133861541748
1772594774492020000,9.38402001953125,-0.09517669677734375,0.00041244179010391235,-0.002721816301345825
1772594774512284000,9.404283935546875,-0.09166336059570312,0.00039141997694969177,-0.0026220977306365967
1772594774532547000,9.424547119140625,-0.08640098571777344,0.00036500394344329834,-0.002471715211868286
1772594774552811000,9.44481103515625,-0.08024978637695312,0.00032814592123031616,-0.0023068785667419434
1772594774573075000,9.465074951171875,-0.07525157928466797,0.0002963356673717499,-0.00219041109085083
