time,seconds_elapsed,z,y,x
1772594442910500000,0.3485,0.0017867088317871094,-0.0016007423400878906,0.0011749267578125
1772594442930642000,0.368641845703125,0.12751293182373047,-0.119781494140625,0.08597040176391602
1772594442950936000,0.38893603515625,0.0975809097290039,-0.09244298934936523,0.06612539291381836
1772594442971199000,0.409198974609375,0.05155134201049805,-0.049053192138671875,0.03498983383178711
1772594442991463000,0.429462890625,0.02040576934814453,-0.01933908462524414,0.01374959945678711
1772594443011727000,0.44972705078125,-0.2795243263244629,0.29972171783447266,-0.21383380889892578
1772594443031990000,0.469989990234375,-0.3038954734802246,0.32753467559814453,-0.2360553741455078
1772594443052254000,0.49025390625,-0.30269432067871094,0.3305234909057617,-0.24043655395507812
1772594443072518000,0.510517822265625,-0.2783207893371582,0.31102514266967773,-0.22582435607910156
1772594443092781000,0.530781005859375,0.020000457763671875,-0.025632381439208984,0.016507625579833984
1772594443113045000,0.551044921875,-0.12404537200927734,0.13348627090454102,-0.0936589241027832
1772594443133309000,0.571308837890625,-0.16045427322387695,0.18080377578735352,-0.1253218650817871
1772594443153572000,0.591572021484375,-0.1945786476135254,0.22986268997192383,-0.1572585105895996
1772594443173836000,0.6118359375,-0.26978540420532227,0.33984947204589844,-0.22501230239868164
1772594443194100000,0.632099853515625,-0.40652990341186523,0.549591064453125,-0.3496694564819336
1772594443214363000,0.65236279296875,-0.5427951812744141,0.7699313163757324,-0.47521042823791504
1772594443234627000,0.672626953125,-0.6910898685455322,1.0981636047363281,-0.6562201976776123
1772594443254891000,0.69289111328125,-0.7306017875671387,1.346113681793213,-0.7814583778381348
1772594443275154000,0.71315380859375,-0.6040611267089844,1.3386054039001465,-0.7365593910217285
1772594443295418000,0.733418212890625,-0.37030458450317383,1.0473580360412598,-0.539212703704834
1772594443315682000,0.75368212890625,-0.1519157886505127,0.5486569404602051,-0.2687661647796631
1772594443335945000,0.773945068359375,-0.011738061904907227,0.054607391357421875,-0.025852203369140625
1772594443356209000,0.794208984375,0.06173563003540039,-0.3771944046020508,0.17128753662109375
1772594443376473000,0.81447314453125,0.09953570365905762,-0.7764120101928711,0.34256410598754883
1772594443396736000,0.834736083984375,0.13311982154846191,-1.2899084091186523,0.5604226589202881
1772594443417000000,0.855,0.14534854888916016,-1.7901277542114258,0.7688636779785156
1772594443437264000,0.875263916015625,0.1928955316543579,-2.2994394302368164,0.9770529270172119
1772594443457528000,0.895528076171875,0.2303760051727295,-2.601003646850586,1.0940666198730469
1772594443477791000,0.915791015625,0.22093284130096436,-2.517930030822754,1.0453944206237793
1772594443498055000,0.936054931640625,0.18708276748657227,-2.0701560974121094,0.8579821586608887
1772594443518319000,0.956319091796875,0.14282846450805664,-1.5081472396850586,0.6177840232849121
1772594443538582000,0.97658203125,0.10122281312942505,-1.0233383178710938,0.41115689277648926
1772594443558846000,0.996845947265625,0.07506978511810303,-0.7349061965942383,0.29788637161254883
1772594443579110000,1.01710986328125,0.05823695659637451,-0.5550642013549805,0.22995615005493164
1772594443599373000,1.037373046875,0.04171872138977051,-0.38684749603271484,0.16376304626464844
1772594443619637000,1.057636962890625,0.03365528583526611,-0.30705833435058594,0.13138246536254883
1772594443639901000,1.07790087890625,0.025929689407348633,-0.23314762115478516,0.10068345069885254
1772594443660164000,1.0981640625,0.027846336364746094,-0.24985980987548828,0.10769534111022949
1772594443680428000,1.118427978515625,0.039595603942871094,-0.3563880920410156,0.155348539352417
1772594443700692000,1.13869189453125,0.05134308338165283,-0.4639005661010742,0.20433259010314941
1772594443720955000,1.158954833984375,0.06177401542663574,-0.5622901916503906,0.24971342086791992
1772594443741219000,1.179218994140625,0.07082056999206543,-0.6509456634521484,0.29085350036621094
1772594443761483000,1.19948291015625,0.07005071640014648,-0.64434814453125,0.28559446334838867
1772594443781746000,1.219745849609375,0.0684654712677002,-0.6301536560058594,0.27671194076538086
1772594443802010000,1.240010009765625,0.06599187850952148,-0.6083831787109375,0.264359712600708
1772594443822274000,1.260274169921875,0.06308913230895996,-0.5816230773925781,0.24989676475524902
1772594443842537000,1.280536865234375,0.059824228286743164,-0.5500707626342773,0.2335658073425293
1772594443862801000,1.30080078125,0.05387473106384277,-0.49320507049560547,0.2031702995300293
1772594443883065000,1.321065185546875,0.04808354377746582,-0.4377002716064453,0.17506980895996094
1772594443903328000,1.341327880859375,0.0425640344619751,-0.38524436950683594,0.1496138572692871
1772594443923592000,1.361592041015625,0.037732720375061035,-0.33834171295166016,0.1276111602783203
1772594443943856000,1.381856201171875,0.03346705436706543,-0.2961721420288086,0.10854506492614746
1772594443964119000,1.402119140625,0.029840946197509766,-0.26013946533203125,0.0927588939666748
1772594443984383000,1.422383056640625,0.026740312576293945,-0.2283782958984375,0.07940864562988281
1772594444004647000,1.44264697265625,0.024362564086914062,-0.2029247283935547,0.06896352767944336
1772594444024910000,1.46291015625,0.022734880447387695,-0.1839437484741211,0.06126594543457031
1772594444045174000,1.483174072265625,0.024234652519226074,-0.17899036407470703,0.058611392974853516
1772594444065438000,1.50343798828125,0.029269099235534668,-0.19901561737060547,0.06578469276428223
1772594444085701000,1.523701171875,0.03520405292510986,-0.22202205657958984,0.07416486740112305
1772594444105965000,1.543965087890625,0.04182553291320801,-0.24601364135742188,0.0831456184387207
1772594444126229000,1.56422900390625,0.04865992069244385,-0.2683067321777344,0.09185481071472168
1772594444146492000,1.584491943359375,0.055466651916503906,-0.28804779052734375,0.09984183311462402
1772594444166756000,1.604756103515625,0.06270217895507812,-0.3080873489379883,0.10797739028930664
1772594444187020000,1.62502001953125,0.07018113136291504,-0.32819652557373047,0.11613607406616211
1772594444207283000,1.645282958984375,0.07788372039794922,-0.34844493865966797,0.12425827980041504
1772594444227547000,1.665546875,0.08511543273925781,-0.36646461486816406,0.1314859390258789
1772594444247811000,1.68581103515625,0.08596515655517578,-0.3702125549316406,0.13336610794067383
1772594444268074000,1.706073974609375,0.08692741394042969,-0.37485599517822266,0.13535261154174805
1772594444288338000,1.726337890625,0.08726954460144043,-0.3770303726196289,0.13628172874450684
1772594444308602000,1.74660205078125,0.08691883087158203,-0.37641048431396484,0.13603639602661133
1772594444328865000,1.766864990234375,0.08604168891906738,-0.3739500045776367,0.1349778175354004
1772594444349129000,1.78712890625,0.08508086204528809,-0.37120532989501953,0.13383078575134277
1772594444369393000,1.807392822265625,0.08305931091308594,-0.3641233444213867,0.13121938705444336
1772594444389656000,1.827656005859375,0.08080124855041504,-0.3562173843383789,0.12833070755004883
1772594444409920000,1.847919921875,0.07832980155944824,-0.34738731384277344,0.1251673698425293
1772594444430184000,1.868183837890625,0.07581138610839844,-0.33787059783935547,0.12177824974060059
1772594444450447000,1.888447021484375,0.07362937927246094,-0.3295154571533203,0.11883664131164551
1772594444470711000,1.9087109375,0.07169342041015625,-0.3221282958984375,0.11620664596557617
1772594444490975000,1.92897509765625,0.07045173645019531,-0.317840576171875,0.11465954780578613
1772594444511238000,1.94923779296875,0.06985306739807129,-0.31650733947753906,0.11414432525634766
1772594444531502000,1.969502197265625,0.06985616683959961,-0.3177814483642578,0.11456727981567383
1772594444551766000,1.98976611328125,0.06987404823303223,-0.31947898864746094,0.1152498722076416
1772594444572029000,2.01002880859375,0.07016777992248535,-0.3231630325317383,0.1165764331817627
1772594444592293000,2.030293212890625,0.07041788101196289,-0.3276052474975586,0.11811399459838867
1772594444612557000,2.05055712890625,0.070343017578125,-0.3316068649291992,0.11943864822387695
1772594444632820000,2.070820068359375,0.07036268711090088,-0.3369617462158203,0.1212303638458252
1772594444653084000,2.091083984375,0.06953668594360352,-0.33905601501464844,0.12197208404541016
1772594444673348000,2.11134814453125,0.06773841381072998,-0.3372993469238281,0.12147092819213867
1772594444693611000,2.131611083984375,0.06555235385894775,-0.33394432067871094,0.12059259414672852
1772594444713875000,2.151875,0.05840659141540527,-0.3177623748779297,0.11524701118469238
1772594444734139000,2.172138916015625,0.05156397819519043,-0.3012065887451172,0.10980510711669922
1772594444754403000,2.192403076171875,0.04524266719818115,-0.28531646728515625,0.10451769828796387
1772594444774666000,2.212666015625,0.03938126564025879,-0.2695474624633789,0.09922671318054199
1772594444794930000,2.232929931640625,0.034090280532836914,-0.25454139709472656,0.09418773651123047
1772594444815194000,2.253194091796875,0.029718518257141113,-0.2433338165283203,0.09055972099304199
1772594444835457000,2.27345703125,0.02580440044403076,-0.23367977142333984,0.08752632141113281
1772594444855721000,2.293720947265625,0.022575557231903076,-0.22838878631591797,0.08607029914855957
1772594444875985000,2.31398486328125,0.020086288452148438,-0.2285594940185547,0.08667182922363281
1772594444896248000,2.334248046875,0.017914950847625732,-0.23190593719482422,0.0884242057800293
1772594444916512000,2.354511962890625,0.01796424388885498,-0.24134063720703125,0.09247684478759766
1772594444936776000,2.37477587890625,0.017827153205871582,-0.2491607666015625,0.09595203399658203
1772594444957039000,2.3950390625,0.017463386058807373,-0.2535896301269531,0.09807753562927246
1772594444977303000,2.415302978515625,0.016843438148498535,-0.2526969909667969,0.09809756278991699
1772594444997567000,2.43556689453125,0.015990912914276123,-0.24644184112548828,0.09599089622497559
1772594445017830000,2.455829833984375,0.014779925346374512,-0.23369407653808594,0.09125709533691406
1772594445038094000,2.476093994140625,0.013361096382141113,-0.21684837341308594,0.08481597900390625
1772594445058358000,2.49635791015625,0.011797904968261719,-0.19696521759033203,0.07712292671203613
1772594445078621000,2.516620849609375,0.010088562965393066,-0.17497539520263672,0.06856608390808105
1772594445098885000,2.536885009765625,0.008313298225402832,-0.15141868591308594,0.059346914291381836
1772594445119149000,2.557149169921875,0.006666034460067749,-0.12894344329833984,0.05051827430725098
1772594445139412000,2.577411865234375,0.00441056489944458,-0.10882091522216797,0.042574167251586914
1772594445159676000,2.597676025390625,0.002881258726119995,-0.0969381332397461,0.03787493705749512
1772594445179940000,2.617940185546875,0.0018179118633270264,-0.09511756896972656,0.03713560104370117
1772594445200203000,2.638203125,0.0008739829063415527,-0.10194587707519531,0.039774417877197266
1772594445220467000,2.658467041015625,-0.00015738047659397125,-0.11509323120117188,0.044889211654663086
1772594445240731000,2.67873095703125,-0.0013525933027267456,-0.13205432891845703,0.05151224136352539
1772594445260994000,2.698994140625,-0.001632489264011383,-0.14861392974853516,0.05798006057739258
1772594445281258000,2.719258056640625,-0.0018602386116981506,-0.16300678253173828,0.06356954574584961
1772594445301522000,2.73952197265625,-0.001974664628505707,-0.17624187469482422,0.06869006156921387
1772594445321785000,2.75978515625,-0.001913309097290039,-0.18852806091308594,0.07344317436218262
1772594445342049000,2.780049072265625,-0.00017378944903612137,-0.19776439666748047,0.0770425796508789
1772594445362313000,2.80031298828125,0.0016572847962379456,-0.20648956298828125,0.0804297924041748
1772594445382576000,2.820576171875,0.0035779178142547607,-0.21363067626953125,0.0832056999206543
1772594445402840000,2.840840087890625,0.005527660250663757,-0.2191305160522461,0.08537888526916504
1772594445423104000,2.86110400390625,0.007523834705352783,-0.22572994232177734,0.08797240257263184
1772594445443367000,2.881366943359375,0.009453296661376953,-0.23173236846923828,0.0902547836303711
1772594445463631000,2.901631103515625,0.009664595127105713,-0.23738765716552734,0.09230613708496094
1772594445483895000,2.92189501953125,0.010104984045028687,-0.2442770004272461,0.09480166435241699
1772594445504158000,2.942157958984375,0.010589659214019775,-0.2519979476928711,0.0975797176361084
1772594445524422000,2.962421875,0.010950446128845215,-0.2574472427368164,0.09930968284606934
1772594445544686000,2.98268603515625,0.01128387451171875,-0.2621421813964844,0.10055947303771973
1772594445564949000,3.002948974609375,0.011542022228240967,-0.26435375213623047,0.10071611404418945
1772594445585213000,3.023212890625,0.011696279048919678,-0.26427459716796875,0.09986448287963867
1772594445605477000,3.04347705078125,0.011780649423599243,-0.2630805969238281,0.09849667549133301
1772594445625740000,3.063739990234375,0.011732101440429688,-0.2591257095336914,0.09606146812438965
1772594445646004000,3.08400390625,0.011696010828018188,-0.2556476593017578,0.09386587142944336
1772594445666268000,3.104267822265625,0.011638730764389038,-0.25131893157958984,0.09145116806030273
1772594445686531000,3.124531005859375,0.01152309775352478,-0.2485513687133789,0.08966875076293945
1772594445706795000,3.144794921875,0.011453330516815186,-0.24647903442382812,0.08818912506103516
1772594445727059000,3.165058837890625,0.011421382427215576,-0.24715518951416016,0.08781957626342773
1772594445747322000,3.185322021484375,0.011365741491317749,-0.2482919692993164,0.08775758743286133
1772594445767586000,3.2055859375,0.011318832635879517,-0.25005245208740234,0.08801913261413574
1772594445787850000,3.22585009765625,0.011344105005264282,-0.25403499603271484,0.08921670913696289
1772594445808113000,3.24611279296875,0.011451780796051025,-0.2593421936035156,0.09096288681030273
1772594445828377000,3.266377197265625,0.011461019515991211,-0.26201438903808594,0.09182238578796387
1772594445848641000,3.28664111328125,0.011429935693740845,-0.2630624771118164,0.09203672409057617
1772594445868904000,3.306904052734375,0.011293500661849976,-0.2633686065673828,0.09199810028076172
1772594445889168000,3.32716796875,0.011020809412002563,-0.2621316909790039,0.09135961532592773
1772594445909432000,3.34743212890625,0.010718196630477905,-0.2611513137817383,0.09079933166503906
1772594445929695000,3.367695068359375,0.010489821434020996,-0.25928401947021484,0.08990859985351562
1772594445949959000,3.387958984375,0.01018485426902771,-0.2567300796508789,0.08874011039733887
1772594445970223000,3.40822314453125,0.009866029024124146,-0.25477027893066406,0.08786821365356445
1772594445990486000,3.428486083984375,0.009473651647567749,-0.2517204284667969,0.08657360076904297
1772594446010750000,3.44875,0.008981376886367798,-0.24722957611083984,0.08475422859191895
1772594446031014000,3.469013916015625,0.008511543273925781,-0.2446146011352539,0.08360004425048828
1772594446051278000,3.489278076171875,0.008032500743865967,-0.24267864227294922,0.08276128768920898
1772594446071541000,3.509541015625,0.007518678903579712,-0.24016666412353516,0.08180856704711914
1772594446091805000,3.529804931640625,0.006970196962356567,-0.23459434509277344,0.07991313934326172
1772594446112069000,3.550069091796875,0.006338179111480713,-0.2258892059326172,0.07697081565856934
1772594446132332000,3.57033203125,0.005698040127754211,-0.216644287109375,0.0738980770111084
1772594446152596000,3.590595947265625,0.005204886198043823,-0.21004676818847656,0.07176947593688965
1772594446172860000,3.61085986328125,0.0048004090785980225,-0.20512008666992188,0.07016396522521973
1772594446193123000,3.631123046875,0.0044649094343185425,-0.20139217376708984,0.06897568702697754
1772594446213387000,3.651386962890625,0.004202157258987427,-0.1992788314819336,0.06841158866882324
1772594446233651000,3.67165087890625,0.0039863139390945435,-0.1988372802734375,0.0684506893157959
1772594446253914000,3.6919140625,0.0038016289472579956,-0.1995849609375,0.06889748573303223
1772594446274178000,3.712177978515625,0.003742426633834839,-0.20192623138427734,0.06985831260681152
1772594446294442000,3.73244189453125,0.0038492530584335327,-0.20792865753173828,0.07207798957824707
1772594446314705000,3.752704833984375,0.004096120595932007,-0.21684741973876953,0.07528495788574219
1772594446334969000,3.772968994140625,0.004398733377456665,-0.22587013244628906,0.07850766181945801
1772594446355233000,3.79323291015625,0.004758164286613464,-0.2336750030517578,0.08130788803100586
1772594446375496000,3.813495849609375,0.005130097270011902,-0.24006080627441406,0.08361363410949707
1772594446395760000,3.833760009765625,0.005479365587234497,-0.24594688415527344,0.08578062057495117
1772594446416024000,3.854024169921875,0.005878999829292297,-0.25194644927978516,0.08795022964477539
1772594446436287000,3.874286865234375,0.006336212158203125,-0.25757312774658203,0.09000539779663086
1772594446456551000,3.894551025390625,0.006791666150093079,-0.26149463653564453,0.09144997596740723
1772594446476815000,3.914815185546875,0.007222652435302734,-0.26534271240234375,0.09289121627807617
1772594446497078000,3.935078125,0.007616996765136719,-0.26874732971191406,0.09414386749267578
1772594446517342000,3.955342041015625,0.008022993803024292,-0.27277183532714844,0.09562158584594727
1772594446537606000,3.97560595703125,0.008455008268356323,-0.27771568298339844,0.09743976593017578
1772594446557869000,3.995869140625,0.008803039789199829,-0.28168201446533203,0.09889936447143555
1772594446578133000,4.016133056640625,0.009115159511566162,-0.2841033935546875,0.09981703758239746
1772594446598397000,4.03639697265625,0.009396553039550781,-0.2859640121459961,0.10049057006835938
1772594446618660000,4.05666015625,0.009571880102157593,-0.2865772247314453,0.10072064399719238
1772594446638924000,4.076924072265625,0.00981992483139038,-0.28785037994384766,0.10120391845703125
1772594446659188000,4.09718798828125,0.010109663009643555,-0.2904214859008789,0.10214996337890625
1772594446679451000,4.117450927734375,0.01032954454421997,-0.2937612533569336,0.1033482551574707
1772594446699715000,4.137715087890625,0.01037558913230896,-0.2961139678955078,0.10418987274169922
1772594446719979000,4.15797900390625,0.010277211666107178,-0.2974729537963867,0.10472893714904785
1772594446740242000,4.178241943359375,0.010072171688079834,-0.2981071472167969,0.10497474670410156
1772594446760506000,4.198506103515625,0.009778797626495361,-0.29761314392089844,0.10481786727905273
1772594446780770000,4.21877001953125,0.00950479507446289,-0.2987966537475586,0.10525369644165039
1772594446801033000,4.239032958984375,0.009271115064620972,-0.29998779296875,0.10571789741516113
1772594446821297000,4.259296875,0.009064257144927979,-0.30092716217041016,0.10610008239746094
1772594446841561000,4.27956103515625,0.008674085140228271,-0.3000621795654297,0.10582137107849121
1772594446861824000,4.299823974609375,0.00819629430770874,-0.2980203628540039,0.10513496398925781
1772594446882088000,4.320087890625,0.007766515016555786,-0.2949504852294922,0.1040334701538086
1772594446902352000,4.340351806640625,0.007422357797622681,-0.2931976318359375,0.10340309143066406
1772594446922615000,4.360614990234375,0.007110148668289185,-0.2913780212402344,0.10271763801574707
1772594446942879000,4.38087890625,0.006813079118728638,-0.2898073196411133,0.10216856002807617
1772594446963143000,4.401142822265625,0.0065927207469940186,-0.2901878356933594,0.10233807563781738
1772594446983406000,4.421406005859375,0.006360888481140137,-0.2895975112915039,0.10218310356140137
1772594447003670000,4.441669921875,0.0061037540435791016,-0.2883129119873047,0.10174250602722168
1772594447023934000,4.461933837890625,0.005904242396354675,-0.28684139251708984,0.10126471519470215
1772594447044197000,4.482197021484375,0.005772918462753296,-0.28600120544433594,0.10100555419921875
1772594447064461000,4.5024609375,0.005671769380569458,-0.2869405746459961,0.10137462615966797
1772594447084725000,4.52272509765625,0.005553439259529114,-0.28723907470703125,0.1015329360961914
1772594447104988000,4.54298779296875,0.005432680249214172,-0.28728485107421875,0.10160279273986816
1772594447125252000,4.563252197265625,0.005305439233779907,-0.2878847122192383,0.10187339782714844
1772594447145516000,4.58351611328125,0.0051856935024261475,-0.28792572021484375,0.10190105438232422
1772594447165779000,4.603779052734375,0.005077332258224487,-0.2873058319091797,0.10168695449829102
1772594447186043000,4.62404296875,0.0049352943897247314,-0.2867469787597656,0.10147929191589355
1772594447206307000,4.64430712890625,0.004822298884391785,-0.28656959533691406,0.10146641731262207
1772594447226570000,4.664570068359375,0.004676848649978638,-0.2867612838745117,0.10155105590820312
1772594447246834000,4.684833984375,0.004559800028800964,-0.28696537017822266,0.10159611701965332
1772594447267098000,4.70509814453125,0.004480436444282532,-0.28699588775634766,0.1016075611114502
1772594447287361000,4.725361083984375,0.0044422447681427,-0.2873086929321289,0.10173439979553223
1772594447307625000,4.745625,0.004401564598083496,-0.28667163848876953,0.1015169620513916
1772594447327889000,4.765888916015625,0.004357442259788513,-0.2857704162597656,0.10121011734008789
1772594447348153000,4.786153076171875,0.004309713840484619,-0.2845792770385742,0.10080933570861816
1772594447368416000,4.806416015625,0.004267871379852295,-0.28294849395751953,0.10022187232971191
1772594447388680000,4.826679931640625,0.004250630736351013,-0.28215694427490234,0.09994316101074219
1772594447408944000,4.846944091796875,0.004262953996658325,-0.2818336486816406,0.09979844093322754
1772594447429207000,4.86720703125,0.004264280200004578,-0.28150081634521484,0.0996544361114502
1772594447449471000,4.887470947265625,0.004203394055366516,-0.28144359588623047,0.09966158866882324
1772594447469735000,4.90773486328125,0.004128932952880859,-0.2818460464477539,0.09980511665344238
1772594447489998000,4.927998046875,0.0040289610624313354,-0.2829275131225586,0.1002051830291748
1772594447510262000,4.948261962890625,0.003961294889450073,-0.2845602035522461,0.10083556175231934
1772594447530526000,4.96852587890625,0.003935754299163818,-0.2857332229614258,0.1012883186340332
1772594447550789000,4.9887890625,0.003971099853515625,-0.2868528366088867,0.10173559188842773
1772594447571053000,5.009052978515625,0.003970935940742493,-0.28798866271972656,0.1022188663482666
1772594447591317000,5.02931689453125,0.003962516784667969,-0.28773021697998047,0.10218262672424316
1772594447611580000,5.049579833984375,0.003953233361244202,-0.28658008575439453,0.10180163383483887
1772594447631844000,5.069843994140625,0.003939241170883179,-0.2860546112060547,0.10166811943054199
1772594447652108000,5.09010791015625,0.003947168588638306,-0.2866401672363281,0.10191202163696289
1772594447672371000,5.110370849609375,0.003968402743339539,-0.2869148254394531,0.10202574729919434
1772594447692635000,5.130634765625,0.003984540700912476,-0.2862110137939453,0.1017765998840332
1772594447712899000,5.150899169921875,0.00403517484664917,-0.28649044036865234,0.1018824577331543
1772594447733162000,5.171161865234375,0.00404810905456543,-0.2867565155029297,0.10198664665222168
1772594447753426000,5.191426025390625,0.004052773118019104,-0.28801631927490234,0.10239672660827637
1772594447773690000,5.211690185546875,0.0040674954652786255,-0.29050731658935547,0.10321760177612305
1772594447793953000,5.231953125,0.004093796014785767,-0.29486656188964844,0.10472273826599121
1772594447814217000,5.252217041015625,0.004093095660209656,-0.2994546890258789,0.10631632804870605
1772594447834481000,5.27248095703125,0.004127576947212219,-0.3040599822998047,0.10791182518005371
1772594447854744000,5.292744140625,0.004154756665229797,-0.3078584671020508,0.1091926097869873
1772594447875008000,5.313008056640625,0.004169374704360962,-0.31060218811035156,0.11015653610229492
1772594447895272000,5.33327197265625,0.004167228937149048,-0.31410980224609375,0.11139678955078125
1772594447915535000,5.35353515625,0.00409148633480072,-0.31583690643310547,0.11198973655700684
1772594447935799000,5.373799072265625,0.004019536077976227,-0.3172416687011719,0.11248159408569336
1772594447956063000,5.39406298828125,0.003948196768760681,-0.31818389892578125,0.11273193359375
1772594447976326000,5.414325927734375,0.0038803592324256897,-0.3177986145019531,0.11241674423217773
1772594447996590000,5.434590087890625,0.0038016662001609802,-0.3154592514038086,0.11130428314208984
1772594448016854000,5.45485400390625,0.003734804689884186,-0.3115825653076172,0.10958337783813477
1772594448037117000,5.475116943359375,0.0036679133772850037,-0.30832767486572266,0.1080632209777832
1772594448057381000,5.495381103515625,0.003665708005428314,-0.3050556182861328,0.10660719871520996
1772594448077645000,5.51564501953125,0.0036791935563087463,-0.30181884765625,0.10518622398376465
1772594448097908000,5.535907958984375,0.003707967698574066,-0.29815196990966797,0.10362601280212402
1772594448118172000,5.556171875,0.0037937909364700317,-0.2960491180419922,0.10258841514587402
1772594448138436000,5.57643603515625,0.003864794969558716,-0.29418468475341797,0.10167479515075684
1772594448158699000,5.596698974609375,0.003915846347808838,-0.29186344146728516,0.10075545310974121
1772594448178963000,5.616962890625,0.00398823618888855,-0.2902536392211914,0.10018420219421387
1772594448199227000,5.637226806640625,0.0041010379791259766,-0.2899484634399414,0.10016703605651855
1772594448219490000,5.657489990234375,0.004234984517097473,-0.29151058197021484,0.10092401504516602
1772594448239754000,5.67775390625,0.004318699240684509,-0.2917661666870117,0.10123205184936523
1772594448260018000,5.698017822265625,0.004365712404251099,-0.2934436798095703,0.10203433036804199
1772594448300545000,5.738544921875,0.004314810037612915,-0.29836559295654297,0.10438704490661621
1772594448320809000,5.75880908203125,0.004217416048049927,-0.30111122131347656,0.10578012466430664
1772594448341072000,5.77907177734375,0.0041525959968566895,-0.3043813705444336,0.10738062858581543
1772594448361336000,5.799336181640625,0.004112645983695984,-0.3084859848022461,0.10927677154541016
1772594448381600000,5.81960009765625,0.0040681809186935425,-0.31145381927490234,0.1107947826385498
1772594448401863000,5.83986279296875,0.003952965140342712,-0.31180667877197266,0.11132955551147461
1772594448422127000,5.860127197265625,0.0037798434495925903,-0.3084077835083008,0.11049509048461914
1772594448442391000,5.88039111328125,0.0036785826086997986,-0.30364036560058594,0.10913968086242676
1772594448462654000,5.900654052734375,0.0036688074469566345,-0.2967967987060547,0.10696935653686523
1772594448482918000,5.92091796875,0.003734014928340912,-0.2901268005371094,0.10476970672607422
1772594448503182000,5.94118212890625,0.0038082152605056763,-0.28289222717285156,0.10226202011108398
1772594448523445000,5.961445068359375,0.003862619400024414,-0.2753124237060547,0.09952902793884277
1772594448543709000,5.981708984375,0.003911226987838745,-0.26825428009033203,0.09687376022338867
1772594448563973000,6.00197314453125,0.003914952278137207,-0.26090049743652344,0.09408736228942871
1772594448584236000,6.022236083984375,0.0038885772228240967,-0.2531728744506836,0.09109115600585938
1772594448604500000,6.0425,0.003871530294418335,-0.2459268569946289,0.08821320533752441
1772594448624764000,6.062763916015625,0.003870546817779541,-0.24002552032470703,0.08585691452026367
1772594448645028000,6.083028076171875,0.003820180892944336,-0.23400306701660156,0.08349871635437012
1772594448665291000,6.103291015625,0.003674611449241638,-0.22772598266601562,0.08110713958740234
1772594448685555000,6.123554931640625,0.0034959614276885986,-0.22226619720458984,0.07898473739624023
1772594448705819000,6.14381884765625,0.003348410129547119,-0.21825790405273438,0.07740592956542969
1772594448726082000,6.16408203125,0.003230482339859009,-0.21540260314941406,0.07627725601196289
1772594448746346000,6.184345947265625,0.0031887292861938477,-0.21192359924316406,0.07497644424438477
1772594448766610000,6.20460986328125,0.0031806528568267822,-0.20949649810791016,0.07405447959899902
1772594448786873000,6.224873046875,0.0032904744148254395,-0.21142101287841797,0.07471084594726562
1772594448807137000,6.245136962890625,0.003474682569503784,-0.21756935119628906,0.07682919502258301
1772594448827401000,6.26540087890625,0.0037048310041427612,-0.2280712127685547,0.08038640022277832
1772594448847664000,6.2856640625,0.0039949119091033936,-0.2416362762451172,0.0849008560180664
1772594448867928000,6.305927978515625,0.0043050795793533325,-0.2552366256713867,0.08931612968444824
1772594448888192000,6.32619189453125,0.004551395773887634,-0.26550865173339844,0.0924062728881836
1772594448908455000,6.346454833984375,0.004763245582580566,-0.2719745635986328,0.09398818016052246
1772594448928719000,6.366718994140625,0.004957437515258789,-0.2765979766845703,0.0948641300201416
1772594448948983000,6.386983154296875,0.004994124174118042,-0.2797203063964844,0.09520196914672852
1772594448969246000,6.407245849609375,0.005015864968299866,-0.2815580368041992,0.09507012367248535
1772594448989510000,6.427510009765625,0.00492645800113678,-0.2798652648925781,0.09374713897705078
1772594449009774000,6.447774169921875,0.004758864641189575,-0.27318668365478516,0.0909280776977539
1772594449030037000,6.468037109375,0.004577308893203735,-0.2645530700683594,0.08751058578491211
1772594449050301000,6.488301025390625,0.004366070032119751,-0.2541055679321289,0.08364248275756836
1772594449070565000,6.508565185546875,0.004153534770011902,-0.24493789672851562,0.08026885986328125
1772594449090828000,6.528828125,0.003944680094718933,-0.2350921630859375,0.07684469223022461
1772594449111092000,6.549092041015625,0.00376737117767334,-0.22687911987304688,0.0740668773651123
1772594449131356000,6.56935595703125,0.0035695135593414307,-0.21917438507080078,0.07146286964416504
1772594449151619000,6.589619140625,0.003498077392578125,-0.21389484405517578,0.06971859931945801
1772594449171883000,6.609883056640625,0.003445759415626526,-0.20966720581054688,0.06829118728637695
1772594449192147000,6.63014697265625,0.003381475806236267,-0.20642757415771484,0.06720137596130371
1772594449212410000,6.65041015625,0.0033303648233413696,-0.2052316665649414,0.06675434112548828
1772594449232674000,6.670674072265625,0.0032893121242523193,-0.20462799072265625,0.06659984588623047
1772594449252938000,6.69093798828125,0.0032580047845840454,-0.2049856185913086,0.06672525405883789
1772594449273201000,6.711200927734375,0.003263816237449646,-0.20523929595947266,0.06683015823364258
1772594449293465000,6.731465087890625,0.003356844186782837,-0.20810413360595703,0.06778597831726074
1772594449313729000,6.75172900390625,0.003552645444869995,-0.2116689682006836,0.0690300464630127
1772594449333992000,6.771991943359375,0.003869473934173584,-0.21569442749023438,0.07049798965454102
1772594449354256000,6.792255859375,0.0041821300983428955,-0.2196187973022461,0.07195711135864258
1772594449374520000,6.81252001953125,0.004549786448478699,-0.22427749633789062,0.07380104064941406
1772594449394783000,6.832782958984375,0.005010202527046204,-0.23016357421875,0.07615971565246582
1772594449415047000,6.853046875,0.0055219680070877075,-0.23629093170166016,0.07871890068054199
1772594449435311000,6.87331103515625,0.006094411015510559,-0.24329566955566406,0.08160948753356934
1772594449455574000,6.893573974609375,0.006754159927368164,-0.2517099380493164,0.08510303497314453
1772594449475838000,6.913837890625,0.0074592530727386475,-0.2596263885498047,0.08855056762695312
1772594449496102000,6.934101806640625,0.008184254169464111,-0.2681264877319336,0.09232068061828613
1772594449516365000,6.954364990234375,0.00891345739364624,-0.2781953811645508,0.09671497344970703
1772594449536629000,6.97462890625,0.009623348712921143,-0.2880210876464844,0.10108423233032227
1772594449556893000,6.994892822265625,0.01025417447090149,-0.2958259582519531,0.10470199584960938
1772594449577156000,7.015156005859375,0.010713815689086914,-0.3006410598754883,0.1071319580078125
1772594449597420000,7.035419921875,0.011012077331542969,-0.303497314453125,0.10868120193481445
1772594449617684000,7.05568408203125,0.011194080114364624,-0.30489444732666016,0.10946416854858398
1772594449637947000,7.07594677734375,0.011238187551498413,-0.3043479919433594,0.10936522483825684
1772594449658211000,7.096211181640625,0.011009901762008667,-0.29937171936035156,0.10740160942077637
1772594449678475000,7.11647509765625,0.009647369384765625,-0.26780128479003906,0.09354066848754883
1772594449698738000,7.136738037109375,0.008295536041259766,-0.2375030517578125,0.08064937591552734
1772594449719002000,7.157002197265625,0.007029920816421509,-0.20885848999023438,0.06896471977233887
1772594449739266000,7.17726611328125,0.005858391523361206,-0.18266010284423828,0.05870199203491211
1772594449759529000,7.197529052734375,0.005482196807861328,-0.18136024475097656,0.05831432342529297
1772594449779793000,7.21779296875,0.005264103412628174,-0.18560791015625,0.05975985527038574
1772594449800057000,7.23805712890625,0.005238085985183716,-0.1961650848388672,0.06329584121704102
1772594449820320000,7.258320068359375,0.005289599299430847,-0.2077045440673828,0.0672917366027832
1772594449840584000,7.278583984375,0.005310609936714172,-0.21893787384033203,0.0712594985961914
1772594449860848000,7.29884814453125,0.005463272333145142,-0.23521804809570312,0.07703733444213867
1772594449881111000,7.319111083984375,0.006229370832443237,-0.27618885040283203,0.09344220161437988
1772594449901375000,7.339375,0.0033164024353027344,-0.24044418334960938,0.08451104164123535
1772594449921639000,7.359638916015625,0.0011326298117637634,-0.2073802947998047,0.07548284530639648
1772594449941903000,7.379903076171875,-0.0004482325166463852,-0.17749691009521484,0.06671953201293945
1772594449962166000,7.400166015625,-0.0012701600790023804,-0.12571144104003906,0.04766440391540527
1772594449982430000,7.420429931640625,-0.0013041943311691284,-0.07519340515136719,0.0287783145904541
1772594450002694000,7.44069384765625,-0.0005364865064620972,-0.02191448211669922,0.00847482681274414
1772594450022957000,7.46095703125,0.0034960806369781494,0.10908889770507812,-0.04299449920654297
1772594450043221000,7.481220947265625,0.00942462682723999,0.24076557159423828,-0.09662628173828125
1772594450063485000,7.50148486328125,0.013412564992904663,0.2938041687011719,-0.11901593208312988
1772594450083748000,7.521748046875,0.017710596323013306,0.34128379821777344,-0.13951992988586426
1772594450104012000,7.542011962890625,0.011970818042755127,0.250396728515625,-0.10164403915405273
1772594450124276000,7.56227587890625,0.0027264952659606934,0.06210803985595703,-0.02480030059814453
1772594450144539000,7.582538818359375,-0.005085349082946777,-0.12393951416015625,0.04874610900878906
1772594450164803000,7.602802978515625,-0.006868839263916016,-0.17455196380615234,0.06860113143920898
1772594450185067000,7.62306689453125,-0.004733741283416748,-0.1233978271484375,0.04894852638244629
1772594450205330000,7.643329833984375,-0.0027501583099365234,-0.07268047332763672,0.02911233901977539
1772594450225594000,7.663593994140625,-0.003788679838180542,-0.10231494903564453,0.041078805923461914
1772594450245858000,7.683858154296875,-0.0050051212310791016,-0.13796043395996094,0.05560135841369629
1772594450266121000,7.704120849609375,-0.003421485424041748,-0.09560585021972656,0.03894543647766113
1772594450286385000,7.724385009765625,-0.001823127269744873,-0.052448272705078125,0.021544456481933594
1772594450306649000,7.744649169921875,0.0018783807754516602,0.05612659454345703,-0.02346205711364746
1772594450326912000,7.764912109375,0.00571674108505249,0.1817474365234375,-0.0774240493774414
1772594450347176000,7.785176025390625,0.0067720115184783936,0.23852157592773438,-0.1027681827545166
1772594450367440000,7.80543994140625,0.0029676854610443115,0.12029838562011719,-0.05298471450805664
1772594450387703000,7.825703125,-0.00382387638092041,-0.18687725067138672,0.08432531356811523
1772594450407967000,7.845967041015625,-0.00822855532169342,-0.5219249725341797,0.2445087432861328
1772594450428231000,7.86623095703125,-0.0018129106611013412,-0.9122533798217773,0.4388260841369629
1772594450448494000,7.886494140625,0.014223650097846985,-1.299239158630371,0.6402649879455566
1772594450468758000,7.906758056640625,0.038912445306777954,-1.680253028869629,0.8482351303100586
1772594450489022000,7.92702197265625,0.08453664183616638,-2.0558977127075195,1.062570571899414
1772594450509285000,7.94728515625,0.13966107368469238,-2.4245529174804688,1.279029369354248
1772594450529549000,7.967549072265625,0.19618767499923706,-2.680966377258301,1.4316482543945312
1772594450549813000,7.98781298828125,0.24925446510314941,-2.795708656311035,1.5287675857543945
1772594450570076000,8.008075927734374,0.2980712652206421,-2.8348073959350586,1.537379264831543
1772594450590340000,8.028340087890625,0.33438754081726074,-2.719593048095703,1.4588723182678223
1772594450610604000,8.04860400390625,0.38094985485076904,-2.557583808898926,1.3241281509399414
1772594450630867000,8.068866943359374,0.4212977886199951,-2.2880678176879883,1.1566848754882812
1772594450651131000,8.089130859375,0.46588850021362305,-2.009593963623047,1.031240463256836
1772594450671395000,8.10939501953125,0.5074329376220703,-1.7235174179077148,0.9260964393615723
1772594450691658000,8.129657958984374,0.545548677444458,-1.4976463317871094,0.8580193519592285
1772594450711922000,8.149921875,0.5560526847839355,-1.2448344230651855,0.7715864181518555
1772594450732186000,8.17018603515625,0.5799643993377686,-1.0715770721435547,0.7327871322631836
1772594450752449000,8.190448974609374,0.6206026077270508,-0.9559683799743652,0.7227458953857422
1772594450772713000,8.210712890625,0.6771926879882812,-0.875516414642334,0.7326846122741699
1772594450792977000,8.230976806640625,0.7554969787597656,-0.8327374458312988,0.756655216217041
1772594450813240000,8.251239990234374,0.8186798095703125,-0.782193660736084,0.7750735282897949
1772594450833504000,8.27150390625,0.8439350128173828,-0.7230539321899414,0.7749519348144531
1772594450853768000,8.291767822265625,0.7771821022033691,-0.6138491630554199,0.6753730773925781
1772594450874031000,8.312031005859374,0.6074390411376953,-0.44879722595214844,0.48976612091064453
1772594450894295000,8.332294921875,0.33092355728149414,-0.23095035552978516,0.2416677474975586
1772594450914559000,8.35255908203125,0.0720510482788086,-0.048309326171875,0.04706430435180664
1772594450934822000,8.37282177734375,-0.1975421905517578,0.1271657943725586,-0.11370420455932617
1772594450955086000,8.393086181640625,-0.47769975662231445,0.2944602966308594,-0.23808050155639648
1772594450975350000,8.41335009765625,-0.8155422210693359,0.4747347831726074,-0.35973048210144043
1772594450995613000,8.433613037109374,-1.226330280303955,0.660275936126709,-0.4891037940979004
1772594451015877000,8.453877197265625,-1.3836798667907715,0.6726799011230469,-0.591353178024292
1772594451036141000,8.47414111328125,-1.454813003540039,0.6190180778503418,-0.6550490856170654
1772594451056404000,8.494404052734374,-1.4597845077514648,0.5334129333496094,-0.7055943012237549
1772594451076668000,8.51466796875,-1.3540663719177246,0.4218759536743164,-0.6819620132446289
1772594451096932000,8.53493212890625,-1.1685152053833008,0.2998555898666382,-0.6042115688323975
1772594451117195000,8.555195068359374,-0.938835620880127,0.19123578071594238,-0.48368215560913086
1772594451137459000,8.575458984375,-0.6810741424560547,0.10592079162597656,-0.3496990203857422
1772594451157723000,8.595722900390625,-0.3896446228027344,0.046994149684906006,-0.19932985305786133
1772594451177986000,8.615986083984374,-0.020229339599609375,0.001845240592956543,-0.010233402252197266
1772594451198250000,8.63625,0.36524486541748047,-0.027645528316497803,0.18308258056640625
1772594451218514000,8.656513916015625,0.4901924133300781,-0.029834628105163574,0.22258520126342773
1772594451238778000,8.676778076171875,0.5420408248901367,-0.021383941173553467,0.2246088981628418
1772594451259041000,8.697041015625,0.6001176834106445,-0.011158019304275513,0.22642946243286133
1772594451279305000,8.717304931640625,0.5989141464233398,0.0008999519050121307,0.2135605812072754
1772594451299569000,8.73756884765625,0.48402881622314453,0.014385759830474854,0.1695387363433838
1772594451319832000,8.75783203125,0.3278236389160156,0.019457519054412842,0.11635136604309082
1772594451340096000,8.778095947265625,0.17309284210205078,0.01570683717727661,0.06241297721862793
1772594451360360000,8.79835986328125,0.03304290771484375,0.004344463348388672,0.012130022048950195
1772594451380623000,8.818623046875,-0.09738826751708984,-0.01615273952484131,-0.03643608093261719
1772594451400887000,8.838886962890625,-0.14700698852539062,-0.0294036865234375,-0.055609703063964844
1772594451421151000,8.85915087890625,-0.17879199981689453,-0.04200029373168945,-0.06840181350708008
1772594451441414000,8.879413818359374,-0.19734477996826172,-0.05314779281616211,-0.07641315460205078
1772594451461678000,8.899677978515625,-0.20296096801757812,-0.06166219711303711,-0.07960104942321777
1772594451481942000,8.91994189453125,-0.19367027282714844,-0.06542634963989258,-0.0769815444946289
1772594451502205000,8.940204833984374,-0.14400005340576172,-0.05173993110656738,-0.05763101577758789
1772594451522469000,8.96046923828125,-0.0939645767211914,-0.035739898681640625,-0.037928104400634766
1772594451542733000,8.980733154296875,-0.04267311096191406,-0.017087936401367188,-0.017385244369506836
1772594451562996000,9.000995849609374,-0.011766433715820312,-0.00484156608581543,-0.00484013557434082
1772594451583260000,9.021260009765625,0.02164936065673828,0.00914907455444336,0.00897979736328125
1772594451603524000,9.041524169921875,0.055375099182128906,0.023988723754882812,0.02313852310180664
1772594451623787000,9.061787109375,0.08541488647460938,0.03783822059631348,0.035915374755859375
1772594451644051000,9.082051025390625,0.08842182159423828,0.03925180435180664,0.03738284111022949
1772594451664315000,9.10231494140625,0.08971023559570312,0.03995323181152344,0.03808736801147461
1772594451684578000,9.122578125,0.08882522583007812,0.03974413871765137,0.037827253341674805
1772594451704842000,9.142842041015625,0.09135055541992188,0.041089534759521484,0.03893423080444336
1772594451725106000,9.16310595703125,0.0983419418334961,0.04446601867675781,0.04182147979736328
1772594451745369000,9.183369140625,0.10668373107910156,0.04855680465698242,0.04521584510803223
1772594451765633000,9.203633056640625,0.11298465728759766,0.05184364318847656,0.04769468307495117
1772594451785897000,9.22389697265625,0.11851692199707031,0.054889678955078125,0.04983663558959961
1772594451806160000,9.244159912109374,0.12318897247314453,0.05760955810546875,0.05159568786621094
1772594451826424000,9.264424072265625,0.12809371948242188,0.06046772003173828,0.05343151092529297
1772594451846688000,9.28468798828125,0.13312053680419922,0.06341743469238281,0.0552978515625
1772594451866951000,9.304950927734374,0.13781070709228516,0.06618452072143555,0.05704617500305176
1772594451887215000,9.325215087890625,0.1410379409790039,0.06823444366455078,0.05822634696960449
1772594451907479000,9.34547900390625,0.14141559600830078,0.06891822814941406,0.058263540267944336
1772594451927742000,9.365741943359374,0.13901042938232422,0.0682826042175293,0.0571894645690918
1772594451948006000,9.386005859375,0.13692665100097656,0.06775951385498047,0.05617952346801758
1772594451968270000,9.40627001953125,0.11491203308105469,0.057247161865234375,0.04594707489013672
1772594451988533000,9.426532958984374,0.09240055084228516,0.046294212341308594,0.03596305847167969
1772594452008797000,9.446796875,0.07332897186279297,0.03691291809082031,0.027730941772460938
1772594452029061000,9.46706103515625,0.05914878845214844,0.029909610748291016,0.021656036376953125
1772594452049324000,9.487323974609374,0.048442840576171875,0.02459239959716797,0.01711297035217285
1772594452069588000,9.507587890625,0.020880699157714844,0.010637283325195312,0.006911277770996094
1772594452089852000,9.527851806640625,-0.0012445449829101562,-0.0006365776062011719,-0.0003840923309326172
1772594452110115000,9.548114990234374,-0.018405914306640625,-0.00943899154663086,-0.005270481109619141
1772594452130379000,9.56837890625,-0.031658172607421875,-0.016298770904541016,-0.008347034454345703
1772594452150643000,9.588642822265625,-0.07918643951416016,-0.04212236404418945,-0.01928234100341797
1772594452170906000,9.608906005859374,-0.11187171936035156,-0.06144142150878906,-0.02595829963684082
