time,seconds_elapsed,z,y,x
1772594442950936000,0.38893603515625,6.359897613525391,-6.223428249359131,4.083011627197266
1772594442971199000,0.409198974609375,6.30094051361084,-6.194697856903076,4.05009126663208
1772594442991463000,0.429462890625,6.288670063018799,-6.158185958862305,4.010287761688232
1772594443011727000,0.44972705078125,5.524919509887695,-6.13753604888916,4.010287761688232
1772594443031990000,0.469989990234375,5.468057632446289,-6.107907772064209,4.03273344039917
1772594443052254000,0.49025390625,5.408202171325684,-6.12137508392334,4.083311080932617
1772594443072518000,0.510517822265625,5.347748756408691,-6.195296287536621,4.1285014152526855
1772594443092781000,0.530781005859375,5.273828029632568,-6.997952461242676,4.144063949584961
1772594443113045000,0.551044921875,4.488529682159424,-6.98508358001709,4.129698753356934
1772594443133309000,0.571308837890625,4.468478202819824,-6.97700309753418,4.088398456573486
1772594443153572000,0.591572021484375,4.3954548835754395,-6.963236331939697,4.019864559173584
1772594443173836000,0.6118359375,3.5137903690338135,-6.929418087005615,3.1256303787231445
1772594443194100000,0.632099853515625,2.715623378753662,-6.06660795211792,2.2777836322784424
1772594443214363000,0.65236279296875,2.6925790309906006,-5.302558422088623,2.2649147510528564
1772594443234627000,0.672626953125,0.14814123511314392,-5.327996730804443,2.3127987384796143
1772594443254891000,0.69289111328125,0.07511807978153229,-6.348824501037598,3.1417911052703857
1772594443275154000,0.71315380859375,1.004068374633789,-9.394548416137695,3.973177671432495
1772594443295418000,0.733418212890625,0.9678560495376587,-13.185168266296387,4.975749492645264
1772594443315682000,0.75368212890625,0.9322422742843628,-14.258368492126465,5.878663063049316
1772594443335945000,0.773945068359375,0.9133879542350769,-13.459603309631348,5.843348503112793
1772594443356209000,0.794208984375,0.884058952331543,-12.587814331054688,4.905419826507568
1772594443376473000,0.81447314453125,0.8631097078323364,-11.716026306152344,4.050690174102783
1772594443396736000,0.834736083984375,0.8699930310249329,-11.634623527526855,4.0435075759887695
1772594443417000000,0.855,0.8711901307106018,-10.61768627166748,4.039616584777832
1772594443437264000,0.875263916015625,0.8765770792961121,-10.552742958068848,4.038120269775391
1772594443457528000,0.895528076171875,0.8807669281959534,-9.470863342285156,3.971980571746826
1772594443477791000,0.915791015625,0.8508394360542297,-8.743025779724121,3.069965124130249
1772594443498055000,0.936054931640625,0.8670002818107605,-8.712499618530273,3.0382418632507324
1772594443518319000,0.956319091796875,0.8921394348144531,-8.759486198425293,3.09151291847229
1772594443538582000,0.97658203125,0.8990227580070496,-8.825626373291016,3.153762102127075
1772594443558846000,0.996845947265625,0.9017162322998047,-9.567529678344727,4.039916038513184
1772594443579110000,1.01710986328125,0.9130886793136597,-9.614814758300781,4.055179119110107
1772594443599373000,1.037373046875,0.9349357485771179,-9.641749382019043,4.064755916595459
1772594443619637000,1.057636962890625,0.9313444495201111,-9.659706115722656,4.055777549743652
1772594443639901000,1.07790087890625,0.9280524253845215,-9.672574996948242,4.026149272918701
1772594443660164000,1.0981640625,0.9232640266418457,-9.662399291992188,3.9794623851776123
1772594443680428000,1.118427978515625,0.9199720025062561,-9.654019355773926,3.9154176712036133
1772594443700692000,1.13869189453125,0.9301473498344421,-9.642647743225098,3.8726212978363037
1772594443720955000,1.158954833984375,0.9118915796279907,-9.631574630737305,3.81994891166687
1772594443741219000,1.179218994140625,0.8858546018600464,-9.631574630737305,3.7714662551879883
1772594443761483000,1.19948291015625,0.8993220329284668,-9.619902610778809,3.720290184020996
1772594443781746000,1.219745849609375,0.9062053561210632,-9.60763168334961,3.6589386463165283
1772594443802010000,1.240010009765625,0.9100959300994873,-9.574711799621582,3.5969886779785156
1772594443822274000,1.260274169921875,0.9193734526634216,-9.549572944641113,3.5428199768066406
1772594443842537000,1.280536865234375,0.9382277727127075,-9.51665210723877,3.4781765937805176
1772594443862801000,1.30080078125,0.9501988291740417,-9.4915132522583,2.702155828475952
1772594443883065000,1.321065185546875,0.9585785269737244,-9.466374397277832,2.7030537128448486
1772594443903328000,1.341327880859375,0.9705495238304138,-9.468469619750977,2.702754497528076
1772594443923592000,1.361592041015625,0.9938929677009583,-9.49001693725586,2.7060465812683105
1772594443943856000,1.381856201171875,1.0121487379074097,-9.511863708496094,2.718017578125
1772594443964119000,1.402119140625,1.05105459690094,-9.531017303466797,2.7521347999572754
1772594443984383000,1.422383056640625,1.1195886135101318,-9.520243644714355,2.7910406589508057
1772594444004647000,1.44264697265625,1.183034896850586,-9.510966300964355,2.8347349166870117
1772594444024910000,1.46291015625,1.248276948928833,-9.510666847229004,2.891597032546997
1772594444045174000,1.483174072265625,2.046743154525757,-9.493907928466797,2.9418752193450928
1772594444065438000,1.50343798828125,2.0464439392089844,-9.473855972290039,2.987365245819092
1772594444085701000,1.523701171875,2.0404584407806396,-9.459490776062012,3.0295629501342773
1772594444105965000,1.543965087890625,2.044947624206543,-9.450512886047363,3.066373825073242
1772594444126229000,1.56422900390625,2.051830768585205,-9.435249328613281,3.0992941856384277
1772594444146492000,1.584491943359375,2.0497360229492188,-9.427168846130371,3.0900166034698486
1772594444166756000,1.604756103515625,2.0655975341796875,-9.455899238586426,3.0885202884674072
1772594444187020000,1.62502001953125,2.076371431350708,-9.461286544799805,3.0882208347320557
1772594444207283000,1.645282958984375,2.083254814147949,-9.47535228729248,3.0795419216156006
1772594444227547000,1.665546875,2.061108350753784,-9.478644371032715,3.0855274200439453
1772594444247811000,1.68581103515625,2.0410568714141846,-9.49271011352539,3.0771477222442627
1772594444268074000,1.706073974609375,2.023998260498047,-9.502885818481445,3.076249837875366
1772594444288338000,1.726337890625,2.0042459964752197,-9.478344917297363,3.0720601081848145
1772594444308602000,1.74660205078125,1.9946693181991577,-9.45560073852539,3.063081741333008
1772594444328865000,1.766864990234375,1.9749171733856201,-9.437344551086426,3.057694911956787
1772594444349129000,1.78712890625,1.9665374755859375,-9.426870346069336,3.050811529159546
1772594444369393000,1.807392822265625,1.9518729448318481,-9.408614158630371,3.056497812271118
1772594444389656000,1.827656005859375,1.9446903467178345,-9.407417297363281,3.0585925579071045
1772594444409920000,1.847919921875,1.941697597503662,-9.408913612365723,3.060089111328125
1772594444430184000,1.868183837890625,1.9402011632919312,-9.39903736114502,3.068169593811035
1772594444450447000,1.888447021484375,1.9375077486038208,-9.419387817382812,3.070563793182373
1772594444470711000,1.9087109375,1.9270330667495728,-9.441534042358398,3.063680410385132
1772594444490975000,1.92897509765625,1.9138649702072144,-9.450812339782715,3.0621838569641113
1772594444511238000,1.94923779296875,1.9063831567764282,-9.461585998535156,3.0550012588500977
1772594444531502000,1.969502197265625,1.899499773979187,-9.468170166015625,3.057694911956787
1772594444551766000,1.98976611328125,1.8692729473114014,-9.456198692321777,3.0819361209869385
1772594444572029000,2.01002880859375,1.8177976608276367,-9.472060203552246,3.0789434909820557
1772594444592293000,2.030293212890625,1.7591396570205688,-9.493309020996094,3.071162223815918
1772594444612557000,2.05055712890625,1.6977882385253906,-9.505280494689941,3.061286211013794
1772594444632820000,2.070820068359375,1.6546926498413086,-9.517550468444824,3.0726585388183594
1772594444653084000,2.091083984375,1.604414463043213,-9.5007905960083,3.096301317214966
1772594444673348000,2.11134814453125,1.534683346748352,-9.479841232299805,3.113659381866455
1772594444693611000,2.131611083984375,1.490091323852539,-9.459490776062012,3.157952070236206
1772594444713875000,2.151875,0.7284358739852905,-9.440037727355957,3.194762945175171
1772594444734139000,2.172138916015625,0.7068880796432495,-9.42447566986084,3.2172086238861084
1772594444754403000,2.192403076171875,0.6766612529754639,-9.409811019897461,3.231274366378784
1772594444774666000,2.212666015625,0.6386532783508301,-9.411606788635254,3.226186752319336
1772594444794930000,2.232929931640625,0.6078279614448547,-9.42208194732666,3.223792552947998
1772594444815194000,2.253194091796875,0.5847837924957275,-9.450213432312012,3.240252733230591
1772594444835457000,2.27345703125,0.5518634915351868,-9.45799446105957,3.2746694087982178
1772594444855721000,2.293720947265625,0.5186439156532288,-9.47535228729248,3.3028011322021484
1772594444875985000,2.31398486328125,0.5090671181678772,-9.49271011352539,3.338115692138672
1772594444896248000,2.334248046875,0.497395396232605,-9.499593734741211,3.3686418533325195
1772594444916512000,2.354511962890625,0.4692635238170624,-9.494206428527832,3.392284631729126
1772594444936776000,2.37477587890625,0.4387374520301819,-9.460987091064453,3.4111387729644775
1772594444957039000,2.3950390625,0.4255693554878235,-9.418190956115723,3.3901896476745605
1772594444977303000,2.415302978515625,0.42856210470199585,-9.370306968688965,3.3452982902526855
1772594444997567000,2.43556689453125,0.4357447028160095,-9.328707695007324,3.3096845149993896
1772594445017830000,2.455829833984375,0.4213795065879822,-9.300874710083008,3.2743701934814453
1772594445038094000,2.476093994140625,0.38815996050834656,-9.278130531311035,3.2632968425750732
1772594445058358000,2.49635791015625,0.34656068682670593,-9.271246910095215,3.262997627258301
1772594445078621000,2.516620849609375,0.28700491786003113,-9.273940086364746,3.2800562381744385
1772594445098885000,2.536885009765625,0.23014263808727264,-9.27334213256836,3.2881367206573486
1772594445119149000,2.557149169921875,0.1604115068912506,-9.287707328796387,3.2971150875091553
1772594445139412000,2.577411865234375,-0.5985504388809204,-9.317634582519531,3.3031005859375
1772594445159676000,2.597676025390625,-0.5734112858772278,-9.345168113708496,3.3144729137420654
1772594445179940000,2.617940185546875,-0.5503671169281006,-9.38167953491211,3.3225533962249756
1772594445200203000,2.638203125,-0.5348048210144043,-9.416694641113281,3.3198599815368652
1772594445220467000,2.658467041015625,-0.4958990216255188,-9.438840866088867,3.316567897796631
1772594445240731000,2.67873095703125,-0.4348468780517578,-9.442132949829102,3.332130193710327
1772594445260994000,2.698994140625,0.27563247084617615,-9.43494987487793,3.330933094024658
1772594445281258000,2.719258056640625,0.2454056739807129,-9.422380447387695,3.3237504959106445
1772594445301522000,2.73952197265625,0.24809914827346802,-9.413103103637695,3.321057081222534
1772594445321785000,2.75978515625,0.2576759457588196,-9.416994094848633,3.3306338787078857
1772594445342049000,2.780049072265625,0.2651578485965729,-9.41400146484375,3.3408091068267822
1772594445362313000,2.80031298828125,0.2579752206802368,-9.431957244873047,3.342006206512451
1772594445382576000,2.820576171875,0.26485857367515564,-9.445125579833984,3.3458969593048096
1772594445402840000,2.840840087890625,0.2585737705230713,-9.453206062316895,3.3470940589904785
1772594445423104000,2.86110400390625,0.26336219906806946,-9.483133316040039,3.34320330619812
1772594445443367000,2.881366943359375,0.2654571235179901,-9.48762321472168,3.3273417949676514
1772594445463631000,2.901631103515625,0.27054479718208313,-9.511565208435059,3.3010056018829346
1772594445483895000,2.92189501953125,0.3106476664543152,-9.512163162231445,3.2881367206573486
1772594445504158000,2.942157958984375,0.31364041566848755,-9.514557838439941,3.2794578075408936
1772594445524422000,2.962421875,0.3097498416900635,-9.515155792236328,3.2294788360595703
1772594445544686000,2.98268603515625,0.3181295394897461,-9.52473258972168,3.1821932792663574
1772594445564949000,3.002948974609375,0.3208230137825012,-9.531316757202148,3.1343092918395996
1772594445585213000,3.023212890625,0.3250128924846649,-9.536704063415527,3.0873231887817383
1772594445605477000,3.04347705078125,0.31184476613998413,-9.544485092163086,3.0529065132141113
1772594445625740000,3.063739990234375,0.3130418658256531,-9.552266120910645,3.0211832523345947
1772594445646004000,3.08400390625,0.3130418658256531,-9.556755065917969,3.0178911685943604
1772594445666268000,3.104267822265625,0.3256114423274994,-9.563339233398438,3.0095114707946777
1772594445686531000,3.124531005859375,0.3190273642539978,-9.575908660888672,3.0166940689086914
1772594445706795000,3.144794921875,0.32710781693458557,-9.580398559570312,3.022081136703491
1772594445727059000,3.165058837890625,0.2885012924671173,-9.595062255859375,3.0235774517059326
1772594445747322000,3.185322021484375,0.2801215946674347,-9.592069625854492,3.0283658504486084
1772594445767586000,3.2055859375,0.2753331959247589,-9.592668533325195,3.018789052963257
1772594445787850000,3.22585009765625,0.26994624733924866,-9.601646423339844,3.034351348876953
1772594445808113000,3.24611279296875,0.267851322889328,-9.612420082092285,3.0334534645080566
1772594445828377000,3.266377197265625,0.2750339210033417,-9.588777542114258,3.006518840789795
1772594445848641000,3.28664111328125,0.2867056429386139,-9.585186958312988,2.972102165222168
1772594445868904000,3.306904052734375,0.2720411717891693,-9.584288597106934,2.9643208980560303
1772594445889168000,3.32716796875,0.2397194504737854,-9.58907699584961,2.946364402770996
1772594445909432000,3.34743212890625,0.23283611238002777,-9.598054885864258,2.948758602142334
1772594445929695000,3.367695068359375,0.233135387301445,-9.604938507080078,2.938283920288086
1772594445949959000,3.387958984375,0.20560206472873688,-9.600749015808105,2.926612377166748
1772594445970223000,3.40822314453125,0.18555063009262085,-9.598054885864258,2.947561502456665
1772594445990486000,3.428486083984375,0.16639702022075653,-9.601945877075195,2.943072557449341
1772594446010750000,3.44875,0.14365209639072418,-9.603142738342285,2.924816608428955
1772594446031014000,3.469013916015625,0.12958616018295288,-9.596858024597168,2.909254312515259
1772594446051278000,3.489278076171875,0.12509703636169434,-9.591471672058105,2.904465913772583
1772594446071541000,3.509541015625,0.10175357013940811,-9.575310707092285,2.923021078109741
1772594446091805000,3.529804931640625,0.08619125932455063,-9.537302017211914,2.929605007171631
1772594446112069000,3.550069091796875,0.07332243025302887,-9.511863708496094,2.929605007171631
1772594446132332000,3.57033203125,0.06404489278793335,-9.506477355957031,2.938283920288086
1772594446152596000,3.590595947265625,0.05925649031996727,-9.521739959716797,2.954145669937134
1772594446172860000,3.61085986328125,0.05357026308774948,-9.5408935546875,2.964021682739258
1772594446193123000,3.631123046875,0.048482585698366165,-9.55466079711914,2.967912197113037
1772594446213387000,3.651386962890625,0.039803601801395416,-9.560945510864258,2.9867665767669678
1772594446233651000,3.67165087890625,0.030226796865463257,-9.567230224609375,2.9891607761383057
1772594446253914000,3.6919140625,0.03082534670829773,-9.572916030883789,2.988861560821533
1772594446274178000,3.712177978515625,0.052373163402080536,-9.578003883361816,2.9951462745666504
1772594446294442000,3.73244189453125,0.08469488471746445,-9.577704429626465,3.008314371109009
1772594446314705000,3.752704833984375,0.11103110015392303,-9.585186958312988,3.0056209564208984
1772594446334969000,3.772968994140625,0.12090718746185303,-9.584588050842285,3.002927541732788
1772594446355233000,3.79323291015625,0.1445499211549759,-9.587580680847168,3.0125043392181396
1772594446375496000,3.813495849609375,0.1505354344844818,-9.592967987060547,3.0148985385894775
1772594446395760000,3.833760009765625,0.1355716735124588,-9.59835433959961,3.0283658504486084
1772594446416024000,3.854024169921875,0.1412578970193863,-9.610026359558105,3.0334534645080566
1772594446436287000,3.874286865234375,0.15173253417015076,-9.610923767089844,3.0376434326171875
1772594446456551000,3.894551025390625,0.16220717132091522,-9.601048469543457,3.026270866394043
1772594446476815000,3.914815185546875,0.17178396880626678,-9.603442192077637,3.0382418632507324
1772594446497078000,3.935078125,0.19243396818637848,-9.602544784545898,3.0388405323028564
1772594446517342000,3.955342041015625,0.21368250250816345,-9.616011619567871,3.0394389629364014
1772594446537606000,3.97560595703125,0.22026655077934265,-9.62259578704834,3.0457239151000977
1772594446557869000,3.995869140625,0.22206220030784607,-9.618106842041016,3.046621561050415
1772594446578133000,4.016133056640625,0.23014263808727264,-9.608230590820312,3.0427310466766357
1772594446598397000,4.03639697265625,0.21039047837257385,-9.612719535827637,3.0400376319885254
1772594446618660000,4.05666015625,0.1933317929506302,-9.61331844329834,3.039738416671753
1772594446638924000,4.076924072265625,0.21936872601509094,-9.618406295776367,3.051409959793091
1772594446659188000,4.09718798828125,0.22924481332302094,-9.620500564575195,3.0469210147857666
1772594446679451000,4.117450927734375,0.20620061457157135,-9.633369445800781,3.057096242904663
1772594446699715000,4.137715087890625,0.18136078119277954,-9.624990463256836,3.051409959793091
1772594446719979000,4.15797900390625,0.16729484498500824,-9.624990463256836,3.061884641647339
1772594446740242000,4.178241943359375,0.14814123511314392,-9.628581047058105,3.0555999279022217
1772594446760506000,4.198506103515625,0.13347674906253815,-9.614215850830078,3.0499136447906494
1772594446780770000,4.21877001953125,0.13078327476978302,-9.621099472045898,3.0535049438476562
1772594446801033000,4.239032958984375,0.12449848651885986,-9.62259578704834,3.0579941272735596
1772594446821297000,4.259296875,0.11851298063993454,-9.619902610778809,3.057694911956787
1772594446841561000,4.27956103515625,0.1032499447464943,-9.610026359558105,3.0567970275878906
1772594446861824000,4.299823974609375,0.09457096457481384,-9.600150108337402,3.050212860107422
1772594446882088000,4.320087890625,0.09367313981056213,-9.607033729553223,3.041533946990967
1772594446902352000,4.340351806640625,0.08439560979604721,-9.610625267028809,3.043030261993408
1772594446922615000,4.360614990234375,0.07960720360279083,-9.61331844329834,3.043030261993408
1772594446942879000,4.38087890625,0.06254851818084717,-9.614215850830078,3.052008628845215
1772594446963143000,4.401142822265625,0.05835866555571556,-9.616011619567871,3.062483310699463
1772594446983406000,4.421406005859375,0.05835866555571556,-9.611223220825195,3.067570924758911
1772594447003670000,4.441669921875,0.0487818606197834,-9.610026359558105,3.057694911956787
1772594447023934000,4.461933837890625,0.06224924325942993,-9.601945877075195,3.064877510070801
1772594447044197000,4.482197021484375,0.06494271755218506,-9.598653793334961,3.0651767253875732
1772594447064461000,4.5024609375,0.054767362773418427,-9.60643482208252,3.064877510070801
1772594447084725000,4.52272509765625,0.05267243832349777,-9.60523796081543,3.0585925579071045
1772594447104988000,4.54298779296875,0.04399345442652702,-9.60643482208252,3.0591912269592285
1772594447125252000,4.563252197265625,0.03411737456917763,-9.613917350769043,3.0633809566497803
1772594447145516000,4.58351611328125,0.022445641458034515,-9.614215850830078,3.055899143218994
1772594447165779000,4.603779052734375,0.025737667456269264,-9.609427452087402,3.0621838569641113
1772594447186043000,4.62404296875,0.01496376097202301,-9.607333183288574,3.0627825260162354
1772594447206307000,4.64430712890625,0.011671733111143112,-9.603741645812988,3.0720601081848145
1772594447226570000,4.664570068359375,0.01346738450229168,-9.602843284606934,3.0708630084991455
1772594447246834000,4.684833984375,0.024241292849183083,-9.603741645812988,3.0579941272735596
1772594447267098000,4.70509814453125,0.02843114547431469,-9.607333183288574,3.0651767253875732
1772594447287361000,4.725361083984375,0.03890577703714371,-9.606734275817871,3.064877510070801
1772594447307625000,4.745625,0.033518824726343155,-9.599252700805664,3.0591912269592285
1772594447327889000,4.765888916015625,0.02364274114370346,-9.603741645812988,3.0633809566497803
1772594447348153000,4.786153076171875,0.011971008032560349,-9.600150108337402,3.0579941272735596
1772594447368416000,4.806416015625,0.020350715145468712,-9.594164848327637,3.0538041591644287
1772594447388680000,4.826679931640625,0.012868833728134632,-9.599252700805664,3.0603883266448975
1772594447408944000,4.846944091796875,0.017058687284588814,-9.603442192077637,3.0615854263305664
1772594447429207000,4.86720703125,0.01586158573627472,-9.602245330810547,3.061884641647339
1772594447449471000,4.887470947265625,0.0038905777037143707,-9.600749015808105,3.0660746097564697
1772594447469735000,4.90773486328125,0.0017956512747332454,-9.611522674560547,3.066972494125366
1772594447489998000,4.927998046875,0,-9.616311073303223,3.0744543075561523
1772594447510262000,4.948261962890625,0.002693476853892207,-9.610625267028809,3.0807390213012695
1772594447530526000,4.96852587890625,0.009876081719994545,-9.61212158203125,3.0783448219299316
1772594447550789000,4.9887890625,0.019153613597154617,-9.606135368347168,3.0771477222442627
1772594447571053000,5.009052978515625,0.0146644851192832,-9.597756385803223,3.0813376903533936
1772594447591317000,5.02931689453125,0.011671733111143112,-9.590872764587402,3.076249837875366
1772594447611580000,5.049579833984375,0.01885433867573738,-9.589376449584961,3.064877510070801
1772594447631844000,5.069843994140625,0.01346738450229168,-9.591471672058105,3.076249837875366
1772594447652108000,5.09010791015625,0.0035913025494664907,-9.603142738342285,3.0789434909820557
1772594447672371000,5.110370849609375,0.0071826050989329815,-9.612420082092285,3.0726585388183594
1772594447692635000,5.130634765625,0.008678981103003025,-9.609128952026367,3.0720601081848145
1772594447712899000,5.150899169921875,0.01825578883290291,-9.612719535827637,3.0837318897247314
1772594447733162000,5.171161865234375,0.012868833728134632,-9.613917350769043,3.0819361209869385
1772594447753426000,5.191426025390625,0.015263035893440247,-9.622296333312988,3.0708630084991455
1772594447773690000,5.211690185546875,0.008080430328845978,-9.629179954528809,3.071162223815918
1772594447793953000,5.231953125,0.0008978256373666227,-9.639056205749512,3.0789434909820557
1772594447814217000,5.252217041015625,-0.0008978256373666227,-9.639056205749512,3.0708630084991455
1772594447834481000,5.27248095703125,0.005686229094862938,-9.641449928283691,3.0813376903533936
1772594447854744000,5.292744140625,-0.0032920273952186108,-9.647136688232422,3.07415509223938
1772594447875008000,5.313008056640625,0.0008978256373666227,-9.641151428222656,3.079242706298828
1772594447895272000,5.33327197265625,-0.005686229094862938,-9.644442558288574,3.0843303203582764
1772594447915535000,5.35353515625,-0.01107318326830864,-9.632172584533691,3.0843303203582764
1772594447935799000,5.373799072265625,-0.0146644851192832,-9.628880500793457,3.085228204727173
1772594447956063000,5.39406298828125,-0.009277531877160072,-9.639654159545898,3.052008628845215
1772594447976326000,5.414325927734375,-0.010773907415568829,-9.642048835754395,3.0217819213867188
1772594447996590000,5.434590087890625,-0.013766659423708916,-9.641749382019043,2.994248390197754
1772594448016854000,5.45485400390625,-0.0077811554074287415,-9.633369445800781,2.9601311683654785
1772594448037117000,5.475116943359375,-0.002394201699644327,-9.643844604492188,2.9664158821105957
1772594448057381000,5.495381103515625,0.008080430328845978,-9.643545150756836,2.9762918949127197
1772594448077645000,5.51564501953125,0.01735796220600605,-9.636063575744629,2.9858686923980713
1772594448097908000,5.535907958984375,0.017657237127423286,-9.634865760803223,2.990058660507202
1772594448118172000,5.556171875,0.025438392534852028,-9.640253067016602,2.9885623455047607
1772594448138436000,5.57643603515625,0.016160860657691956,-9.635764122009277,3.00053334236145
1772594448158699000,5.596698974609375,0.01735796220600605,-9.627384185791016,3.0098109245300293
1772594448178963000,5.616962890625,0.01975216343998909,-9.627084732055664,3.0113072395324707
1772594448199227000,5.637226806640625,0.02513911761343479,-9.62947940826416,3.019387722015381
1772594448219490000,5.657489990234375,0.02843114547431469,-9.627384185791016,3.028665065765381
1772594448239754000,5.67775390625,0.02364274114370346,-9.624691009521484,3.0313587188720703
1772594448260018000,5.698017822265625,0.01496376097202301,-9.63875675201416,3.0463223457336426
1772594448280281000,5.718281005859375,0.007481880486011505,-9.63067626953125,3.075352191925049
1772594448320809000,5.75880908203125,-0.018555063754320145,-9.626786231994629,3.121141195297241
1772594448341072000,5.77907177734375,-0.01825578883290291,-9.625887870788574,3.138798475265503
1772594448361336000,5.799336181640625,-0.012569558806717396,-9.626786231994629,3.1483752727508545
1772594448381600000,5.81960009765625,-0.006284779403358698,-9.61331844329834,3.1495723724365234
1772594448401863000,5.83986279296875,-0.01227028388530016,-9.595361709594727,3.1319150924682617
1772594448422127000,5.860127197265625,-0.012868833728134632,-9.557952880859375,3.1208419799804688
1772594448442391000,5.88039111328125,0.009576806798577309,-9.542988777160645,3.1127614974975586
1772594448462654000,5.900654052734375,0.03681085258722305,-9.541193008422852,3.1046810150146484
1772594448482918000,5.92091796875,0.0553659126162529,-9.542689323425293,3.1100680828094482
1772594448503182000,5.94118212890625,0.04249707981944084,-9.544485092163086,3.1064767837524414
1772594448523445000,5.961445068359375,0.034416649490594864,-9.549572944641113,3.0954034328460693
1772594448543709000,5.981708984375,0.032620999962091446,-9.56633186340332,3.080439805984497
1772594448563973000,6.00197314453125,0.026635494083166122,-9.567230224609375,3.079242706298828
1772594448584236000,6.022236083984375,0.02693476900458336,-9.559747695922852,3.0523078441619873
1772594448604500000,6.0425,0.02364274114370346,-9.55466079711914,3.013402223587036
1772594448624764000,6.062763916015625,0.023343466222286224,-9.527426719665527,3.015796422958374
1772594448645028000,6.083028076171875,0.02753331884741783,-9.507973670959473,3.017591953277588
1772594448665291000,6.103291015625,0.01825578883290291,-9.49809741973877,3.0259716510772705
1772594448685555000,6.123554931640625,0.01646013744175434,-9.512163162231445,3.02327823638916
1772594448705819000,6.14381884765625,0.005386953707784414,-9.525331497192383,3.033154249191284
1772594448726082000,6.16408203125,0.002094926545396447,-9.537302017211914,3.0400376319885254
1772594448746346000,6.184345947265625,0.037409402430057526,-9.5408935546875,3.040336847305298
1772594448766610000,6.20460986328125,0.038307227194309235,-9.551667213439941,3.045424461364746
1772594448786873000,6.224873046875,0.06374561786651611,-9.581894874572754,3.049015760421753
1772594448807137000,6.245136962890625,0.06314706802368164,-9.62259578704834,3.0142998695373535
1772594448827401000,6.26540087890625,0.05117605999112129,-9.651625633239746,2.996642589569092
1772594448847664000,6.2856640625,0.05746084079146385,-9.675268173217773,2.9718029499053955
1772594448867928000,6.305927978515625,0.05297171324491501,-9.674968719482422,2.9526493549346924
1772594448888192000,6.32619189453125,0.04519055783748627,-9.668983459472656,2.897582530975342
1772594448908455000,6.346454833984375,0.04339490458369255,-9.660005569458008,2.8455088138580322
1772594448928719000,6.366718994140625,0.043095629662275314,-9.65731143951416,2.832340717315674
1772594448948983000,6.386983154296875,0.03232172131538391,-9.64683723449707,2.825756549835205
1772594448969246000,6.407245849609375,0.03651157766580582,-9.64564037322998,2.8209681510925293
1772594448989510000,6.427510009765625,0.04429273307323456,-9.640552520751953,2.8119897842407227
1772594449009774000,6.447774169921875,0.04519055783748627,-9.61571216583252,2.807800054550171
1772594449030037000,6.468037109375,0.04010287672281265,-9.622296333312988,2.790741443634033
1772594449050301000,6.488301025390625,0.044592007994651794,-9.616011619567871,2.796726942062378
1772594449070565000,6.508565185546875,0.03082534670829773,-9.623494148254395,2.7970261573791504
1772594449090828000,6.528828125,0.02693476900458336,-9.593865394592285,2.7928361892700195
1772594449111092000,6.549092041015625,0.024839842692017555,-9.589376449584961,2.7829601764678955
1772594449131356000,6.56935595703125,0.01227028388530016,-9.59177017211914,2.772186279296875
1772594449151619000,6.589619140625,0.038307227194309235,-9.596858024597168,2.7994203567504883
1772594449171883000,6.609883056640625,0.04369417950510979,-9.609726905822754,2.786850690841675
1772594449192147000,6.63014697265625,0.038307227194309235,-9.613018989562988,2.7865514755249023
1772594449212410000,6.65041015625,0.03082534670829773,-9.611522674560547,2.7799675464630127
1772594449232674000,6.670674072265625,0.025737667456269264,-9.610923767089844,2.8063037395477295
1772594449252938000,6.69093798828125,0.02693476900458336,-9.618705749511719,2.8015153408050537
1772594449273201000,6.711200927734375,0.03172317147254944,-9.622895240783691,2.8075008392333984
1772594449293465000,6.731465087890625,0.0487818606197834,-9.619303703308105,2.8113913536071777
1772594449313729000,6.75172900390625,0.08798690885305405,-9.61331844329834,2.8284499645233154
1772594449333992000,6.771991943359375,0.12210428714752197,-9.610625267028809,2.8470051288604736
1772594449354256000,6.792255859375,0.14395137131214142,-9.61212158203125,2.8814218044281006
1772594449374520000,6.81252001953125,0.16250644624233246,-9.615114212036133,2.923619508743286
1772594449394783000,6.832782958984375,0.1792658567428589,-9.618705749511719,2.962824583053589
1772594449415047000,6.853046875,0.1834557056427002,-9.607033729553223,2.9933507442474365
1772594449435311000,6.87331103515625,0.18584990501403809,-9.613617897033691,3.0253732204437256
1772594449455574000,6.893573974609375,0.19692309200763702,-9.624092102050781,3.057694911956787
1772594449475838000,6.913837890625,0.2124854028224945,-9.613917350769043,3.0873231887817383
1772594449496102000,6.934101806640625,0.21936872601509094,-9.60763168334961,3.1169512271881104
1772594449516365000,6.954364990234375,0.23253683745861053,-9.614814758300781,3.1465795040130615
1772594449536629000,6.97462890625,0.2528875470161438,-9.610026359558105,3.162141799926758
1772594449556893000,6.994892822265625,0.262763649225235,-9.600749015808105,3.160346269607544
1772594449577156000,7.015156005859375,0.2546831965446472,-9.59057331085205,3.144484758377075
1772594449597420000,7.035419921875,0.24001872539520264,-9.594164848327637,3.1214404106140137
1772594449617684000,7.05568408203125,0.22415713965892792,-9.592668533325195,3.0765492916107178
1772594449637947000,7.07594677734375,0.20530278980731964,-9.59835433959961,3.0499136447906494
1772594449658211000,7.096211181640625,0.1810615062713623,-9.592069625854492,2.9897594451904297
1772594449678475000,7.11647509765625,0.13946224749088287,-9.575011253356934,2.17303729057312
1772594449698738000,7.136738037109375,0.1149216815829277,-9.584588050842285,2.1850082874298096
1772594449719002000,7.157002197265625,0.11103110015392303,-9.594164848327637,2.2475569248199463
1772594449739266000,7.17726611328125,0.10115502029657364,-9.594164848327637,2.3178865909576416
1772594449759529000,7.197529052734375,0.08738835901021957,-9.58788013458252,3.172616481781006
1772594449779793000,7.21779296875,0.07841010391712189,-9.625887870788574,3.1968579292297363
1772594449800057000,7.23805712890625,0.08469488471746445,-9.684545516967773,3.2166099548339844
1772594449820320000,7.258320068359375,0.10833762586116791,-9.674968719482422,3.2282817363739014
1772594449840584000,7.278583984375,0.09127894043922424,-9.67227554321289,3.216909170150757
1772594449860848000,7.29884814453125,0.08589198440313339,-9.701005935668945,3.2199020385742188
1772594449881111000,7.319111083984375,0.07751227915287018,-9.685144424438477,3.2420482635498047
1772594449901375000,7.339375,-0.7326257228851318,-8.86483097076416,3.1890766620635986
1772594449921639000,7.359638916015625,-0.6832453012466431,-8.904335021972656,3.181894063949585
1772594449941903000,7.379903076171875,-0.6485294103622437,-8.939949035644531,3.194164276123047
1772594449962166000,7.400166015625,-0.6153098344802856,-8.967482566833496,3.2423477172851562
1772594449982430000,7.420429931640625,-0.5850830674171448,-9.00399398803711,3.290231704711914
1772594450002694000,7.44069384765625,-0.5569511651992798,-9.016862869262695,3.3288381099700928
1772594450022957000,7.46095703125,-0.5339069962501526,-8.119935035705566,3.292027235031128
1772594450043221000,7.481220947265625,-0.48632222414016724,-8.110657691955566,3.2393548488616943
1772594450063485000,7.50148486328125,-0.4593874514102936,-9.030928611755371,3.2806549072265625
1772594450083748000,7.521748046875,-0.4390367269515991,-9.069235801696777,3.3168671131134033
1772594450104012000,7.542011962890625,-0.4246715307235718,-9.880571365356445,3.3506853580474854
1772594450124276000,7.56227587890625,-0.43005847930908203,-11.009138107299805,3.438372850418091
1772594450144539000,7.582538818359375,-0.47494974732398987,-10.996868133544922,3.461117744445801
1772594450164803000,7.602802978515625,-0.48063600063323975,-9.487921714782715,3.41951847076416
1772594450185067000,7.62306689453125,-0.46836569905281067,-8.381501197814941,3.384204149246216
1772594450205330000,7.643329833984375,-0.48572367429733276,-8.390779495239258,3.434183120727539
1772594450225594000,7.663593994140625,-0.46986207365989685,-8.388684272766113,3.4865562915802
1772594450245858000,7.683858154296875,-0.42856210470199585,-8.421006202697754,3.505410671234131
1772594450266121000,7.704120849609375,-0.3941454589366913,-8.471882820129395,3.4530375003814697
1772594450286385000,7.724385009765625,-0.3241150677204132,-8.531438827514648,3.4111387729644775
1772594450306649000,7.744649169921875,-0.2636614739894867,-8.567051887512207,3.4602200984954834
1772594450326912000,7.764912109375,-0.203207865357399,-9.5007905960083,3.511096715927124
1772594450347176000,7.785176025390625,-0.18315643072128296,-10.278008460998535,3.579930067062378
1772594450367440000,7.80543994140625,-0.17657238245010376,-10.362403869628906,4.644452095031738
1772594450387703000,7.825703125,-0.15263035893440247,-11.101613998413086,5.5656208992004395
1772594450407967000,7.845967041015625,-0.10055647045373917,-11.164761543273926,6.3063273429870605
1772594450428231000,7.86623095703125,0.8176198601722717,-11.870152473449707,6.341342449188232
1772594450448494000,7.886494140625,0.8696937561035156,-11.87883186340332,6.35570764541626
1772594450468758000,7.906758056640625,0.916081428527832,-11.84650993347168,6.370072841644287
1772594450489022000,7.92702197265625,1.6840215921401978,-11.82376480102539,6.365583896636963
1772594450509285000,7.94728515625,1.6965911388397217,-11.818078994750977,6.325480937957764
1772594450529549000,7.967549072265625,1.688510775566101,-11.765406608581543,5.437830448150635
1772594450549813000,7.98781298828125,1.677138328552246,-10.880748748779297,5.359420299530029
1772594450570076000,8.008075927734374,1.688510775566101,-10.812514305114746,4.376600742340088
1772594450590340000,8.028340087890625,1.7474679946899414,-10.025120735168457,4.315548419952393
1772594450610604000,8.04860400390625,2.6593594551086426,-9.964667320251465,3.5703532695770264
1772594450630867000,8.068866943359374,4.261080265045166,-9.200617790222168,3.6275148391723633
1772594450651131000,8.089130859375,5.22175407409668,-8.184279441833496,5.2929816246032715
1772594450671395000,8.10939501953125,6.136937618255615,-7.155371189117432,6.399102687835693
1772594450691658000,8.129657958984374,6.997952461242676,-7.082347869873047,7.235876083374023
1772594450711922000,8.149921875,7.051522731781006,-6.083367347717285,7.277774810791016
1772594450732186000,8.17018603515625,7.116764545440674,-6.0184245109558105,7.289146900177002
1772594450752449000,8.190448974609374,7.174524784088135,-5.283703804016113,7.2334818840026855
1772594450772713000,8.210712890625,7.186495780944824,-5.229235649108887,6.087856292724609
1772594450792977000,8.230976806640625,7.164050102233887,-5.173870086669922,5.175665378570557
1772594450813240000,8.251239990234374,7.131429195404053,-5.108328819274902,4.396951198577881
1772594450833504000,8.27150390625,7.087734699249268,-5.045480728149414,4.325125217437744
1772594450853768000,8.291767822265625,7.04673433303833,-4.97545051574707,3.4560301303863525
1772594450874031000,8.312031005859374,7.034763336181641,-4.181473255157471,2.6500821113586426
1772594450894295000,8.332294921875,7.04673433303833,-4.160224914550781,1.7839795351028442
1772594450914559000,8.35255908203125,7.062296390533447,-4.109647274017334,1.7151461839675903
1772594450934822000,8.37282177734375,7.047033309936523,-4.041113376617432,1.6406266689300537
1772594450955086000,8.393086181640625,6.999149322509766,-3.2025439739227295,1.5720926523208618
1772594450975350000,8.41335009765625,6.149806499481201,-2.1553800106048584,1.503857970237732
1772594450995613000,8.433613037109374,5.329792022705078,-1.0845733880996704,1.4443022012710571
1772594451015877000,8.453877197265625,6.413168430328369,-1.1450269222259521,6.063614845275879
1772594451036141000,8.47414111328125,7.416638374328613,-1.0345944166183472,6.039074420928955
1772594451056404000,8.494404052734374,7.502231121063232,-1.0100538730621338,5.951686382293701
1772594451076668000,8.51466796875,8.600272178649902,-0.9424176216125488,4.842572212219238
1772594451096932000,8.53493212890625,9.453804969787598,-0.8885480761528015,3.979761838912964
1772594451117195000,8.555195068359374,10.20887565612793,-0.877774178981781,3.19865345954895
1772594451137459000,8.575458984375,10.257658004760742,-0.8631097078323364,3.1564557552337646
1772594451157723000,8.595722900390625,10.304045677185059,-0.8239046335220337,3.113060712814331
1772594451177986000,8.615986083984374,10.25586223602295,-0.09487023949623108,3.1082723140716553
1772594451198250000,8.63625,9.434651374816895,-0.04519055783748627,3.101987600326538
1772594451218514000,8.656513916015625,9.347861289978027,0.026336219161748886,3.0992941856384277
1772594451238778000,8.676778076171875,9.31494140625,0.9032126069068909,3.0942063331604004
1772594451259041000,8.697041015625,9.284713745117188,0.956782877445221,3.0696659088134766
1772594451279305000,8.717304931640625,9.218574523925781,1.0214263200759888,3.0382418632507324
1772594451299569000,8.73756884765625,8.452130317687988,1.855207085609436,3.008314371109009
1772594451319832000,8.75783203125,8.40424633026123,1.898302674293518,3.0110080242156982
1772594451340096000,8.778095947265625,8.354866027832031,1.9617490768432617,3.010409355163574
1772594451360360000,8.79835986328125,8.3521728515625,2.7317841053009033,3.0062196254730225
1772594451380623000,8.818623046875,8.345588684082031,2.738966703414917,3.0388405323028564
1772594451400887000,8.838886962890625,8.338107109069824,2.7997195720672607,3.058892011642456
1772594451421151000,8.85915087890625,8.335412979125977,2.8814218044281006,3.093308687210083
1772594451441414000,8.879413818359374,8.3614501953125,3.6610336303710938,3.1307179927825928
1772594451461678000,8.899677978515625,8.382997512817383,3.6727054119110107,3.1483752727508545
1772594451481942000,8.91994189453125,8.40963363647461,3.664924144744873,3.1705214977264404
1772594451502205000,8.940204833984374,8.368931770324707,3.6505589485168457,3.2067339420318604
1772594451522469000,8.96046923828125,8.298004150390625,3.643975019454956,3.258209228515625
1772594451542733000,8.980733154296875,8.259995460510254,3.626616954803467,3.291428804397583
1772594451562996000,9.000995849609374,8.272266387939453,3.6349966526031494,3.307589530944824
1772594451583260000,9.021260009765625,8.299500465393066,3.658639430999756,3.3102831840515137
1772594451603524000,9.041524169921875,8.315062522888184,3.685873508453369,3.307589530944824
1772594451623787000,9.061787109375,8.305485725402832,3.6960489749908447,3.3028011322021484
1772594451644051000,9.082051025390625,8.307879447937012,3.7143046855926514,3.302501916885376
1772594451664315000,9.10231494140625,8.311171531677246,3.762787342071533,3.268085241317749
1772594451684578000,9.122578125,8.311470985412598,3.796605348587036,3.2381577491760254
1772594451704842000,9.142842041015625,8.3213472366333,3.8277299404144287,3.216310739517212
1772594451725106000,9.16310595703125,8.328230857849121,3.856161117553711,3.1914708614349365
1772594451745369000,9.183369140625,8.29830265045166,3.89626407623291,3.1872811317443848
1772594451765633000,9.203633056640625,8.276755332946777,3.9498343467712402,3.166032552719116
1772594451785897000,9.22389697265625,8.277952194213867,4.009090900421143,3.1636383533477783
1772594451806160000,9.244159912109374,8.277952194213867,4.049492835998535,3.1519665718078613
1772594451826424000,9.264424072265625,8.273762702941895,4.052485466003418,3.1459810733795166
1772594451846688000,9.28468798828125,8.279149055480957,4.065354347229004,3.144484758377075
1772594451866951000,9.304950927734374,8.284236907958984,4.075230598449707,3.1349079608917236
1772594451887215000,9.325215087890625,8.269871711730957,4.074632167816162,3.12772536277771
1772594451907479000,9.34547900390625,8.244133949279785,4.088099479675293,3.1139585971832275
1772594451927742000,9.365741943359374,8.207921981811523,4.121318817138672,3.0918121337890625
1772594451948006000,9.386005859375,8.19924259185791,4.153341293334961,3.053205728530884
1772594451968270000,9.40627001953125,8.207622528076172,4.193743705749512,2.262819766998291
1772594451988533000,9.426532958984374,8.216301918029785,4.215590476989746,2.24935245513916
1772594452008797000,9.446796875,8.267178535461426,4.242525577545166,2.2245125770568848
1772594452029061000,9.46706103515625,8.330924034118652,4.271854400634766,2.1586720943450928
1772594452049324000,9.487323974609374,8.389581680297852,4.287715911865234,2.105999708175659
1772594452069588000,9.507587890625,8.416217803955078,4.291606426239014,1.3123217821121216
1772594452089852000,9.527851806640625,8.43387508392334,4.302679538726807,1.3066356182098389
1772594452110115000,9.548114990234374,8.434173583984375,4.326920986175537,1.2874820232391357
1772594452130379000,9.56837890625,8.403946876525879,4.391863822937012,1.2315175533294678
1772594452150643000,9.588642822265625,7.481281757354736,5.216067790985107,1.1743559837341309
1772594452170906000,9.608906005859374,7.466916561126709,5.2352213859558105,1.1297639608383179
1772594452191170000,9.629170166015625,7.488164901733398,5.221454620361328,1.1073182821273804
