time,seconds_elapsed,z,y,x
1772594442910500000,0.3485,0.0026605629827827215,-0.0031926757656037807,-0.0029266192577779293
1772594442930642000,0.368641845703125,0.0007981689414009452,0,-0.003325703786686063
1772594442950936000,0.38893603515625,-0.004522957373410463,0.0031926757656037807,-0.0047890134155750275
1772594442971199000,0.409198974609375,0.0029266192577779293,0.004922041669487953,-0.0039908443577587605
1772594442991463000,0.429462890625,-0.0006651407456956804,0.0003990844707004726,0.004123872611671686
1772594443011727000,0.44972705078125,-0.0022614786867052317,-0.0007981689414009452,0.0013302814913913608
1772594443031990000,0.469989990234375,0.0014633096288889647,-0.0009311970788985491,-0.0017293660202994943
1772594443052254000,0.49025390625,-0.014367040246725082,-0.3376254439353943,-0.5769430994987488
1772594443072518000,0.510517822265625,-0.0839407667517662,-0.3146115839481354,-0.5693604946136475
1772594443092781000,0.530781005859375,-0.10735371708869934,-0.2733728587627411,-0.5764110088348389
1772594443113045000,0.551044921875,0.04549562931060791,-0.22694602608680725,-0.8640178442001343
1772594443133309000,0.571308837890625,0.20712482929229736,-0.36250171065330505,-1.2642995119094849
1772594443153572000,0.591572021484375,0.2612673044204712,-0.5126904845237732,-1.3016804456710815
1772594443173836000,0.6118359375,0.3887082636356354,-0.5673650503158569,-1.0418764352798462
1772594443194100000,0.632099853515625,0.8021597862243652,-0.6074065566062927,-1.005958914756775
1772594443214363000,0.65236279296875,1.0691472291946411,-0.5628421306610107,-0.9849404096603394
1772594443234627000,0.672626953125,1.1594734191894531,-0.5532640814781189,-0.9970459938049316
1772594443254891000,0.69289111328125,0.9198896884918213,-1.216808557510376,-1.8086507320404053
1772594443275154000,0.71315380859375,0.5164152979850769,-2.14162015914917,-3.2772815227508545
1772594443295418000,0.733418212890625,0.5185437202453613,-2.0645968914031982,-3.5167322158813477
1772594443315682000,0.75368212890625,1.1367255449295044,-1.853215217590332,-2.985018730163574
1772594443335945000,0.773945068359375,1.1604045629501343,-1.5727918148040771,-2.2864878177642822
1772594443356209000,0.794208984375,0.6525030732154846,-0.9675137400627136,-1.5586909055709839
1772594443376473000,0.81447314453125,0.4205019772052765,-0.5937046408653259,-0.9072520136833191
1772594443396736000,0.834736083984375,0.44045621156692505,-0.43061211705207825,-0.4719838798046112
1772594443417000000,0.855,0.5742825269699097,-0.281620591878891,-0.25887277722358704
1772594443437264000,0.875263916015625,0.3648962080478668,-0.16096405684947968,-0.11520238220691681
1772594443457528000,0.895528076171875,0.18743667006492615,-0.15497779846191406,-0.04230295121669769
1772594443477791000,0.915791015625,-0.0663810446858406,0.12118864804506302,-0.06425260007381439
1772594443498055000,0.936054931640625,-0.06598196178674698,0.4698554277420044,-0.11121153831481934
1772594443518319000,0.956319091796875,0.1575053334236145,0.5692274570465088,-0.10615646839141846
1772594443538582000,0.97658203125,0.1882348358631134,0.5271905660629272,-0.0790187194943428
1772594443558846000,0.996845947265625,0.1608310341835022,0.3815247416496277,-0.03352309390902519
1772594443579110000,1.01710986328125,0.061325978487730026,0.13435843586921692,-0.01144042145460844
1772594443599373000,1.037373046875,-0.3754054307937622,0.27683159708976746,-0.13183090090751648
1772594443619637000,1.057636962890625,-0.4549562931060791,0.02633957378566265,-0.03285795450210571
1772594443639901000,1.07790087890625,-0.33882269263267517,-0.2865426540374756,0.11387209594249725
1772594443660164000,1.0981640625,-0.20818905532360077,-0.455488383769989,0.1904963105916977
1772594443680428000,1.118427978515625,-0.0993720293045044,-0.485685795545578,0.2047303318977356
1772594443700692000,1.13869189453125,-0.0034587320405989885,-0.4963280260562897,0.21204687654972076
1772594443720955000,1.158954833984375,0.07502787560224533,-0.541424572467804,0.23812039196491241
1772594443741219000,1.179218994140625,0.08567012846469879,-0.40706613659858704,0.18211553990840912
1772594443761483000,1.19948291015625,0.1339593529701233,-0.35757967829704285,0.14406949281692505
1772594443781746000,1.219745849609375,0.15497779846191406,-0.2419782131910324,0.07675724476575851
1772594443802010000,1.240010009765625,0.17599624395370483,-0.21444137394428253,0.07329851388931274
1772594443822274000,1.260274169921875,0.19568441808223724,-0.1717393398284912,0.07289943099021912
1772594443842537000,1.280536865234375,0.2393176406621933,-0.25009292364120483,0.12025745213031769
1772594443862801000,1.30080078125,0.23532679677009583,-0.2800242602825165,0.14752821624279022
1772594443883065000,1.321065185546875,0.3791302442550659,-0.19954222440719604,0.13622082769870758
1772594443903328000,1.341327880859375,0.7879257202148438,-0.11892716586589813,0.13808321952819824
1772594443923592000,1.361592041015625,0.7888569235801697,-0.12584462761878967,0.13808321952819824
1772594443943856000,1.381856201171875,0.6309525370597839,-0.035651545971632004,0.09977111220359802
1772594443964119000,1.402119140625,0.3876440227031708,0.0007981689414009452,0.06558287888765335
1772594443984383000,1.422383056640625,0.3623686730861664,-0.030862530693411827,0.09378484636545181
1772594444004647000,1.44264697265625,0.25275349617004395,-0.09897294640541077,0.15005575120449066
1772594444024910000,1.46291015625,0.18544124066829681,-0.1136060431599617,0.21377624571323395
1772594444045174000,1.483174072265625,0.06717921793460846,-0.08300956338644028,0.2349277138710022
1772594444065438000,1.50343798828125,-0.031926754862070084,0.016894575208425522,0.4584150016307831
1772594444085701000,1.523701171875,-0.10908308625221252,0.2672535479068756,0.7861963510513306
1772594444105965000,1.543965087890625,-0.14566582441329956,0.29106560349464417,0.8002973794937134
1772594444126229000,1.56422900390625,-0.14992272853851318,0.1471291333436966,0.6705949306488037
1772594444146492000,1.584491943359375,-0.1487254798412323,0.059463582932949066,0.5269244909286499
1772594444166756000,1.604756103515625,-0.13901442289352417,0.04935344308614731,0.39057064056396484
1772594444187020000,1.62502001953125,-0.08367470651865005,0.016761546954512596,0.2393176406621933
1772594444207283000,1.645282958984375,-0.06438562273979187,0.01982119493186474,0.21883131563663483
1772594444227547000,1.665546875,-0.04549562931060791,0.045096542686223984,0.1673494130373001
1772594444247811000,1.68581103515625,-0.011839505285024643,0.011706477031111717,0.043500207364559174
1772594444268074000,1.706073974609375,-0.020619364455342293,0.07449576258659363,0.12664279341697693
1772594444288338000,1.726337890625,-0.030064363032579422,0.1580374389886856,-0.0014633096288889647
1772594444308602000,1.74660205078125,-0.020220279693603516,0.1339593529701233,-0.04908738657832146
1772594444328865000,1.766864990234375,-0.011573448777198792,0.08207836747169495,-0.037513937801122665
1772594444349129000,1.78712890625,-0.003059647511690855,0.021284503862261772,-0.00971105508506298
1772594444369393000,1.807392822265625,-0.008380773477256298,0.13249604403972626,-0.12065653502941132
1772594444389656000,1.827656005859375,-0.05361034348607063,0.2619324326515198,-0.14526674151420593
1772594444409920000,1.847919921875,-0.043766263872385025,0.18703758716583252,-0.11214273422956467
1772594444430184000,1.868183837890625,-0.01144042145460844,0.04855527728796005,-0.029133165255188942
1772594444450447000,1.888447021484375,-0.03365612402558327,0.1383492797613144,-0.11639963090419769
1772594444470711000,1.9087109375,-0.053876399993896484,0.20672574639320374,-0.11533540487289429
1772594444490975000,1.92897509765625,-0.052546121180057526,0.2250836342573166,-0.11613357812166214
1772594444511238000,1.94923779296875,-0.024876264855265617,0.15777139365673065,-0.09857386350631714
1772594444531502000,1.969502197265625,-0.0065183793194592,0.040972672402858734,-0.025541406124830246
1772594444551766000,1.98976611328125,0.056004852056503296,-0.05999569594860077,-0.05733513459563255
1772594444572029000,2.01002880859375,0.014500068500638008,-0.01556429360061884,-0.014899153262376785
1772594444592293000,2.030293212890625,0.03525245934724808,-0.10256470739841461,-0.07622513175010681
1772594444612557000,2.05055712890625,0.02354598231613636,-0.0905921682715416,-0.10495921224355698
1772594444632820000,2.070820068359375,0.03551851585507393,-0.12770701944828033,-0.14313828945159912
1772594444653084000,2.091083984375,0.0395093597471714,-0.1344914585351944,-0.1602989286184311
1772594444673348000,2.11134814453125,0.02327992580831051,-0.11666569113731384,-0.18065223097801208
1772594444693611000,2.131611083984375,-0.0034587320405989885,-0.11493632197380066,-0.19408807158470154
1772594444713875000,2.151875,-0.036848798394203186,-0.11187667399644852,-0.20606060326099396
1772594444734139000,2.172138916015625,-0.08939491957426071,-0.20220279693603516,-0.39775416254997253
1772594444754403000,2.192403076171875,-0.10389498621225357,-0.38884130120277405,-0.718218982219696
1772594444774666000,2.212666015625,-0.11187667399644852,-0.3780660033226013,-0.7674394249916077
1772594444794930000,2.232929931640625,-0.10881702601909637,-0.25288650393486023,-0.6776453852653503
1772594444815194000,2.253194091796875,-0.07981689274311066,-0.2145744115114212,-0.548608124256134
1772594444835457000,2.27345703125,-0.052546121180057526,-0.20778997242450714,-0.43047910928726196
1772594444855721000,2.293720947265625,-0.05933055654168129,-0.08979400247335434,-0.3829880356788635
1772594444875985000,2.31398486328125,-0.056536965072155,-0.009977111592888832,-0.27244165539741516
1772594444896248000,2.334248046875,-0.07968386262655258,0.026605630293488503,-0.3029051125049591
1772594444916512000,2.354511962890625,-0.10628949105739594,-0.07396364957094193,-0.2755013108253479
1772594444936776000,2.37477587890625,-0.0905921682715416,-0.23998278379440308,-0.12504646182060242
1772594444957039000,2.3950390625,-0.08992703258991241,-0.340951144695282,-0.05693604797124863
1772594444977303000,2.415302978515625,-0.08194534480571747,-0.3787311613559723,-0.017958801239728928
1772594444997567000,2.43556689453125,-0.05121583864092827,-0.3425475060939789,0.001064225216396153
1772594445017830000,2.455829833984375,-0.014367040246725082,-0.2552810311317444,0.022348729893565178
1772594445038094000,2.476093994140625,0.021550560370087624,-0.2979830503463745,0.04908738657832146
1772594445058358000,2.49635791015625,0.04549562931060791,-0.3090243935585022,0.05680302157998085
1772594445078621000,2.516620849609375,0.050683725625276566,-0.31155192852020264,0.039110276848077774
1772594445098885000,2.536885009765625,0.02540837787091732,-0.06292231380939484,-0.10163351148366928
1772594445119149000,2.557149169921875,0.009311970323324203,0.01822485774755478,-0.19036328792572021
1772594445139412000,2.577411865234375,-0.001064225216396153,-0.08074808865785599,-0.2272120863199234
1772594445159676000,2.597676025390625,-0.0025275349617004395,-0.42662128806114197,-0.5427548885345459
1772594445179940000,2.617940185546875,-0.0007981689414009452,-0.5871862769126892,-0.7329851388931274
1772594445200203000,2.638203125,0.0015963378828018904,-0.4095936715602875,-0.6538333892822266
1772594445220467000,2.658467041015625,0.009844083338975906,-0.34108418226242065,-0.4659976065158844
1772594445240731000,2.67873095703125,0.017426688224077225,-0.37513938546180725,-0.2661893367767334
1772594445260994000,2.698994140625,0.012903730385005474,-0.26379483938217163,-0.11240878701210022
1772594445281258000,2.719258056640625,0.015032181516289711,-0.05108281224966049,0.3272492587566376
1772594445301522000,2.73952197265625,0.005986266769468784,0.08407378941774368,0.6054111123085022
1772594445321785000,2.75978515625,0.005055069923400879,-0.00784866139292717,0.5834614634513855
1772594445342049000,2.780049072265625,0.0015963378828018904,-0.06544984877109528,0.4796995222568512
1772594445362313000,2.80031298828125,-0.0055871824733912945,-0.12371618300676346,0.3941624164581299
1772594445382576000,2.820576171875,-0.0070504918694496155,-0.1427392065525055,0.31301525235176086
1772594445402840000,2.840840087890625,0.001064225216396153,-0.09405090659856796,0.2024688422679901
1772594445423104000,2.86110400390625,0.007715632673352957,-0.08034900575876236,0.16748245060443878
1772594445443367000,2.881366943359375,0.004922041669487953,-0.03857816383242607,0.0784866064786911
1772594445463631000,2.901631103515625,0.03551851585507393,-0.08567012846469879,0.13249604403972626
1772594445483895000,2.92189501953125,0.009178942069411278,-0.022215701639652252,0.03445428982377052
1772594445504158000,2.942157958984375,0.0023945067077875137,-0.00572021072730422,0.008912886492908001
1772594445524422000,2.962421875,0.1646888554096222,-0.07183520495891571,0.16202828288078308
1772594445544686000,2.98268603515625,0.09671146422624588,0.09484907239675522,0.05015161260962486
1772594445564949000,3.002948974609375,0.02514232136309147,0.024610208347439766,0.0130367586389184
1772594445585213000,3.023212890625,0.2085881382226944,-0.04576168581843376,0.08739949762821198
1772594445605477000,3.04347705078125,0.18889997899532318,-0.023146897554397583,0.050018586218357086
1772594445625740000,3.063739990234375,0.11772991716861725,-0.011706477031111717,0.02700471505522728
1772594445646004000,3.08400390625,0.2458360195159912,-0.04150478169322014,0.03831210732460022
1772594445666268000,3.104267822265625,0.18889997899532318,-0.019289081916213036,0.0172936599701643
1772594445686531000,3.124531005859375,0.1690787822008133,0.14686307311058044,-0.04323415085673332
1772594445706795000,3.144794921875,0.11653266102075577,0.40467163920402527,-0.13236300647258759
1772594445727059000,3.165058837890625,0.06704618781805038,0.41145607829093933,-0.13688597083091736
1772594445747322000,3.185322021484375,0.0477571077644825,0.20659272372722626,-0.08021597564220428
1772594445767586000,3.2055859375,0.025009293109178543,0.0828765407204628,-0.03631668537855148
1772594445787850000,3.22585009765625,0.04562865570187569,0.04735802114009857,-0.06491773575544357
1772594445808113000,3.24611279296875,0.03179372847080231,0.02540837787091732,-0.045096542686223984
1772594445828377000,3.266377197265625,0.04110569879412651,-0.12198681384325027,-0.010243168100714684
1772594445848641000,3.28664111328125,0.010642251931130886,-0.03166069835424423,-0.0026605629827827215
1772594445868904000,3.306904052734375,0.0027935912366956472,-0.008247745223343372,-0.0006651407456956804
1772594445889168000,3.32716796875,0.09458301961421967,-0.03259189799427986,-0.014234011992812157
1772594445909432000,3.34743212890625,0.07236731797456741,-0.023945067077875137,-0.010908308438956738
1772594445929695000,3.367695068359375,0.10562435537576675,-0.10855097323656082,-0.016229433938860893
1772594445949959000,3.387958984375,0.07582604885101318,-0.09298668056726456,-0.01982119493186474
1772594445970223000,3.40822314453125,0.07835358381271362,-0.19036328792572021,0.0063853515312075615
1772594445990486000,3.428486083984375,0.06159203499555588,-0.2507580518722534,0.022481758147478104
1772594446010750000,3.44875,0.04203689470887184,-0.23452863097190857,0.006252323277294636
1772594446031014000,3.469013916015625,0.017958801239728928,-0.1125418171286583,-0.0009311970788985491
1772594446051278000,3.489278076171875,0.047224994748830795,-0.09391787648200989,-0.07928477972745895
1772594446071541000,3.509541015625,0.050018586218357086,-0.10988125205039978,-0.05440851300954819
1772594446091805000,3.529804931640625,0.04057358577847481,-0.1146702691912651,-0.04403231665492058
1772594446112069000,3.550069091796875,0.024610208347439766,-0.07369759678840637,-0.026738658547401428
1772594446132332000,3.57033203125,0.0007981689414009452,-0.1257116049528122,-0.06651407480239868
1772594446152596000,3.590595947265625,-0.017027603462338448,0.01569732278585434,-0.09032611548900604
1772594446172860000,3.61085986328125,-0.030197391286492348,0.10083533823490143,-0.11892716586589813
1772594446193123000,3.631123046875,-0.016495490446686745,0.06305534392595291,-0.06052780896425247
1772594446213387000,3.651386962890625,-0.004256900865584612,0.01636246219277382,-0.01569732278585434
1772594446233651000,3.67165087890625,-0.02860105223953724,0.035651545971632004,-0.09391787648200989
1772594446253914000,3.6919140625,-0.03432126343250275,0.16349159181118011,-0.13967956602573395
1772594446274178000,3.712177978515625,-0.025541406124830246,0.25980398058891296,-0.14180800318717957
1772594446294442000,3.73244189453125,-0.01982119493186474,0.24929475784301758,-0.11759688705205917
1772594446314705000,3.752704833984375,-0.018623940646648407,0.22135885059833527,-0.07635816186666489
1772594446334969000,3.772968994140625,-0.017027603462338448,0.2206937074661255,-0.04243598133325577
1772594446355233000,3.79323291015625,-0.012105561792850494,0.22521665692329407,-0.02288084290921688
1772594446375496000,3.813495849609375,-0.005188097711652517,0.11520238220691681,-0.009178942069411278
1772594446395760000,3.833760009765625,-0.0013302814913913608,0.029931334778666496,-0.0023945067077875137
1772594446416024000,3.854024169921875,-0.0018623941577970982,0.05746816098690033,0.07236731797456741
1772594446436287000,3.874286865234375,-0.0013302814913913608,0.040307529270648956,0.056004852056503296
1772594446456551000,3.894551025390625,-0.012637674808502197,0.1559089869260788,-0.009045914746820927
1772594446476815000,3.914815185546875,-0.01050922367721796,0.1987440586090088,-0.03392218053340912
1772594446497078000,3.935078125,-0.009045914746820927,0.24556997418403625,-0.04922041669487953
1772594446517342000,3.955342041015625,-0.01050922367721796,0.246501162648201,-0.04576168581843376
1772594446537606000,3.97560595703125,-0.0026605629827827215,0.06398653984069824,-0.011839505285024643
1772594446557869000,3.995869140625,0.007183520123362541,-0.02381203882396221,0.09830780327320099
1772594446578133000,4.016133056640625,0.0018623941577970982,-0.006252323277294636,0.025541406124830246
1772594446598397000,4.03639697265625,0.0005321126081980765,-0.0015963378828018904,0.006651407573372126
1772594446618660000,4.05666015625,0.01888999715447426,-0.030862530693411827,0.11493632197380066
1772594446638924000,4.076924072265625,0.004922041669487953,-0.007981688715517521,0.02979830652475357
1772594446659188000,4.09718798828125,0.0013302814913913608,-0.002128450432792306,0.007715632673352957
1772594446679451000,4.117450927734375,0.00026605630409903824,-0.0005321126081980765,0.0019954221788793802
1772594446699715000,4.137715087890625,0.00013302815204951912,-0.00013302815204951912,0.0005321126081980765
1772594446719979000,4.15797900390625,0.05281217768788338,-0.2163037806749344,0.07981689274311066
1772594446740242000,4.178241943359375,0.022215701639652252,-0.2491617351770401,0.05959661304950714
1772594446760506000,4.198506103515625,0.0130367586389184,-0.31261616945266724,0.06225717440247536
1772594446780770000,4.21877001953125,0.013169786892831326,-0.28946927189826965,0.041903868317604065
1772594446801033000,4.239032958984375,0.013701899908483028,-0.1722714602947235,-0.003059647511690855
1772594446821297000,4.259296875,0.008779858238995075,-0.09418392926454544,-0.00784866139292717
1772594446841561000,4.27956103515625,0.0022614786867052317,-0.02447718009352684,-0.0019954221788793802
1772594446861824000,4.299823974609375,0.01849091239273548,-0.06811041384935379,-0.07449576258659363
1772594446882088000,4.320087890625,0.0047890134155750275,-0.017692744731903076,-0.019289081916213036
1772594446902352000,4.340351806640625,0.023945067077875137,-0.09391787648200989,-0.04922041669487953
1772594446922615000,4.360614990234375,0.006252323277294636,-0.024344151839613914,-0.012770703062415123
1772594446942879000,4.38087890625,0.026871686801314354,0.058532387018203735,-0.08101414144039154
1772594446963143000,4.401142822265625,0.022215701639652252,0.14007864892482758,-0.11639963090419769
1772594446983406000,4.421406005859375,0.0070504918694496155,0.08314259350299835,-0.05866541340947151
1772594447003670000,4.441669921875,0.0018623941577970982,0.021550560370087624,-0.015165209770202637
1772594447023934000,4.461933837890625,0.0005321126081980765,0.0055871824733912945,-0.0039908443577587605
1772594447044197000,4.482197021484375,0.003325703786686063,0.004922041669487953,-0.08207836747169495
1772594447064461000,4.5024609375,0.0025275349617004395,0.003059647511690855,-0.06265626102685928
1772594447084725000,4.52272509765625,0.0006651407456956804,0.0007981689414009452,-0.016229433938860893
1772594447104988000,4.54298779296875,0.00013302815204951912,0.00026605630409903824,-0.004256900865584612
1772594447125252000,4.563252197265625,0.030862530693411827,-0.19821195304393768,0.025275349617004395
1772594447145516000,4.58351611328125,0.02101844735443592,-0.4384607970714569,0.11626660823822021
1772594447165779000,4.603779052734375,0.00971105508506298,-0.325918972492218,0.09019308537244797
1772594447186043000,4.62404296875,0.014633096754550934,-0.2294735610485077,0.04988555610179901
1772594447206307000,4.64430712890625,0.009578026831150055,0.05906450003385544,-0.05108281224966049
1772594447226570000,4.664570068359375,0.0025275349617004395,0.015298237092792988,-0.013302815146744251
1772594447246834000,4.684833984375,0.010908308438956738,-0.16761547327041626,0.009578026831150055
1772594447267098000,4.70509814453125,0.00784866139292717,-0.2047303318977356,0.04655985161662102
1772594447287361000,4.725361083984375,0.013169786892831326,-0.17333568632602692,0.05427548661828041
1772594447307625000,4.745625,0.009045914746820927,-0.10615646839141846,0.03551851585507393
1772594447327889000,4.765888916015625,0.0023945067077875137,-0.027536828070878983,0.009178942069411278
1772594447348153000,4.786153076171875,0.0006651407456956804,-0.007183520123362541,0.0023945067077875137
1772594447368416000,4.806416015625,0.03352309390902519,-0.10735371708869934,0.03179372847080231
1772594447388680000,4.826679931640625,0.03272492438554764,-0.1843770146369934,0.053211260586977005
1772594447408944000,4.846944091796875,0.012105561792850494,-0.10030322521924973,0.02860105223953724
1772594447429207000,4.86720703125,0.01849091239273548,-0.14300526678562164,0.03631668537855148
1772594447449471000,4.887470947265625,0.012637674808502197,-0.09671146422624588,0.024078095331788063
1772594447469735000,4.90773486328125,0.003325703786686063,-0.02514232136309147,0.006252323277294636
1772594447489998000,4.927998046875,0.028201967477798462,-0.19036328792572021,0.038445137441158295
1772594447510262000,4.948261962890625,0.007316548377275467,-0.04948647320270538,0.009977111592888832
1772594447530526000,4.96852587890625,0.011839505285024643,-0.09963808953762054,0.011839505285024643
1772594447550789000,4.9887890625,0.008114716969430447,-0.07010583579540253,0.007715632673352957
1772594447571053000,5.009052978515625,0.0029266192577779293,0.10722068697214127,-0.04137175530195236
1772594447591317000,5.02931689453125,0.0011972533538937569,0.09178942441940308,-0.03285795450210571
1772594447611580000,5.049579833984375,-0.003325703786686063,0.32418960332870483,-0.10934913903474808
1772594447631844000,5.069843994140625,-0.005853238515555859,0.4254240393638611,-0.14792729914188385
1772594447652108000,5.09010791015625,-0.0039908443577587605,0.3039693236351013,-0.10602343827486038
1772594447672371000,5.110370849609375,0.0009311970788985491,0.2305377870798111,-0.08367470651865005
1772594447692635000,5.130634765625,0.00026605630409903824,0.05986266955733299,-0.02168358862400055
1772594447712899000,5.150899169921875,0,0.01556429360061884,-0.0055871824733912945
1772594447733162000,5.171161865234375,0,0.0039908443577587605,-0.0014633096288889647
1772594447753426000,5.191426025390625,0,0.001064225216396153,-0.0003990844707004726
1772594447773690000,5.211690185546875,0.0614590048789978,0.1438034325838089,-0.07196822762489319
1772594447793953000,5.231953125,0.03166069835424423,0.12172076106071472,-0.05028464272618294
1772594447814217000,5.252217041015625,0.016229433938860893,0.0746287927031517,-0.029133165255188942
1772594447834481000,5.27248095703125,0.004256900865584612,0.01942211017012596,-0.007582604885101318
1772594447854744000,5.292744140625,0.001064225216396153,0.005055069923400879,-0.0019954221788793802
1772594447875008000,5.313008056640625,0.05906450003385544,-0.1295694261789322,0.009844083338975906
1772594447895272000,5.33327197265625,0.015298237092792988,-0.03365612402558327,0.0025275349617004395
1772594447915535000,5.35353515625,0.03139464557170868,-0.1678815335035324,0.03738091140985489
1772594447935799000,5.373799072265625,0.008114716969430447,-0.04363323375582695,0.00971105508506298
1772594447956063000,5.39406298828125,0.002128450432792306,-0.011307393200695515,0.0025275349617004395
1772594447976326000,5.414325927734375,0.02261478640139103,-0.1223858967423439,0.004922041669487953
1772594447996590000,5.434590087890625,0.005853238515555859,-0.03179372847080231,0.0013302814913913608
1772594448016854000,5.45485400390625,0.095514215528965,0.04363323375582695,-0.034055206924676895
1772594448037117000,5.475116943359375,0.02474323660135269,0.011307393200695515,-0.008912886492908001
1772594448057381000,5.495381103515625,0.1531154066324234,0.06837646663188934,-0.028201967477798462
1772594448077645000,5.51564501953125,0.09365181624889374,0.07595907151699066,-0.019954223185777664
1772594448097908000,5.535907958984375,0.05174795165657997,0.04935344308614731,-0.011573448777198792
1772594448118172000,5.556171875,0.013435843400657177,0.012770703062415123,-0.003059647511690855
1772594448138436000,5.57643603515625,0.0034587320405989885,0.003325703786686063,-0.0007981689414009452
1772594448158699000,5.596698974609375,0.050417669117450714,-0.10469315201044083,0.06997280567884445
1772594448178963000,5.616962890625,0.03831210732460022,-0.08088111877441406,0.053876399993896484
1772594448199227000,5.637226806640625,0.005055069923400879,-0.16867969930171967,0.06957372277975082
1772594448219490000,5.657489990234375,0.0013302814913913608,-0.043766263872385025,0.018091829493641853
1772594448239754000,5.67775390625,-0.01050922367721796,0.0867343544960022,-0.02168358862400055
1772594448260018000,5.698017822265625,-0.01822485774755478,0.21417532861232758,-0.06598196178674698
1772594448280281000,5.718281005859375,-0.009844083338975906,0.127840057015419,-0.04110569879412651
1772594448310677000,5.748677001953125,-0.0013302814913913608,0.016894575208425522,-0.005454154219478369
1772594448330941000,5.76894091796875,-0.0003990844707004726,0.004389929119497538,-0.0014633096288889647
1772594448351204000,5.7892041015625,-0.12544554471969604,-0.01556429360061884,-0.07250034064054489
1772594448371468000,5.809468017578125,-0.08380773663520813,-0.04177083820104599,-0.03112858720123768
1772594448391732000,5.82973193359375,-0.047890134155750275,-0.030064363032579422,-0.014367040246725082
1772594448411995000,5.849994873046875,-0.012371618300676346,-0.00784866139292717,-0.0037247883155941963
1772594448432259000,5.870259033203125,-0.0031926757656037807,-0.0019954221788793802,-0.0009311970788985491
1772594448452523000,5.89052294921875,-0.0007981689414009452,-0.0005321126081980765,-0.00026605630409903824
1772594448472786000,5.910785888671875,-0.00026605630409903824,-0.00013302815204951912,0
1772594448493050000,5.931050048828125,0,0,0
1772594448513314000,5.95131396484375,0,0,0
1772594448533577000,5.971576904296875,-0.03551851585507393,0.019954223185777664,0.05108281224966049
1772594448553841000,5.9918408203125,-0.02727077156305313,0.015298237092792988,0.03924330323934555
1772594448574105000,6.01210498046875,0.0307295024394989,-0.19901011884212494,0.09671146422624588
1772594448594368000,6.032367919921875,0.04230295121669769,-0.1509869545698166,0.05839935690164566
1772594448614632000,6.0526318359375,0.028468023985624313,-0.08979400247335434,0.03205978497862816
1772594448634896000,6.072895751953125,0.08300956338644028,-0.006252323277294636,-0.00784866139292717
1772594448655159000,6.093158935546875,0.060128726065158844,0.0070504918694496155,-0.010243168100714684
1772594448675423000,6.113423095703125,0.01556429360061884,0.0018623941577970982,-0.0026605629827827215
1772594448695687000,6.13368701171875,0.0658489316701889,0.07063794881105423,-0.036848798394203186
1772594448715950000,6.1539501953125,0.05427548661828041,0.24410666525363922,-0.10269773006439209
1772594448736214000,6.174214111328125,0.01476612500846386,0.43659839034080505,-0.1750650554895401
1772594448756478000,6.19447802734375,0.004922041669487953,0.30317115783691406,-0.12145470082759857
1772594448776741000,6.2147412109375,0.002128450432792306,0.1492575854063034,-0.05959661304950714
1772594448797005000,6.235005126953125,0.009178942069411278,0.15777139365673065,-0.03525245934724808
1772594448817269000,6.25526904296875,0.02008725143969059,0.11081244796514511,-0.0065183793194592
1772594448837532000,6.275531982421875,0.014234011992812157,0.06438562273979187,-0.00026605630409903824
1772594448857796000,6.295796142578125,0.08979400247335434,0.07609210163354874,0.00971105508506298
1772594448878060000,6.31606005859375,0.02327992580831051,0.01982119493186474,0.0025275349617004395
1772594448898323000,6.336322998046875,0.17160631716251373,-0.10269773006439209,0.04749105125665665
1772594448918587000,6.3565869140625,0.14832639694213867,-0.06611499190330505,0.020220279693603516
1772594448938851000,6.37685107421875,0.17134025692939758,-0.16056497395038605,0.04735802114009857
1772594448959114000,6.397114013671875,0.15484477579593658,-0.20672574639320374,0.06066083908081055
1772594448979378000,6.4173779296875,0.07569301873445511,-0.10575737804174423,0.030596474185585976
1772594448999642000,6.43764208984375,0.13954652845859528,0.0025275349617004395,-0.01636246219277382
1772594449019905000,6.457905029296875,0.03618365898728371,0.0006651407456956804,-0.004256900865584612
1772594449040169000,6.4781689453125,0.12504646182060242,0.0389772467315197,-0.01755971647799015
1772594449060433000,6.498432861328125,0.08167928457260132,0.22255609929561615,-0.07502787560224533
1772594449080696000,6.518696044921875,0.043766263872385025,0.3353639841079712,-0.11227575689554214
1772594449100960000,6.5389599609375,0.024610208347439766,0.3831210732460022,-0.1344914585351944
1772594449121224000,6.559223876953125,0.01476612500846386,0.3766027092933655,-0.13635385036468506
1772594449141487000,6.579487060546875,0.013701899908483028,0.4121212065219879,-0.15058787167072296
1772594449161751000,6.5997509765625,0.009844083338975906,0.3123500943183899,-0.11546843498945236
1772594449182015000,6.620014892578125,0.011839505285024643,0.20991842448711395,-0.07822055369615555
1772594449202278000,6.64027783203125,0.003059647511690855,0.05454154312610626,-0.02035330794751644
1772594449222542000,6.6605419921875,0.028068939223885536,0.14845941960811615,-0.03605062887072563
1772594449242806000,6.680805908203125,0.007316548377275467,0.03857816383242607,-0.009311970323324203
1772594449263069000,6.70106884765625,0.0018623941577970982,0.009977111592888832,-0.0023945067077875137
1772594449283333000,6.7213330078125,0.0005321126081980765,0.0026605629827827215,-0.0006651407456956804
1772594449303597000,6.74159716796875,0.02727077156305313,-0.1223858967423439,0.018357884138822556
1772594449323861000,6.761861083984375,0.01888999715447426,-0.18238160014152527,0.055339712649583817
1772594449344124000,6.7821240234375,0.0038578163366764784,-0.0921885073184967,0.03538548946380615
1772594449364388000,6.80238818359375,-0.025940489023923874,-0.011839505285024643,0.08314259350299835
1772594449384652000,6.822652099609375,-0.020486336201429367,0.003059647511690855,0.05933055654168129
1772594449404915000,6.8429150390625,-0.0877985805273056,0.06345442682504654,0.10402801632881165
1772594449425179000,6.863178955078125,-0.10110139846801758,-0.025674432516098022,0.11161062121391296
1772594449445443000,6.883443115234375,-0.11533540487289429,-0.07196822762489319,0.11200970411300659
1772594449465706000,6.9037060546875,-0.12664279341697693,0.060394782572984695,0.050683725625276566
1772594449485970000,6.923969970703125,-0.1283721625804901,0.0999041423201561,0.024610208347439766
1772594449506234000,6.944234130859375,-0.1273079365491867,0.0047890134155750275,0.055738795548677444
1772594449526497000,6.9644970703125,-0.159101665019989,-0.1843770146369934,0.13768413662910461
1772594449546761000,6.984760986328125,-0.1344914585351944,-0.22255609929561615,0.1416749805212021
1772594449567025000,7.00502490234375,-0.11586751788854599,-0.2562122344970703,0.15497779846191406
1772594449587288000,7.0252880859375,-0.08952794969081879,-0.340951144695282,0.18317976593971252
1772594449607552000,7.045552001953125,-0.05587182566523552,-0.40799733996391296,0.19328990578651428
1772594449627816000,7.06581591796875,-0.020885419100522995,-0.29053348302841187,0.12637674808502197
1772594449648079000,7.0860791015625,0.02447718009352684,-0.2858774960041046,0.10243167728185654
1772594449668343000,7.106343017578125,0.06185809150338173,-0.20499637722969055,0.05121583864092827
1772594449688607000,7.12660693359375,0.1636246293783188,0.03990844637155533,-0.07609210163354874
1772594449708870000,7.146869873046875,0.5297181010246277,0.23745524883270264,-0.1630925089120865
1772594449729134000,7.167134033203125,0.7917835712432861,0.17825771868228912,-0.1503218114376068
1772594449749398000,7.18739794921875,0.6656728982925415,0.029931334778666496,-0.09697752445936203
1772594449769661000,7.207660888671875,0.3759375512599945,-0.017958801239728928,-0.055738795548677444
1772594449789925000,7.227925048828125,-0.14579886198043823,-0.08207836747169495,-0.06944069266319275
1772594449810189000,7.24818896484375,-0.5647044777870178,-0.061991117894649506,-0.060394782572984695
1772594449830452000,7.268451904296875,-0.5500714182853699,-0.08633527159690857,-0.029266193509101868
1772594449850716000,7.2887158203125,-0.4369974732398987,-0.10522526502609253,0.005188097711652517
1772594449870980000,7.30897998046875,-0.2874738276004791,-0.013169786892831326,-0.015165209770202637
1772594449891243000,7.329242919921875,-0.2382534146308899,0.16389068961143494,-0.08141323179006577
1772594449911507000,7.3495068359375,-0.19954222440719604,0.23452863097190857,-0.16708335280418396
1772594449931771000,7.36977099609375,-0.28414812684059143,-0.12690885365009308,-0.4534929692745209
1772594449952034000,7.390033935546875,-0.3195336163043976,-0.5117592811584473,-0.5996909141540527
1772594449972298000,7.410298095703125,-0.2751022279262543,-0.40254318714141846,-0.5298511385917664
1772594449992562000,7.43056201171875,-0.23812039196491241,-0.21377624571323395,-0.4122542440891266
1772594450012825000,7.4508251953125,-0.16721639037132263,-0.0872664675116539,-0.24118003249168396
1772594450033089000,7.471089111328125,-0.17958800494670868,-0.024078095331788063,-0.20047342777252197
1772594450053353000,7.49135302734375,-0.2635287642478943,0.018623940646648407,-0.14726217091083527
1772594450073616000,7.511615966796875,-0.45588746666908264,0.32951071858406067,-0.21976250410079956
1772594450093880000,7.531880126953125,-0.14752821624279022,0.22707904875278473,-0.0867343544960022
1772594450114144000,7.55214404296875,0.04709196463227272,0.1015004813671112,0.01942211017012596
1772594450134407000,7.572406982421875,0.3453410863876343,0.043766263872385025,0.09697752445936203
1772594450154671000,7.592671142578125,0.5970303416252136,-0.06425260007381439,0.14500068128108978
1772594450174935000,7.61293505859375,0.41252028942108154,-0.3215290307998657,0.1827806830406189
1772594450195198000,7.633197998046875,-0.08819766342639923,-0.4467085301876068,0.15550990402698517
1772594450215462000,7.6534619140625,-0.4677269756793976,-0.3579787611961365,0.08567012846469879
1772594450235726000,7.67372607421875,-0.5524659156799316,-0.22215701639652252,0.028734080493450165
1772594450255989000,7.693989013671875,-0.5097638964653015,-0.11719780415296555,0.006917464081197977
1772594450276253000,7.7142529296875,-0.3325703740119934,-0.03232584148645401,0.008114716969430447
1772594450296517000,7.73451708984375,-0.3215290307998657,-0.043500207364559174,0.09192245453596115
1772594450316780000,7.754780029296875,-0.14553280174732208,-0.06824344396591187,0.12065653502941132
1772594450337044000,7.7750439453125,-0.007582604885101318,0.11480329185724258,0.1843770146369934
1772594450357308000,7.795307861328125,0.23891855776309967,0.3025060296058655,0.12318406999111176
1772594450377571000,7.815571044921875,0.15843652188777924,0.33496490120887756,0.10495921224355698
1772594450397835000,7.8358349609375,-0.5106950998306274,0.2377213090658188,0.11427118629217148
1772594450418099000,7.856098876953125,-0.9809495806694031,0.19395504891872406,0.10216562449932098
1772594450438362000,7.876362060546875,-1.0502572059631348,0.38724493980407715,0.051348865032196045
1772594450458626000,7.8966259765625,-0.8698710799217224,0.76411372423172,0.2645930051803589
1772594450478890000,7.916889892578125,-0.619113028049469,0.8984721302986145,0.4605434536933899
1772594450499153000,7.93715283203125,-0.45149755477905273,0.7951092720031738,0.44311678409576416
1772594450519417000,7.9574169921875,-0.3353639841079712,0.8418021202087402,0.5640393495559692
1772594450539681000,7.977680908203125,-0.20273490250110626,0.870536208152771,0.6201772689819336
1772594450559944000,7.99794384765625,0.11892716586589813,0.9367842674255371,0.403873473405838
1772594450580208000,8.0182080078125,0.25288650393486023,1.071009635925293,0.1673494130373001
1772594450600472000,8.03847216796875,0.3573136031627655,1.2326388359069824,0.003059647511690855
1772594450620736000,8.058736083984375,0.4010798931121826,1.6033883094787598,0.0035917600616812706
1772594450640999000,8.0789990234375,0.4066670536994934,2.304579734802246,0.36862102150917053
1772594450661263000,8.09926318359375,0.014367040246725082,2.798513174057007,1.1389870643615723
1772594450681527000,8.119527099609375,-1.1670559644699097,2.63142991065979,1.9782615900039673
1772594450701790000,8.1397900390625,-2.397433280944824,2.1313769817352295,2.7000722885131836
1772594450722054000,8.160053955078125,-3.045945644378662,1.6428977251052856,3.0372986793518066
1772594450742318000,8.180318115234375,-3.068028211593628,1.2451435327529907,2.897752285003662
1772594450762581000,8.2005810546875,-2.6890311241149902,0.9124401211738586,2.4966723918914795
1772594450782845000,8.220844970703125,-2.319478750228882,0.826370894908905,2.020697593688965
1772594450803109000,8.241109130859375,-1.7519807815551758,1.0825830698013306,1.564677119255066
1772594450823372000,8.2613720703125,-1.100408911705017,1.6065809726715088,1.007289171218872
1772594450843636000,8.281635986328125,-0.8049533367156982,2.160776376724243,0.4089285433292389
1772594450863900000,8.30189990234375,-0.7768844366073608,2.5494844913482666,-0.08048202842473984
1772594450884163000,8.3221630859375,-0.851912260055542,3.0430190563201904,-0.4626719057559967
1772594450904427000,8.342427001953125,-1.228248953819275,3.7347652912139893,-0.5877183675765991
1772594450924691000,8.36269091796875,-1.5898194313049316,4.2148637771606445,-0.5451493859291077
1772594450944954000,8.3829541015625,-1.9313026666641235,4.144093036651611,-0.5704247355461121
1772594450965218000,8.403218017578125,-2.2678639888763428,3.7706830501556396,-0.38338714838027954
1772594450985482000,8.42348193359375,-2.512502670288086,3.24588680267334,0.13302814960479736
1772594451005745000,8.443744873046874,-2.5780856609344482,2.513700008392334,0.6767141819000244
1772594451026009000,8.464009033203125,-2.1526615619659424,0.36795586347579956,1.6871960163116455
1772594451046273000,8.48427294921875,-1.011546015739441,-3.7318387031555176,3.1518359184265137
1772594451066536000,8.504535888671874,-0.8094763159751892,-4.384341716766357,2.69315505027771
1772594451086800000,8.5247998046875,-1.417414903640747,-2.354997396469116,1.8179627656936646
1772594451107064000,8.54506396484375,-2.0369269847869873,0.15777139365673065,1.0356241464614868
1772594451127327000,8.565326904296874,-2.319478750228882,1.9363577365875244,0.3881761431694031
1772594451147591000,8.5855908203125,-2.240460157394409,2.646595001220703,0.08034900575876236
1772594451167855000,8.605855224609375,-1.9275779724121094,2.362313985824585,-0.011174364946782589
1772594451188118000,8.626117919921874,-1.7043566703796387,1.8199580907821655,0.11733082681894302
1772594451208382000,8.6463818359375,-1.445084810256958,1.2407535314559937,0.5065711736679077
1772594451228646000,8.66664599609375,-1.0598353147506714,0.6902830600738525,0.6293562054634094
1772594451248909000,8.686908935546874,-0.89687579870224,0.38378623127937317,0.7674394249916077
1772594451269173000,8.707173095703125,-0.8411369919776917,0.233198344707489,1.1485650539398193
1772594451289437000,8.72743701171875,-0.6506406664848328,0.16162919998168945,1.1952579021453857
1772594451309700000,8.7477001953125,-0.45149755477905273,0.06664710491895676,1.2738776206970215
1772594451329964000,8.767964111328125,-0.45588746666908264,-0.09950505942106247,1.5775808095932007
1772594451350228000,8.78822802734375,-0.46293798089027405,-0.1641567349433899,1.5121309757232666
1772594451370491000,8.808490966796874,-0.422763466835022,-0.15284934639930725,1.4711583852767944
1772594451390755000,8.828755126953125,-0.4763738214969635,-0.12704189121723175,1.6402370929718018
1772594451411019000,8.84901904296875,-0.514153778553009,-0.13183090090751648,1.457722544670105
1772594451431282000,8.869281982421874,-0.5455484390258789,-0.15896864235401154,1.136858582496643
1772594451451546000,8.889546142578125,-0.5132226347923279,-0.15670716762542725,1.1005419492721558
1772594451471810000,8.90981005859375,-0.5221354961395264,-0.13795019686222076,1.3217676877975464
1772594451492073000,8.930072998046874,-0.40799733996391296,-0.10203259438276291,1.2184048891067505
1772594451512337000,8.9503369140625,-0.14513371884822845,-0.0351194329559803,0.9986423254013062
1772594451532601000,8.97060107421875,-0.03392218053340912,-0.047890134155750275,0.7569301724433899
1772594451552864000,8.990864013671874,0.024344151839613914,-0.0921885073184967,0.5714889168739319
1772594451573128000,9.0111279296875,0.06518379598855972,-0.11812900006771088,0.4346029758453369
1772594451593392000,9.03139208984375,0.11134456098079681,-0.09471604228019714,0.344542920589447
1772594451613655000,9.051655029296874,0.1789228618144989,-0.03112858720123768,0.30383628606796265
1772594451633919000,9.0719189453125,0.1410098373889923,0.00013302815204951912,0.22654694318771362
1772594451654183000,9.092182861328125,0.12105561792850494,0.011839505285024643,0.2091202586889267
1772594451674446000,9.112446044921874,0.1136060431599617,0.031261615455150604,0.19555138051509857
1772594451694710000,9.1327099609375,0.12584462761878967,0.07289943099021912,0.20925328135490417
1772594451714974000,9.152973876953125,0.09631238132715225,0.08606921136379242,0.18730363249778748
1772594451735237000,9.173237060546874,0.04044055938720703,0.09883991628885269,0.18504215776920319
1772594451755501000,9.1935009765625,0.04017450287938118,0.12225287407636642,0.18357884883880615
1772594451775765000,9.213764892578125,0.009578026831150055,0.10788583010435104,0.1761292666196823
1772594451796028000,9.23402783203125,-0.06957372277975082,0.06332139670848846,0.17040906846523285
1772594451816292000,9.2542919921875,-0.18863391876220703,0.027403799816966057,0.20818905532360077
1772594451836556000,9.27455615234375,-0.04110569879412651,0.0730324536561966,0.22681300342082977
1772594451856819000,9.29481884765625,0.09245456755161285,0.12305103987455368,0.2398497611284256
1772594451877083000,9.315082763671874,0.11214273422956467,0.10722068697214127,0.1761292666196823
1772594451897347000,9.33534716796875,0.12664279341697693,0.12225287407636642,0.18570730090141296
1772594451917611000,9.355611083984375,0.12318406999111176,0.11839505285024643,0.16761547327041626
1772594451937874000,9.3758740234375,0.3412172198295593,0.2293405383825302,0.27683159708976746
1772594451958138000,9.39613818359375,0.3848504424095154,0.2453039139509201,0.2935931384563446
1772594451978402000,9.416402099609375,0.37966233491897583,0.3199326992034912,0.3195336163043976
1772594451998665000,9.4366650390625,0.22348730266094208,0.6789757013320923,0.32844650745391846
1772594452018929000,9.456928955078125,0.13369329273700714,0.9589999318122864,0.325918972492218
1772594452039193000,9.477193115234375,0.1525832861661911,0.9217520952224731,0.293194055557251
1772594452059456000,9.4974560546875,0.1525832861661911,0.8271690607070923,0.2403818666934967
1772594452079720000,9.517719970703125,0.16176223754882812,0.7965725660324097,0.19834497570991516
1772594452099984000,9.53798388671875,-0.042569007724523544,1.0130094289779663,0.14287222921848297
1772594452120247000,9.5582470703125,-0.2437075674533844,1.122890591621399,0.09338576346635818
1772594452140511000,9.578510986328125,-0.2672535479068756,0.9510182738304138,0.08128020167350769
1772594452160775000,9.59877490234375,-0.29997849464416504,0.7500126957893372,0.322726309299469
1772594452181038000,9.6190380859375,-0.3249877691268921,0.5435530543327332,0.9829450249671936
