time,seconds_elapsed,z,y,x
1772594459482992000,0.2759921875,6.230909824371338,-7.0802531242370605,3.082834005355835
1772594459503256000,0.296256103515625,6.228515625,-7.0931220054626465,3.0708630084991455
1772594459523519000,0.31651904296875,6.218938827514648,-7.10030460357666,3.0720601081848145
1772594459543783000,0.336782958984375,6.215646743774414,-7.11766242980957,3.0732572078704834
1772594459564047000,0.357047119140625,6.214748859405518,-7.119158744812012,3.041533946990967
1772594459584310000,0.37731005859375,6.176741123199463,-7.121253490447998,3.014000654220581
1772594459604574000,0.397573974609375,6.142024993896484,-7.117961883544922,2.9565398693084717
1772594459624838000,0.417837890625,6.081871032714844,-7.121852397918701,2.8790276050567627
1772594459645101000,0.43810107421875,5.331887245178223,-7.073668956756592,2.135927200317383
1772594459665365000,0.458364990234375,5.387253284454346,-5.909787654876709,2.1104888916015625
1772594459685629000,0.47862890625,5.369296550750732,-4.8033671379089355,2.053027868270874
1772594459705892000,0.49889208984375,5.2899885177612305,-4.038120269775391,1.258452296257019
1772594459726156000,0.519156005859375,4.266467571258545,-3.958214044570923,1.2009913921356201
1772594459746420000,0.539419921875,3.369539499282837,-3.137601375579834,1.1680711507797241
1772594459766683000,0.559682861328125,-0.4076128304004669,-3.9228994846343994,1.2288240194320679
1772594459786947000,0.579947021484375,-0.32770636677742004,-7.404966354370117,2.1422119140625
1772594459807211000,0.6002109375,1.5568296909332275,-12.802694320678711,2.176030158996582
1772594459827474000,0.620473876953125,1.4640543460845947,-17.01559066772461,3.5697548389434814
1772594459847738000,0.640738037109375,1.4658499956130981,-17.023073196411133,4.299986362457275
1772594459868002000,0.661001953125,1.4721348285675049,-14.343064308166504,4.277540683746338
1772594459888265000,0.681264892578125,0.41449618339538574,-10.993576049804688,4.21349573135376
1772594459908529000,0.70152880859375,1.2096704244613647,-10.070311546325684,4.154837608337402
1772594459928793000,0.72179296875,1.235707402229309,-10.128670692443848,3.357269287109375
1772594459949056000,0.742055908203125,1.245583415031433,-10.190021514892578,3.3452982902526855
1772594459969320000,0.76231982421875,1.2749123573303223,-10.192416191101074,3.2953193187713623
1772594459989584000,0.782583984375,1.303044319152832,-10.132560729980469,3.24414324760437
1772594460009847000,0.802846923828125,1.3335703611373901,-9.297284126281738,3.18249249458313
1772594460030111000,0.823111083984375,1.3533225059509277,-9.280823707580566,2.454655408859253
1772594460050375000,0.843375,1.3745710849761963,-9.263765335083008,2.4699182510375977
1772594460070638000,0.86363818359375,1.4098855257034302,-9.250297546386719,2.5007436275482178
1772594460090902000,0.883902099609375,1.4523825645446777,-9.248202323913574,2.5357589721679688
1772594460111166000,0.904166015625,1.4826093912124634,-9.279626846313477,2.6010007858276367
1772594460131429000,0.92442919921875,1.5286977291107178,-9.327810287475586,3.3470940589904785
1772594460151693000,0.944693115234375,1.578976035118103,-9.39784049987793,3.376422882080078
1772594460171957000,0.96495703125,1.600523829460144,-9.43943977355957,3.397970676422119
1772594460192220000,0.985219970703125,1.6190788745880127,-9.489418029785156,3.3877954483032227
1772594460212484000,1.005484130859375,1.6516999006271362,-9.524134635925293,3.367145299911499
1772594460232748000,1.025748046875,1.6687586307525635,-9.561842918395996,3.3279404640197754
1772594460253011000,1.046010986328125,1.6900070905685425,-9.579200744628906,3.2671875953674316
1772594460273275000,1.06627490234375,1.701978087425232,-9.57979965209961,3.193565845489502
1772594460293539000,1.0865390625,1.7244237661361694,-9.584887504577637,2.456450939178467
1772594460313802000,1.106802001953125,1.7289129495620728,-9.583091735839844,2.4561517238616943
1772594460334066000,1.12706591796875,1.746869444847107,-9.584288597106934,2.4525604248046875
1772594460354330000,1.147330078125,1.7642273902893066,-9.595661163330078,2.461538553237915
1772594460374593000,1.167593017578125,1.7857751846313477,-9.602245330810547,2.4759037494659424
1772594460394857000,1.18785693359375,1.8195933103561401,-9.609726905822754,2.4753053188323975
1772594460415121000,1.208120849609375,1.8570027351379395,-9.61212158203125,2.4636335372924805
1772594460435384000,1.228384033203125,1.8773534297943115,-9.616011619567871,2.455253839492798
1772594460455648000,1.24864794921875,1.8680758476257324,-9.618406295776367,2.441786527633667
1772594460475912000,1.268911865234375,1.854907751083374,-9.624691009521484,2.4340052604675293
1772594460496175000,1.289175048828125,1.830666422843933,-9.625588417053223,2.403179883956909
1772594460516439000,1.30943896484375,1.8043302297592163,-9.621698379516602,2.3639748096466064
1772594460536703000,1.329702880859375,1.7767969369888306,-9.619303703308105,2.3394343852996826
1772594460556966000,1.3499658203125,1.7585411071777344,-9.627084732055664,2.35379958152771
1772594460577230000,1.37022998046875,1.7031751871109009,-9.652523040771484,2.3400328159332275
1772594460597494000,1.390493896484375,1.6490063667297363,-9.674968719482422,2.3247697353363037
1772594460617758000,1.410758056640625,1.6095020771026611,-9.676764488220215,2.305915594100952
1772594460638021000,1.431021240234375,1.5747861862182617,-9.709685325622559,2.2864625453948975
1772594460658285000,1.45128515625,1.548150658607483,-9.728838920593262,2.26401686668396
1772594460678549000,1.471549072265625,1.5131354331970215,-9.72285270690918,2.255337953567505
1772594460698812000,1.49181201171875,1.4835072755813599,-9.715071678161621,2.2439656257629395
1772594460719076000,1.512076171875,1.4266449213027954,-9.71926212310791,2.2065560817718506
1772594460739340000,1.532340087890625,1.3808557987213135,-9.727940559387207,2.172438859939575
1772594460759603000,1.55260302734375,1.3640964031219482,-9.713275909423828,2.1116859912872314
1772594460779867000,1.572866943359375,1.3114240169525146,-9.728838920593262,2.0590133666992188
1772594460800131000,1.593131103515625,1.2841899394989014,-9.747693061828613,2.0207061767578125
1772594460820394000,1.61339404296875,1.2413935661315918,-9.767744064331055,1.9713258743286133
1772594460840658000,1.633657958984375,1.1863269805908203,-9.777320861816406,1.213560938835144
1772594460860922000,1.653922119140625,1.1333552598953247,-9.797073364257812,1.2114660739898682
1772594460881185000,1.67418505859375,1.081281304359436,-9.815628051757812,1.2518682479858398
1772594460901449000,1.694448974609375,1.0363900661468506,-9.816825866699219,1.2791022062301636
1772594460921713000,1.714712890625,0.9914987683296204,-9.82999324798584,1.2994530200958252
1772594460941976000,1.73497607421875,0.9433154463768005,-9.83687686920166,1.3305776119232178
1772594460962240000,1.755239990234375,0.9184756278991699,-9.8599214553833,1.348534107208252
1772594460982504000,1.77550390625,0.9017162322998047,-9.867103576660156,1.369184136390686
1772594461002767000,1.79576708984375,0.8792705535888672,-9.854833602905273,1.3718775510787964
1772594461023031000,1.816031005859375,0.8271966576576233,-9.830292701721191,1.392826795578003
1772594461043295000,1.836294921875,0.7706336975097656,-9.81024169921875,1.4053963422775269
1772594461063558000,1.856557861328125,0.7329249978065491,-9.800664901733398,1.4233529567718506
1772594461083822000,1.876822021484375,0.7323264479637146,-9.782408714294434,1.3937246799468994
1772594461104086000,1.8970859375,0.7101801037788391,-9.769240379333496,1.370081901550293
1772594461124349000,1.917348876953125,0.6676830053329468,-9.76325511932373,1.3643957376480103
1772594461144613000,1.937613037109375,0.6242880821228027,-9.758167266845703,1.357811689376831
1772594461164877000,1.957876953125,0.590470016002655,-9.74470043182373,1.3823522329330444
1772594461185140000,1.978139892578125,0.5416881442070007,-9.744101524353027,1.4119805097579956
1772594461205404000,1.99840380859375,0.4887164235115051,-9.761459350585938,1.4481927156448364
1772594461225668000,2.018668212890625,0.43664252758026123,-9.792284965515137,1.4996681213378906
1772594461245931000,2.038930908203125,0.3758896589279175,-9.833884239196777,2.290951728820801
1772594461266195000,2.05919482421875,0.3148375153541565,-9.870695114135742,2.305915594100952
1772594461286459000,2.079458984375,0.2693476974964142,-9.8970308303833,2.321777105331421
1772594461306722000,2.09972216796875,0.2439092993736267,-9.920075416564941,2.337339401245117
1772594461326986000,2.119986083984375,0.21458032727241516,-9.963171005249023,2.3310546875
1772594461347250000,2.14025,0.20799627900123596,-9.9679594039917,2.315791606903076
1772594461367513000,2.16051318359375,0.24121582508087158,-9.972747802734375,2.2795794010162354
1772594461387777000,2.180777099609375,0.2777273952960968,-9.946710586547852,2.2391772270202637
1772594461408041000,2.201041015625,0.3124433159828186,-9.918279647827148,2.1745336055755615
1772594461428304000,2.221303955078125,0.322618693113327,-9.886856079101562,2.1074960231781006
1772594461448568000,2.241568115234375,0.33010056614875793,-9.856928825378418,2.0482394695281982
1772594461468832000,2.26183203125,0.3223194181919098,-9.829694747924805,1.9901801347732544
1772594461489095000,2.282094970703125,0.3256114423274994,-9.802460670471191,1.9506758451461792
1772594461509359000,2.302359130859375,0.32441434264183044,-9.80216121673584,1.9363106489181519
1772594461529623000,2.322623046875,0.33010056614875793,-9.812037467956543,1.9282301664352417
1772594461549886000,2.342885986328125,0.32291796803474426,-9.825504302978516,1.923441767692566
1772594461570150000,2.36314990234375,0.32112228870391846,-9.842862129211426,1.9039889574050903
1772594461590414000,2.3834140625,0.309151291847229,-9.858125686645508,1.9231425523757935
1772594461610677000,2.403677001953125,0.2750339210033417,-9.86889934539795,1.9342156648635864
1772594461630941000,2.42394091796875,0.23792380094528198,-9.873388290405273,1.9503765106201172
1772594461651205000,2.444205078125,0.2223614901304245,-9.871294021606445,1.9629461765289307
1772594461671468000,2.464468017578125,0.24001872539520264,-9.876082420349121,1.9806033372879028
1772594461691732000,2.48473193359375,0.2463034987449646,-9.875184059143066,1.9928736686706543
1772594461711996000,2.504995849609375,0.24271219968795776,-9.870994567871094,2.007538080215454
1772594461732259000,2.525259033203125,0.24600422382354736,-9.87967300415039,2.0156185626983643
1772594461752523000,2.54552294921875,0.24899697303771973,-9.84256362915039,1.9946693181991577
1772594461772787000,2.565786865234375,0.259471595287323,-9.838972091674805,1.9764134883880615
1772594461793050000,2.586050048828125,0.26575639843940735,-9.848848342895508,1.9581576585769653
1772594461813314000,2.60631396484375,0.27982231974601746,-9.857826232910156,1.9521721601486206
1772594461833578000,2.626577880859375,0.284311443567276,-9.859322547912598,1.9515736103057861
1772594461853841000,2.6468408203125,0.2974795699119568,-9.860818862915039,1.9402011632919312
1772594461874105000,2.66710498046875,0.29718029499053955,-9.868300437927246,1.9288287162780762
1772594461894369000,2.687369140625,0.3082534670829773,-9.873687744140625,1.9177556037902832
1772594461914633000,2.707633056640625,0.30376434326171875,-9.8691987991333,1.9117701053619385
1772594461934896000,2.727896240234375,0.2974795699119568,-9.868599891662598,1.896806240081787
1772594461955160000,2.74816015625,0.2944868206977844,-9.87697982788086,1.8800468444824219
1772594461975424000,2.768424072265625,0.2890998423099518,-9.879374504089355,1.8731635808944702
1772594461995687000,2.78868701171875,0.28700491786003113,-9.881768226623535,1.8387469053268433
1772594462015951000,2.808951171875,0.289399117231369,-9.889549255371094,1.8067244291305542
1772594462036215000,2.829215087890625,0.30226796865463257,-9.905710220336914,1.791162133216858
1772594462056478000,2.84947802734375,0.30196869373321533,-9.903316497802734,1.7968484163284302
1772594462076742000,2.869741943359375,0.29478609561920166,-9.910798072814941,1.7998411655426025
1772594462097006000,2.890006103515625,0.30615854263305664,-9.912893295288086,1.7971476316452026
1772594462117269000,2.91026904296875,0.3067570924758911,-9.940725326538086,1.820491075515747
1772594462137533000,2.930532958984375,0.284311443567276,-9.96137523651123,1.8456302881240845
1772594462157797000,2.950797119140625,0.26066872477531433,-9.949105262756348,1.877652645111084
1772594462178060000,2.97106005859375,0.23792380094528198,-9.955090522766113,1.8997989892959595
1772594462198324000,2.991323974609375,0.22505496442317963,-9.959280967712402,1.8950105905532837
1772594462218588000,3.011587890625,0.2050035148859024,-9.934141159057617,1.8997989892959595
1772594462238851000,3.03185107421875,0.152031809091568,-9.907805442810059,1.8695722818374634
1772594462259115000,3.052114990234375,0.11761515587568283,-9.8784761428833,1.834557056427002
1772594462279379000,3.07237890625,0.07152677327394485,-9.85543155670166,1.8154034614562988
1772594462299642000,3.09264208984375,0.07122749835252762,-9.829095840454102,1.8142063617706299
1772594462319906000,3.112906005859375,0.0586579404771328,-9.803956985473633,1.8210896253585815
1772594462340170000,3.133169921875,0.06135141849517822,-9.782708168029785,1.8163012266159058
1772594462360433000,3.153432861328125,0.0487818606197834,-9.767146110534668,1.8109142780303955
1772594462380697000,3.173697021484375,0.042197804898023605,-9.76086139678955,1.8064252138137817
1772594462400961000,3.1939609375,0.032620999962091446,-9.758466720581055,1.8198925256729126
1772594462421224000,3.214223876953125,0.03711012750864029,-9.774328231811523,1.810315728187561
1772594462441488000,3.23448779296875,0.0454898327589035,-9.79797077178955,1.8076223134994507
1772594462461752000,3.254751953125,0.04519055783748627,-9.81024169921875,1.8070237636566162
1772594462482015000,3.275014892578125,0.05177461355924606,-9.821314811706543,1.8139070272445679
1772594462502279000,3.29527880859375,0.07032967358827591,-9.824606895446777,1.7923592329025269
1772594462522543000,3.315543212890625,0.08768763393163681,-9.837475776672363,1.764526605606079
1772594462542806000,3.335805908203125,0.10953472554683685,-9.827000617980957,1.744475245475769
1772594462563070000,3.356070068359375,0.14933833479881287,-9.801562309265137,1.7202339172363281
1772594462583334000,3.376333984375,0.17657238245010376,-9.792584419250488,1.7028759717941284
1772594462603597000,3.39659716796875,0.18584990501403809,-9.772831916809082,1.690904974937439
1772594462623861000,3.416861083984375,0.19572599232196808,-9.785700798034668,1.6840215921401978
1772594462644125000,3.437125,0.19812019169330597,-9.797073364257812,1.6570868492126465
1772594462664388000,3.45738818359375,0.2050035148859024,-9.80904483795166,1.6487071514129639
1772594462684652000,3.477652099609375,0.22266076505184174,-9.82191276550293,1.633743405342102
1772594462704916000,3.497916015625,0.23612813651561737,-9.832986831665039,1.647510051727295
1772594462725179000,3.518178955078125,0.2454056739807129,-9.839869499206543,1.6708534955978394
1772594462745443000,3.538443115234375,0.2660556733608246,-9.847052574157715,1.6927006244659424
1772594462765707000,3.55870703125,0.2768295705318451,-9.85423469543457,1.7013795375823975
1772594462785970000,3.578969970703125,0.2917933464050293,-9.8691987991333,1.712153434753418
1772594462806234000,3.599234130859375,0.289399117231369,-9.87967300415039,1.725022315979004
1772594462826498000,3.619498046875,0.28550854325294495,-9.888352394104004,1.7298107147216797
1772594462846761000,3.639760986328125,0.2867056429386139,-9.890746116638184,1.7642273902893066
1772594462867025000,3.66002490234375,0.2810194194316864,-9.903914451599121,1.8088194131851196
1772594462887289000,3.6802890625,0.2825157940387726,-9.932345390319824,1.8180968761444092
1772594462907552000,3.700552001953125,0.2852092683315277,-9.941324234008789,1.822885274887085
1772594462927816000,3.72081591796875,0.32620999217033386,-9.934440612792969,1.813009262084961
1772594462948080000,3.741080078125,0.35164836049079895,-9.93354320526123,1.7806875705718994
1772594462968343000,3.761343017578125,0.3794809579849243,-9.903914451599121,1.7639280557632446
1772594462988607000,3.78160693359375,0.41270050406455994,-9.903316497802734,1.7384897470474243
1772594463008871000,3.801870849609375,0.42945992946624756,-9.902118682861328,1.7199347019195557
1772594463029134000,3.822134033203125,0.4438251256942749,-9.86650562286377,1.6947954893112183
1772594463049398000,3.84239794921875,0.4545990526676178,-9.87039566040039,1.689408540725708
1772594463069662000,3.862661865234375,0.4821323752403259,-9.882665634155273,1.6789339780807495
1772594463089925000,3.882925048828125,0.4920084476470947,-9.879972457885742,1.659181833267212
1772594463110189000,3.90318896484375,0.5057750940322876,-9.889848709106445,1.6531962156295776
1772594463130453000,3.923452880859375,0.5210381746292114,-9.88745403289795,1.6376339197158813
1772594463150716000,3.9437158203125,0.5410895943641663,-9.88506031036377,1.6328455209732056
1772594463170980000,3.96397998046875,0.5473743677139282,-9.901819229125977,1.5951368808746338
1772594463191244000,3.984244140625,0.5566518902778625,-9.896133422851562,1.5526398420333862
1772594463211508000,4.004508056640625,0.557250440120697,-9.888352394104004,1.5272014141082764
1772594463231771000,4.02477099609375,0.568622887134552,-9.891644477844238,1.4942811727523804
1772594463252035000,4.04503515625,0.5656301379203796,-9.905710220336914,1.467944860458374
1772594463272299000,4.065299072265625,0.5617395639419556,-9.908403396606445,1.478718876838684
1772594463292562000,4.08556201171875,0.5629366636276245,-9.91169548034668,1.4867992401123047
1772594463312826000,4.105826171875,0.5728127360343933,-9.923966407775879,1.4939818382263184
1772594463333090000,4.126090087890625,0.5728127360343933,-9.927258491516113,1.5340847969055176
1772594463353344000,4.146343994140625,0.5907692909240723,-9.926360130310059,1.5711948871612549
1772594463373608000,4.16660791015625,0.5901707410812378,-9.931747436523438,1.5984289646148682
1772594463393871000,4.18687109375,0.595557689666748,-9.929652214050293,1.6217724084854126
1772594463414135000,4.207135009765625,0.5952584147453308,-9.930550575256348,1.6430208683013916
1772594463434399000,4.22739892578125,0.6063315868377686,-9.926060676574707,1.6238672733306885
1772594463454662000,4.247661865234375,0.6108207106590271,-9.921871185302734,1.6166846752166748
1772594463474926000,4.267926025390625,0.6045359373092651,-9.920075416564941,1.6086043119430542
1772594463495190000,4.28818994140625,0.5949591398239136,-9.909002304077148,1.6002246141433716
1772594463515453000,4.308452880859375,0.6003460884094238,-9.90361499786377,1.5861586332321167
1772594463535717000,4.328717041015625,0.6090250611305237,-9.9185791015625,1.5840636491775513
1772594463555981000,4.34898095703125,0.6150105595588684,-9.924264907836914,1.5771803855895996
1772594463576244000,4.369243896484375,0.6054337620735168,-9.924264907836914,1.5714941024780273
1772594463596508000,4.3895078125,0.6003460884094238,-9.915586471557617,1.588852047920227
1772594463637035000,4.430034912109375,0.5641337633132935,-9.931148529052734,1.5909470319747925
1772594463657299000,4.450298828125,0.5614402890205383,-9.909002304077148,1.5816694498062134
1772594463677563000,4.47056298828125,0.5814917087554932,-9.899126052856445,1.5843629837036133
1772594463697826000,4.490825927734375,0.5907692909240723,-9.909899711608887,1.5738883018493652
1772594463718090000,4.511090087890625,0.6015431880950928,-9.911396026611328,1.5634137392044067
1772594463738354000,4.53135400390625,0.6024410128593445,-9.907805442810059,1.5652093887329102
1772594463758617000,4.5516171875,0.6072294116020203,-9.909002304077148,1.5544354915618896
1772594463778881000,4.571881103515625,0.6003460884094238,-9.911994934082031,1.544858694076538
1772594463799145000,4.59214501953125,0.6015431880950928,-9.905410766601562,1.5295956134796143
1772594463819408000,4.612407958984375,0.5883750915527344,-9.91169548034668,1.5373767614364624
1772594463839672000,4.632672119140625,0.5620388388633728,-9.90810489654541,1.5376760959625244
1772594463859936000,4.65293603515625,0.5386953949928284,-9.911994934082031,1.5373767614364624
1772594463880199000,4.673198974609375,0.5339069962501526,-9.917681694030762,1.5283985137939453
1772594463900463000,4.693463134765625,0.5437830686569214,-9.918279647827148,1.5263035297393799
1772594463920727000,4.71372705078125,0.5596446394920349,-9.916783332824707,1.5316904783248901
1772594463940990000,4.733989990234375,0.5683236122131348,-9.917980194091797,1.5328876972198486
1772594463961254000,4.75425390625,0.557250440120697,-9.907206535339355,1.5236101150512695
1772594463981518000,4.77451806640625,0.5291185975074768,-9.899425506591797,1.5263035297393799
1772594464001781000,4.794781005859375,0.502483069896698,-9.895236015319824,1.513733983039856
1772594464022045000,4.815044921875,0.4827309250831604,-9.900322914123535,1.5194202661514282
1772594464042309000,4.83530908203125,0.4719569981098175,-9.904513359069824,1.515230417251587
1772594464062572000,4.855572021484375,0.4596867263317108,-9.903316497802734,1.5143325328826904
1772594464082836000,4.8758359375,0.4420294761657715,-9.903316497802734,1.5185223817825317
1772594464103100000,4.896099853515625,0.4222773313522339,-9.905410766601562,1.5161281824111938
1772594464123363000,4.916363037109375,0.40791210532188416,-9.909002304077148,1.524208664894104
1772594464143627000,4.936626953125,0.39803603291511536,-9.917681694030762,1.5233107805252075
1772594464163891000,4.956890869140625,0.3824737071990967,-9.912593841552734,1.5206173658370972
1772594464184154000,4.977154052734375,0.38726213574409485,-9.923966407775879,1.525405764579773
1772594464204418000,4.99741796875,0.37738603353500366,-9.931148529052734,1.5233107805252075
1772594464224682000,5.017681884765625,0.37140053510665894,-9.928455352783203,1.5212159156799316
1772594464244945000,5.03794482421875,0.36002808809280396,-9.926360130310059,1.521515130996704
1772594464265209000,5.058208984375,0.36421793699264526,-9.925761222839355,1.5245078802108765
1772594464285473000,5.07847314453125,0.3462614119052887,-9.938331604003906,1.521515130996704
1772594464305736000,5.09873583984375,0.353743314743042,-9.93593692779541,1.5316904783248901
1772594464326000000,5.119000244140625,0.34925416111946106,-9.936835289001465,1.5257049798965454
1772594464346264000,5.13926416015625,0.34416648745536804,-9.938929557800293,1.5286977291107178
1772594464366527000,5.15952685546875,0.3480570614337921,-9.944915771484375,1.5236101150512695
1772594464386791000,5.179791015625,0.3354875147342682,-9.941024780273438,1.5277999639511108
1772594464407055000,5.20005517578125,0.3292027413845062,-9.95209789276123,1.5143325328826904
1772594464427319000,5.220319091796875,0.3315969407558441,-9.9494047164917,1.5041571855545044
1772594464447582000,5.24058203125,0.32950201630592346,-9.949105262756348,1.5032594203948975
1772594464467846000,5.260845947265625,0.32680854201316833,-9.943717956542969,1.5104420185089111
1772594464488110000,5.281110107421875,0.3241150677204132,-9.942521095275879,1.501463770866394
1772594464508373000,5.301373046875,0.36152446269989014,-9.953594207763672,1.4981716871261597
1772594464528637000,5.321636962890625,0.3926490843296051,-9.955988883972168,1.4954782724380493
1772594464548901000,5.341901123046875,0.41449618339538574,-9.959878921508789,1.4963760375976562
1772594464569164000,5.3621640625,0.44592007994651794,-9.961075782775879,1.502660870552063
1772594464589428000,5.382427978515625,0.4378396272659302,-9.96676254272461,1.5044565200805664
1772594464609692000,5.40269189453125,0.414795458316803,-9.959280967712402,1.5131354331970215
1772594464629955000,5.422955078125,0.4471171796321869,-9.957783699035645,1.5056536197662354
1772594464650219000,5.443218994140625,0.46567222476005554,-9.948805809020996,1.4990695714950562
1772594464670483000,5.46348291015625,0.4821323752403259,-9.94970417022705,1.5005658864974976
1772594464690746000,5.48374609375,0.4854243993759155,-9.947908401489258,1.5047557353973389
1772594464711010000,5.504010009765625,0.5099649429321289,-9.947309494018555,1.5047557353973389
1772594464731274000,5.52427392578125,0.5303156971931458,-9.95209789276123,1.5050550699234009
1772594464751537000,5.544536865234375,0.5246294736862183,-9.938929557800293,1.5068507194519043
1772594464771801000,5.564801025390625,0.5078700184822083,-9.939229011535645,1.5092449188232422
1772594464792065000,5.58506494140625,0.4917091727256775,-9.93474006652832,1.515230417251587
1772594464812328000,5.605327880859375,0.4878185987472534,-9.925163269042969,1.5101426839828491
1772594464832592000,5.625591796875,0.5066729187965393,-9.923068046569824,1.5095441341400146
1772594464852856000,5.64585595703125,0.5237316489219666,-9.917082786560059,1.5107412338256836
1772594464873119000,5.666118896484375,0.5398924946784973,-9.9278564453125,1.511339783668518
1772594464893383000,5.6863828125,0.5383961200714111,-9.929951667785645,1.5158289670944214
1772594464913647000,5.706647216796875,0.517746090888977,-9.941324234008789,1.5277999639511108
1772594464933910000,5.726909912109375,0.4935048222541809,-9.938331604003906,1.5325883626937866
1772594464954174000,5.747174072265625,0.4668693244457245,-9.93474006652832,1.525106430053711
1772594464974438000,5.76743798828125,0.45010992884635925,-9.934440612792969,1.5286977291107178
1772594464994701000,5.787701171875,0.4357447028160095,-9.92665958404541,1.5197194814682007
1772594465014965000,5.807965087890625,0.43185412883758545,-9.91977596282959,1.515230417251587
1772594465035229000,5.82822900390625,0.4297592043876648,-9.913491249084473,1.512836217880249
1772594465055492000,5.8484921875,0.42197805643081665,-9.910798072814941,1.5101426839828491
1772594465075756000,5.868756103515625,0.4049193561077118,-9.905410766601562,1.5104420185089111
1772594465096020000,5.88902001953125,0.3983353078365326,-9.905410766601562,1.5257049798965454
1772594465116283000,5.909282958984375,0.39803603291511536,-9.904513359069824,1.5310919284820557
1772594465136547000,5.929547119140625,0.4207809567451477,-9.898528099060059,1.5277999639511108
1772594465156811000,5.94981103515625,0.4381389021873474,-9.894936561584473,1.514033317565918
1772594465177074000,5.970073974609375,0.4528034031391144,-9.89433765411377,1.5161281824111938
1772594465197338000,5.990338134765625,0.4719569981098175,-9.904213905334473,1.524208664894104
1772594465217602000,6.01060205078125,0.4794389009475708,-9.900322914123535,1.4894927740097046
1772594465237865000,6.030864990234375,0.49559974670410156,-9.91738224029541,1.4631564617156982
1772594465258129000,6.05112890625,0.5144540667533875,-9.915885925292969,1.446696400642395
1772594465278393000,6.07139306640625,0.5156511664390564,-9.919178009033203,1.437418818473816
1772594465298656000,6.091656005859375,0.5159504413604736,-9.9278564453125,1.4401123523712158
1772594465318920000,6.111919921875,0.5141547918319702,-9.928155899047852,1.4419080018997192
1772594465339184000,6.13218408203125,0.5267243981361389,-9.9371337890625,1.4431051015853882
1772594465359447000,6.152447021484375,0.5434837937355042,-9.946710586547852,1.4529811143875122
1772594465379711000,6.1727109375,0.5578489899635315,-9.944616317749023,1.4493898153305054
1772594465399975000,6.192974853515625,0.5680243372917175,-9.93593692779541,1.4472949504852295
1772594465420238000,6.213238037109375,0.5716156363487244,-9.938331604003906,1.4517840147018433
1772594465440502000,6.233501953125,0.5671265125274658,-9.9371337890625,1.4631564617156982
1772594465460766000,6.253765869140625,0.5847837924957275,-9.941324234008789,1.4559738636016846
1772594465481029000,6.274029052734375,0.5940613150596619,-9.94521427154541,1.456871747970581
1772594465501293000,6.29429296875,0.6012439131736755,-9.940425872802734,1.4520833492279053
1772594465521557000,6.314556884765625,0.6051344871520996,-9.939827919006348,1.4655506610870361
1772594465541820000,6.33481982421875,0.5779004096984863,-9.942521095275879,1.4748282432556152
1772594465562084000,6.355083984375,0.5542576909065247,-9.942221641540527,1.4888942241668701
1772594465582348000,6.37534814453125,0.518943190574646,-9.939229011535645,1.4829087257385254
1772594465602611000,6.39561083984375,0.5045779943466187,-9.927258491516113,1.491288423538208
1772594465622875000,6.415875,0.4767454266548157,-9.92905330657959,1.482310175895691
1772594465643139000,6.43613916015625,0.4554968774318695,-9.931747436523438,1.4873977899551392
1772594465663402000,6.456402099609375,0.47315409779548645,-9.927258491516113,1.4891934394836426
1772594465683666000,6.476666015625,0.4958990216255188,-9.918279647827148,1.491288423538208
1772594465703930000,6.49693017578125,0.5147533416748047,-9.914090156555176,1.50355863571167
1772594465724194000,6.517194091796875,0.5216367244720459,-9.919178009033203,1.5101426839828491
1772594465744457000,6.53745703125,0.5027823448181152,-9.924264907836914,1.5101426839828491
1772594465764721000,6.557720947265625,0.4779425263404846,-9.919178009033203,1.5122376680374146
1772594465784985000,6.577985107421875,0.45759180188179016,-9.922768592834473,1.514033317565918
1772594465805248000,6.598248046875,0.4465186297893524,-9.925163269042969,1.503857970237732
1772594465825512000,6.618511962890625,0.44352585077285767,-9.933243751525879,1.5050550699234009
1772594465845776000,6.63877587890625,0.46238020062446594,-9.935637474060059,1.5017629861831665
1772594465866039000,6.6590390625,0.4779425263404846,-9.929951667785645,1.501463770866394
1772594465886303000,6.679302978515625,0.4985924959182739,-9.940425872802734,1.4948797225952148
1772594465906567000,6.69956689453125,0.4944026470184326,-9.942221641540527,1.5050550699234009
1772594465926830000,6.719830078125,0.4776432514190674,-9.940425872802734,1.4990695714950562
1772594465947094000,6.740093994140625,0.4578910768032074,-9.946112632751465,1.4996681213378906
1772594465967358000,6.76035791015625,0.4423287510871887,-9.947309494018555,1.4990695714950562
1772594465987621000,6.78062109375,0.4246715307235718,-9.950302124023438,1.5089455842971802
1772594466007885000,6.800885009765625,0.4156932830810547,-9.945813179016113,1.5029600858688354
1772594466028149000,6.82114892578125,0.411503404378891,-9.93593692779541,1.503857970237732
1772594466048412000,6.841411865234375,0.4097077548503876,-9.936535835266113,1.5074492692947388
1772594466068676000,6.861676025390625,0.41389763355255127,-9.928455352783203,1.4984710216522217
1772594466088940000,6.88193994140625,0.4372410774230957,-9.936236381530762,1.492485523223877
1772594466109203000,6.902202880859375,0.4563947021961212,-9.936535835266113,1.4963760375976562
1772594466129467000,6.922466796875,0.46327802538871765,-9.942521095275879,1.4954782724380493
1772594466149731000,6.94273095703125,0.46238020062446594,-9.930550575256348,1.4945803880691528
1772594466169994000,6.962993896484375,0.45190557837486267,-9.934141159057617,1.5047557353973389
1772594466190258000,6.9832578125,0.4282628297805786,-9.92546272277832,1.5047557353973389
1772594466210522000,7.003522216796875,0.4109048545360565,-9.931747436523438,1.5029600858688354
1772594466230785000,7.023784912109375,0.39145198464393616,-9.9401273727417,1.5074492692947388
1772594466251049000,7.044049072265625,0.3719990849494934,-9.946710586547852,1.5191209316253662
1772594466271313000,7.06431298828125,0.3693056106567383,-9.943120002746582,1.5104420185089111
1772594466291576000,7.084576171875,0.3926490843296051,-9.947608947753906,1.515230417251587
1772594466311840000,7.104840087890625,0.40851065516471863,-9.94521427154541,1.5092449188232422
1772594466332104000,7.12510400390625,0.4330512285232544,-9.946412086486816,1.5143325328826904
1772594466352367000,7.1453671875,0.4471171796321869,-9.939229011535645,1.5077484846115112
1772594466372631000,7.165631103515625,0.4638765752315521,-9.941024780273438,1.511339783668518
1772594466392895000,7.18589501953125,0.47465047240257263,-9.951200485229492,1.5143325328826904
1772594466413158000,7.206157958984375,0.45759180188179016,-9.9586820602417,1.5056536197662354
1772594466433422000,7.226422119140625,0.44083237648010254,-9.965266227722168,1.50355863571167
1772594466453686000,7.24668603515625,0.42676645517349243,-9.961075782775879,1.512836217880249
1772594466473949000,7.266948974609375,0.41958385705947876,-9.964667320251465,1.5062521696090698
1772594466494213000,7.287213134765625,0.44861355423927307,-9.954193115234375,1.5122376680374146
1772594466514477000,7.30747705078125,0.4569932520389557,-9.96017837524414,1.526602864265442
1772594466534740000,7.327739990234375,0.4710591733455658,-9.947908401489258,1.5295956134796143
1772594466555004000,7.34800390625,0.48482584953308105,-9.94282054901123,1.5275006294250488
1772594466575268000,7.36826806640625,0.46986207365989685,-9.94282054901123,1.5289970636367798
1772594466595531000,7.388531005859375,0.46148237586021423,-9.939827919006348,1.5209165811538696
1772594466615795000,7.408794921875,0.46986207365989685,-9.929652214050293,1.5218144655227661
1772594466636059000,7.429058837890625,0.4845265746116638,-9.92905330657959,1.5236101150512695
1772594466656322000,7.449322021484375,0.49380409717559814,-9.93474006652832,1.523909330368042
1772594466676586000,7.4695859375,0.5054758191108704,-9.920374870300293,1.526602864265442
1772594466696850000,7.489849853515625,0.5147533416748047,-9.920674324035645,1.5277999639511108
1772594466717113000,7.510113037109375,0.5282207727432251,-9.919178009033203,1.5313912630081177
1772594466737377000,7.530376953125,0.5413888692855835,-9.915586471557617,1.5379753112792969
1772594466757641000,7.550640869140625,0.5081692934036255,-9.916184425354004,1.5373767614364624
1772594466777904000,7.570904052734375,0.4941033720970154,-9.911994934082031,1.5283985137939453
1772594466798168000,7.59116796875,0.5036801695823669,-9.926060676574707,1.5364789962768555
1772594466818432000,7.611431884765625,0.5150526165962219,-9.924863815307617,1.5286977291107178
1772594466838695000,7.63169482421875,0.5240309238433838,-9.924264907836914,1.5328876972198486
1772594466858959000,7.651958984375,0.5204395651817322,-9.922170639038086,1.5310919284820557
1772594466879223000,7.67222314453125,0.49799394607543945,-9.928455352783203,1.5275006294250488
1772594466899486000,7.69248583984375,0.480935275554657,-9.925163269042969,1.5194202661514282
1772594466919750000,7.71275,0.45759180188179016,-9.913790702819824,1.5260043144226074
1772594466940014000,7.73301416015625,0.4420294761657715,-9.918279647827148,1.526602864265442
1772594466960277000,7.753277099609375,0.43035775423049927,-9.920674324035645,1.5337854623794556
1772594466980541000,7.773541015625,0.45250412821769714,-9.928155899047852,1.523909330368042
1772594467000805000,7.79380517578125,0.4578910768032074,-9.940425872802734,1.521515130996704
1772594467021069000,7.814069091796875,0.47225627303123474,-9.934141159057617,1.5167267322540283
1772594467041332000,7.83433203125,0.4734533727169037,-9.941024780273438,1.5164275169372559
1772594467061596000,7.854595947265625,0.45759180188179016,-9.94401741027832,1.512536883354187
1772594467081860000,7.874860107421875,0.44771572947502136,-9.933243751525879,1.512536883354187
1772594467102123000,7.895123046875,0.4405331015586853,-9.931447982788086,1.5245078802108765
1772594467122387000,7.915386962890625,0.42377370595932007,-9.940725326538086,1.5197194814682007
1772594467142651000,7.93565087890625,0.4150947332382202,-9.938032150268555,1.5200188159942627
1772594467162914000,7.9559140625,0.4058171808719635,-9.938032150268555,1.5277999639511108
1772594467183178000,7.976177978515625,0.3935469090938568,-9.939827919006348,1.5275006294250488
1772594467203442000,7.99644189453125,0.3833715617656708,-9.940425872802734,1.524208664894104
1772594467223705000,8.016705078125,0.38067805767059326,-9.933841705322266,1.5280991792678833
1772594467243969000,8.036968994140626,0.38636431097984314,-9.938032150268555,1.5409680604934692
1772594467264233000,8.05723291015625,0.36750996112823486,-9.937732696533203,1.5628151893615723
1772594467284496000,8.077495849609376,0.37798458337783813,-9.936835289001465,1.5885528326034546
1772594467304760000,8.097760009765626,0.40132805705070496,-9.946112632751465,1.6175825595855713
1772594467325024000,8.11802392578125,0.4288613796234131,-9.951798439025879,1.6154875755310059
1772594467345287000,8.138286865234376,0.45519760251045227,-9.9371337890625,1.6074072122573853
1772594467365551000,8.158551025390626,0.4752490520477295,-9.884760856628418,1.6089035272598267
1772594467385815000,8.17881494140625,0.48303020000457764,-9.840168952941895,1.6367361545562744
1772594467406078000,8.199077880859376,0.5006874203681946,-9.810839653015137,1.645115852355957
1772594467426342000,8.219341796875,0.5380968451499939,-9.80904483795166,1.6660650968551636
1772594467446606000,8.239606201171876,0.553359866142273,-9.841066360473633,1.6831238269805908
1772594467466869000,8.259868896484376,0.5704185366630554,-9.849146842956543,1.6834230422973633
1772594467487133000,8.2801328125,0.5707178115844727,-9.817723274230957,1.6723499298095703
1772594467507397000,8.300397216796876,0.5692214369773865,-9.782708168029785,1.666663646697998
1772594467527660000,8.320659912109376,0.5551555156707764,-9.783307075500488,1.6900070905685425
1772594467547924000,8.340924072265626,0.5479729175567627,-9.772233963012695,1.7073650360107422
1772594467568188000,8.36118798828125,0.5626373887062073,-9.778817176818848,1.7304092645645142
1772594467588451000,8.381451171875,0.5644330382347107,-9.795577049255371,1.7504607439041138
1772594467608715000,8.401715087890626,0.5596446394920349,-9.786299705505371,1.765723705291748
1772594467628979000,8.42197900390625,0.5743091106414795,-9.763854026794434,1.7654244899749756
1772594467649242000,8.4422421875,0.5482721924781799,-9.754277229309082,1.76602303981781
1772594467669506000,8.462506103515626,0.5210381746292114,-9.77791976928711,1.7666215896606445
1772594467689770000,8.48277001953125,0.5030816197395325,-9.788095474243164,1.7720085382461548
1772594467710033000,8.503032958984376,0.4794389009475708,-9.766547203063965,1.779789686203003
1772594467730297000,8.523297119140626,0.49051207304000854,-9.742605209350586,1.790264368057251
1772594467750561000,8.54356103515625,0.49559974670410156,-9.724349021911621,1.7935563325881958
1772594467770824000,8.563823974609376,0.5069721937179565,-9.715371131896973,1.7905635833740234
1772594467791088000,8.584088134765626,0.5285200476646423,-9.684247016906738,1.7561469078063965
1772594467811352000,8.60435205078125,0.5039794445037842,-9.68005657196045,1.7381904125213623
1772594467831615000,8.624614990234376,0.4902127981185913,-9.679458618164062,1.7417817115783691
1772594467851879000,8.64487890625,0.4348468780517578,-9.768043518066406,1.7818846702575684
1772594467872143000,8.66514306640625,0.40462008118629456,-9.781810760498047,1.7863737344741821
1772594467892406000,8.685406005859376,0.3654150366783142,-9.800365447998047,1.7821838855743408
1772594467912670000,8.705669921875,0.3477577865123749,-9.808146476745605,1.820491075515747
1772594467932934000,8.725933837890626,0.34326866269111633,-9.85034465789795,1.854009985923767
1772594467953197000,8.746197021484376,0.3480570614337921,-9.92546272277832,1.8486230373382568
1772594467973461000,8.7664609375,0.3172317147254944,-9.931148529052734,1.8749592304229736
1772594467993725000,8.786724853515626,0.2917933464050293,-9.871294021606445,1.900696873664856
1772594468013988000,8.806988037109376,0.2965817451477051,-9.798569679260254,1.8911200761795044
1772594468034252000,8.827251953125,0.30047231912612915,-9.75278091430664,1.8225860595703125
1772594468054516000,8.847515869140626,0.30466216802597046,-9.709983825683594,0.9537901282310486
1772594468074779000,8.86777880859375,0.2786252200603485,-9.773430824279785,1.0079588890075684
1772594468095043000,8.88804296875,0.2522889971733093,-9.852140426635742,1.081580638885498
1772594468115307000,8.90830712890625,0.20051439106464386,-9.890746116638184,1.1504138708114624
1772594468135570000,8.92856982421875,0.19393034279346466,-9.959280967712402,1.1429320573806763
1772594468155834000,8.948834228515626,0.203207865357399,-9.982624053955078,1.1522095203399658
1772594468176098000,8.96909814453125,0.233135387301445,-10.04068374633789,2.0982184410095215
1772594468196361000,8.98936083984375,0.27473464608192444,-9.307758331298828,2.107795238494873
1772594468216625000,9.009625,0.31932663917541504,-9.249698638916016,2.1365256309509277
1772594468236889000,9.02988916015625,0.36242228746414185,-9.270947456359863,2.9670145511627197
1772594468257152000,9.050152099609376,0.3998316824436188,-10.115202903747559,2.9858686923980713
1772594468277416000,9.070416015625,0.44083237648010254,-10.966042518615723,3.0178911685943604
1772594468297680000,9.090679931640626,0.4991910457611084,-11.048044204711914,3.0463223457336426
1772594468317944000,9.110944091796876,0.56233811378479,-11.997942924499512,3.080439805984497
1772594468338207000,9.13120703125,0.5752069354057312,-12.856563568115234,3.146878957748413
1772594468358471000,9.151470947265626,0.5823895931243896,-13.745710372924805,3.1729156970977783
1772594468378735000,9.171735107421876,0.5707178115844727,-13.801974296569824,3.1759085655212402
1772594468398998000,9.191998046875,0.5784989595413208,-13.875596046447754,3.1705214977264404
1772594468419262000,9.212261962890626,0.6593033075332642,-14.530409812927246,3.183091163635254
1772594468439526000,9.23252587890625,2.2556371688842773,-13.739725112915039,3.202244758605957
1772594468459789000,9.2527890625,3.0107085704803467,-12.964003562927246,3.2258875370025635
1772594468480053000,9.273052978515626,3.0493152141571045,-12.171523094177246,3.261202096939087
1772594468500317000,9.29331689453125,3.856161117553711,-12.1101713180542,3.2752678394317627
1772594468520580000,9.313580078125,4.70879602432251,-11.307814598083496,3.2399535179138184
1772594468540844000,9.333843994140626,5.458181381225586,-9.977835655212402,3.244741916656494
1772594468561108000,9.35410791015625,5.5231242179870605,-8.977956771850586,3.301903486251831
1772594468581371000,9.374370849609376,6.3407440185546875,-7.870938301086426,3.3692402839660645
1772594468601635000,9.394635009765626,7.188291549682617,-6.665158271789551,3.4087445735931396
1772594468621899000,9.41489892578125,7.26490592956543,-5.631162166595459,3.4105403423309326
1772594468642162000,9.435161865234376,8.127416610717773,-4.821922302246094,3.4024598598480225
1772594468662426000,9.455426025390626,8.889969825744629,-4.767154693603516,3.3877954483032227
1772594468682690000,9.47568994140625,8.910619735717773,-4.696226596832275,3.343801975250244
1772594468702953000,9.495952880859376,8.895057678222656,-4.639364242553711,2.5836429595947266
1772594468723217000,9.516216796875,8.841188430786133,-4.599261283874512,2.5516204833984375
1772594468743481000,9.536481201171876,7.737162113189697,-4.597166538238525,2.518700122833252
1772594468763744000,9.556743896484376,6.921936511993408,-4.640262126922607,1.7130513191223145
1772594468784008000,9.577008056640626,6.899490833282471,-4.644452095031738,0.8493430614471436
1772594468804272000,9.597272216796876,6.864475727081299,-4.654926776885986,0.8029553890228271
1772594468824535000,9.61753515625,6.824671745300293,-4.636970043182373,0.7583633661270142
1772594468844799000,9.637799072265626,6.757933616638184,-4.556465148925781,0.67815762758255
1772594468865063000,9.65806298828125,5.899911403656006,-3.534440279006958,0.6278793811798096
1772594468885326000,9.678326171875,5.853224754333496,-3.4781765937805176,0.6299743056297302
1772594468905590000,9.698590087890626,6.65288782119751,-3.3931822776794434,4.417601585388184
1772594468925854000,9.71885400390625,8.06546688079834,-2.0817582607269287,5.275024890899658
1772594468946117000,9.7391171875,8.116044044494629,-2.0347721576690674,5.270834922790527
1772594468966381000,9.759381103515626,8.098686218261719,-1.9716250896453857,5.182548999786377
1772594468986645000,9.77964501953125,8.081328392028809,-1.2000936269760132,3.77565598487854
1772594469006908000,9.799907958984376,8.071751594543457,-1.1492167711257935,2.8628666400909424
1772594469027172000,9.820172119140626,8.130409240722656,-1.072602391242981,2.8850131034851074
1772594469047436000,9.84043603515625,8.90762710571289,-0.3495534360408783,2.9089550971984863
1772594469067699000,9.860698974609376,8.934861183166504,-0.29239189624786377,2.960430383682251
1772594469087963000,9.880962890625,8.991724014282227,-0.21607670187950134,2.9613282680511475
1772594469108227000,9.90122705078125,8.980650901794434,0.5976526141166687,2.973897695541382
1772594469128490000,9.921489990234376,8.946533203125,0.6401496529579163,2.9777884483337402
1772594469148754000,9.94175390625,8.8878755569458,1.5466543436050415,2.990657091140747
1772594469169018000,9.96201806640625,8.827122688293457,1.5882534980773926,2.9981391429901123
1772594469189281000,9.982281005859376,8.783428192138672,1.6612766981124878,3.014000654220581
1772594469209545000,10.002544921875,8.755595207214355,2.4112603664398193,3.010409355163574
1772594469229809000,10.022808837890626,8.743025779724121,2.4684219360351562,3.0131027698516846
1772594469250072000,10.043072021484376,8.700828552246094,2.517503023147583,3.0098109245300293
1772594469270336000,10.0633359375,8.720580101013184,2.55191969871521,2.9870657920837402
1772594469290600000,10.083599853515626,8.746916770935059,2.582146644592285,2.9631237983703613
1772594469310863000,10.103863037109376,8.774748802185059,2.651578426361084,2.9263129234313965
1772594469331127000,10.124126953125,8.747814178466797,3.612550973892212,2.9029695987701416
1772594469351391000,10.144390869140626,8.675688743591309,3.6385879516601562,2.8906993865966797
1772594469371654000,10.16465380859375,8.620023727416992,3.6792895793914795,2.86256742477417
1772594469391918000,10.18491796875,8.61583423614502,3.7292683124542236,2.8440122604370117
1772594469412182000,10.20518212890625,8.625710487365723,3.751713991165161,2.83443546295166
1772594469432445000,10.22544482421875,8.64246940612793,3.766977071762085,2.846107244491577
1772594469452709000,10.245709228515626,8.634089469909668,3.7864298820495605,2.86256742477417
1772594469472973000,10.26597314453125,8.577527046203613,3.820547342300415,2.867655038833618
1772594469493236000,10.286236083984376,8.520365715026855,3.861847400665283,2.8574798107147217
1772594469513500000,10.3065,8.502708435058594,3.8821980953216553,2.8470051288604736
1772594469533764000,10.32676416015625,8.521562576293945,3.91092848777771,2.8383262157440186
1772594469554027000,10.347027099609376,8.536825180053711,3.9537248611450195,2.8284499645233154
1772594469574291000,10.367291015625,8.540117263793945,3.9863457679748535,2.8221652507781982
1772594469594555000,10.387554931640626,8.549694061279297,3.98724365234375,2.816478967666626
1772594469614819000,10.407819091796876,8.547898292541504,3.976768970489502,2.790741443634033
1772594469635082000,10.42808203125,8.552088737487793,3.9641995429992676,2.756923198699951
1772594469655346000,10.448345947265626,8.563161849975586,3.9698855876922607,2.70993709564209
1772594469675610000,10.468610107421876,8.55717658996582,4.005798816680908,1.7372926473617554
1772594469695873000,10.488873046875,8.549694061279297,4.084208965301514,1.6846201419830322
1772594469716137000,10.509136962890626,8.570643424987793,4.77044677734375,1.647210717201233
1772594469736401000,10.52940087890625,8.604162216186523,4.730044841766357,1.6101006269454956
1772594469756664000,10.5496640625,8.63319206237793,4.677970886230469,1.5909470319747925
1772594469776928000,10.569927978515626,8.655038833618164,4.621407985687256,1.5822679996490479
