time,seconds_elapsed,z,y,x
1772594459442556000,0.235555908203125,0.06459426879882812,-0.07367515563964844,0.033693790435791016
1772594459462698000,0.255697998046875,0.15265798568725586,-0.16749858856201172,0.08136558532714844
1772594459482992000,0.2759921875,0.15226316452026367,-0.1677107810974121,0.0812995433807373
1772594459503256000,0.296256103515625,0.15439367294311523,-0.17043590545654297,0.08217883110046387
1772594459523519000,0.31651904296875,0.1536569595336914,-0.17005586624145508,0.08194398880004883
1772594459543783000,0.336782958984375,0.16009902954101562,-0.17771625518798828,0.08545470237731934
1772594459564047000,0.357047119140625,0.15378713607788086,-0.17076921463012695,0.08132767677307129
1772594459584310000,0.37731005859375,0.13351917266845703,-0.14920330047607422,0.07044649124145508
1772594459604574000,0.397573974609375,0.10619688034057617,-0.11927270889282227,0.05536913871765137
1772594459624838000,0.417837890625,0.06820297241210938,-0.07738351821899414,0.03505206108093262
1772594459645101000,0.43810107421875,0.08231592178344727,-0.0927286148071289,0.04294395446777344
1772594459665365000,0.458364990234375,-0.022729873657226562,0.025533199310302734,-0.011662960052490234
1772594459685629000,0.47862890625,-0.1808786392211914,0.19928312301635742,-0.09105849266052246
1772594459705892000,0.49889208984375,-0.3992786407470703,0.4263749122619629,-0.19203662872314453
1772594459726156000,0.519156005859375,-0.668342113494873,0.701446533203125,-0.31064605712890625
1772594459746420000,0.539419921875,-1.019866943359375,1.0519189834594727,-0.46320247650146484
1772594459766683000,0.559682861328125,-1.4331812858581543,1.586221694946289,-0.6864280700683594
1772594459786947000,0.579947021484375,-1.5456509590148926,1.9879403114318848,-0.8234171867370605
1772594459807211000,0.6002109375,-1.2572720050811768,2.009176731109619,-0.7260618209838867
1772594459827474000,0.620473876953125,-0.7502453327178955,1.597486972808838,-0.5107271671295166
1772594459847738000,0.640738037109375,-0.33858656883239746,0.9358220100402832,-0.2871689796447754
1772594459868002000,0.661001953125,-0.08323264122009277,0.2948446273803711,-0.08905959129333496
1772594459888265000,0.681264892578125,0.040561795234680176,-0.1923685073852539,0.05870389938354492
1772594459908529000,0.70152880859375,0.11666321754455566,-0.741943359375,0.2342541217803955
1772594459928793000,0.72179296875,0.1578528881072998,-1.3209457397460938,0.41965556144714355
1772594459949056000,0.742055908203125,0.18665051460266113,-2.0013790130615234,0.6347091197967529
1772594459969320000,0.76231982421875,0.2702457904815674,-2.637608528137207,0.8382086753845215
1772594459989584000,0.782583984375,0.3321242332458496,-2.92545223236084,0.9353196620941162
1772594460009847000,0.802846923828125,0.3018829822540283,-2.625009536743164,0.8863620758056641
1772594460030111000,0.823111083984375,0.23138689994812012,-1.896127700805664,0.6658530235290527
1772594460050375000,0.843375,0.1503227949142456,-1.1533756256103516,0.4150397777557373
1772594460070638000,0.86363818359375,0.08901810646057129,-0.6522645950317383,0.23508667945861816
1772594460090902000,0.883902099609375,0.06917476654052734,-0.4619789123535156,0.1614689826965332
1772594460111166000,0.904166015625,0.053994178771972656,-0.35098838806152344,0.11797809600830078
1772594460131429000,0.92442919921875,0.044922828674316406,-0.28390026092529297,0.0962057113647461
1772594460151693000,0.944693115234375,0.03584098815917969,-0.21972370147705078,0.07515978813171387
1772594460171957000,0.96495703125,0.02711474895477295,-0.1614522933959961,0.05585145950317383
1772594460192220000,0.985219970703125,0.019720792770385742,-0.1143035888671875,0.0399937629699707
1772594460212484000,1.005484130859375,0.025324583053588867,-0.14426898956298828,0.05064201354980469
1772594460232748000,1.025748046875,0.03562021255493164,-0.19966506958007812,0.07175254821777344
1772594460253011000,1.046010986328125,0.04635882377624512,-0.2558736801147461,0.09382748603820801
1772594460273275000,1.06627490234375,0.0568997859954834,-0.309814453125,0.11550140380859375
1772594460293539000,1.0865390625,0.063285231590271,-0.3404254913330078,0.12617015838623047
1772594460313802000,1.106802001953125,0.0687568187713623,-0.36589908599853516,0.1346120834350586
1772594460334066000,1.12706591796875,0.06918644905090332,-0.36468982696533203,0.13035011291503906
1772594460354330000,1.147330078125,0.06848454475402832,-0.3580493927001953,0.12424945831298828
1772594460374593000,1.167593017578125,0.06730079650878906,-0.3488950729370117,0.11747431755065918
1772594460394857000,1.18785693359375,0.06568849086761475,-0.3372802734375,0.11017894744873047
1772594460415121000,1.208120849609375,0.06371879577636719,-0.32386302947998047,0.10262107849121094
1772594460435384000,1.228384033203125,0.061429500579833984,-0.30896854400634766,0.09500980377197266
1772594460455648000,1.24864794921875,0.0589982271194458,-0.29409313201904297,0.08784723281860352
1772594460475912000,1.268911865234375,0.05689883232116699,-0.28149986267089844,0.08179998397827148
1772594460496175000,1.289175048828125,0.05803370475769043,-0.2856636047363281,0.08281493186950684
1772594460516439000,1.30943896484375,0.058739662170410156,-0.2881326675415039,0.08321905136108398
1772594460536703000,1.329702880859375,0.05897927284240723,-0.2889728546142578,0.08308672904968262
1772594460556966000,1.3499658203125,0.058954715728759766,-0.2890310287475586,0.08275055885314941
1772594460577230000,1.37022998046875,0.05861163139343262,-0.2887248992919922,0.08220815658569336
1772594460597494000,1.390493896484375,0.05788624286651611,-0.2878885269165039,0.08145856857299805
1772594460617758000,1.410758056640625,0.05663418769836426,-0.28553199768066406,0.08026576042175293
1772594460638021000,1.431021240234375,0.0555112361907959,-0.28469085693359375,0.07944750785827637
1772594460658285000,1.45128515625,0.05454456806182861,-0.2849445343017578,0.07889842987060547
1772594460678549000,1.471549072265625,0.05326414108276367,-0.28383445739746094,0.07798147201538086
1772594460698812000,1.49181201171875,0.05193495750427246,-0.28246402740478516,0.07706379890441895
1772594460719076000,1.512076171875,0.050603508949279785,-0.28153419494628906,0.07626914978027344
1772594460739340000,1.532340087890625,0.04933822154998779,-0.2812538146972656,0.07561969757080078
1772594460759603000,1.55260302734375,0.04747438430786133,-0.27736663818359375,0.07380986213684082
1772594460779867000,1.572866943359375,0.045398592948913574,-0.27191829681396484,0.07150840759277344
1772594460800131000,1.593131103515625,0.043401479721069336,-0.26618480682373047,0.06910824775695801
1772594460820394000,1.61339404296875,0.04161190986633301,-0.2615795135498047,0.06694173812866211
1772594460840658000,1.633657958984375,0.0369185209274292,-0.23827362060546875,0.058286428451538086
1772594460860922000,1.653922119140625,0.032535672187805176,-0.21613121032714844,0.05047726631164551
1772594460881185000,1.67418505859375,0.028908967971801758,-0.19810771942138672,0.04416799545288086
1772594460901449000,1.694448974609375,0.02575361728668213,-0.18245410919189453,0.03881549835205078
1772594460921713000,1.714712890625,0.02318739891052246,-0.16986656188964844,0.03450608253479004
1772594460941976000,1.73497607421875,0.02098381519317627,-0.15916824340820312,0.030914664268493652
1772594460962240000,1.755239990234375,0.019585490226745605,-0.15415573120117188,0.028684258460998535
1772594460982504000,1.77550390625,0.018490076065063477,-0.15073680877685547,0.026939868927001953
1772594461002767000,1.79576708984375,0.017243146896362305,-0.14567184448242188,0.025034785270690918
1772594461023031000,1.816031005859375,0.01572585105895996,-0.13790035247802734,0.02286529541015625
1772594461043295000,1.836294921875,0.015331268310546875,-0.13969802856445312,0.023432016372680664
1772594461063558000,1.856557861328125,0.014717578887939453,-0.13934326171875,0.023673415184020996
1772594461083822000,1.876822021484375,0.01378011703491211,-0.1349954605102539,0.023138880729675293
1772594461104086000,1.8970859375,0.012721896171569824,-0.12879276275634766,0.02220630645751953
1772594461124349000,1.917348876953125,0.011506259441375732,-0.12045860290527344,0.02086460590362549
1772594461144613000,1.937613037109375,0.010200679302215576,-0.11049079895019531,0.01918470859527588
1772594461164877000,1.957876953125,0.008646011352539062,-0.09709548950195312,0.016912221908569336
1772594461185140000,1.978139892578125,0.007090389728546143,-0.08296871185302734,0.014507412910461426
1772594461205404000,1.99840380859375,0.005878925323486328,-0.07212162017822266,0.01267862319946289
1772594461225668000,2.018668212890625,0.005214571952819824,-0.06727123260498047,0.011905431747436523
1772594461245931000,2.038930908203125,0.006024360656738281,-0.08206653594970703,0.015270471572875977
1772594461266195000,2.05919482421875,0.007040858268737793,-0.101959228515625,0.019885540008544922
1772594461286459000,2.079458984375,0.008190274238586426,-0.1275634765625,0.02606940269470215
1772594461306722000,2.09972216796875,0.009388983249664307,-0.15830135345458984,0.03387451171875
1772594461326986000,2.119986083984375,0.010617256164550781,-0.19466686248779297,0.043501853942871094
1772594461347250000,2.14025,0.011678636074066162,-0.23282814025878906,0.05420231819152832
1772594461367513000,2.16051318359375,0.012662321329116821,-0.2724342346191406,0.06576943397521973
1772594461387777000,2.180777099609375,0.013500511646270752,-0.30898475646972656,0.07704615592956543
1772594461408041000,2.201041015625,0.014209985733032227,-0.3397216796875,0.08708691596984863
1772594461428304000,2.221303955078125,0.014724373817443848,-0.36240100860595703,0.09505081176757812
1772594461448568000,2.241568115234375,0.014402568340301514,-0.35868167877197266,0.09316706657409668
1772594461468832000,2.26183203125,0.013987600803375244,-0.3475179672241211,0.08919143676757812
1772594461489095000,2.282094970703125,0.013495266437530518,-0.33027172088623047,0.08359861373901367
1772594461509359000,2.302359130859375,0.012950807809829712,-0.3103199005126953,0.07737517356872559
1772594461529623000,2.322623046875,0.01235133409500122,-0.28744029998779297,0.07059907913208008
1772594461549886000,2.342885986328125,0.011745601892471313,-0.2656736373901367,0.06428146362304688
1772594461570150000,2.36314990234375,0.011066049337387085,-0.24545001983642578,0.058524131774902344
1772594461590414000,2.3834140625,0.010468006134033203,-0.2303009033203125,0.054216861724853516
1772594461610677000,2.403677001953125,0.009931892156600952,-0.22026824951171875,0.051338911056518555
1772594461630941000,2.42394091796875,0.009520947933197021,-0.21526336669921875,0.04983258247375488
1772594461651205000,2.444205078125,0.009243786334991455,-0.2143869400024414,0.04943513870239258
1772594461671468000,2.464468017578125,0.009222418069839478,-0.2182464599609375,0.05027937889099121
1772594461691732000,2.48473193359375,0.009346812963485718,-0.2257251739501953,0.05206108093261719
1772594461711996000,2.504995849609375,0.009465903043746948,-0.2334909439086914,0.05398416519165039
1772594461732259000,2.525259033203125,0.009574949741363525,-0.2414531707763672,0.056002140045166016
1772594461752523000,2.54552294921875,0.009503215551376343,-0.2443523406982422,0.05684351921081543
1772594461772787000,2.565786865234375,0.00938636064529419,-0.2453174591064453,0.057251691818237305
1772594461793050000,2.586050048828125,0.009268254041671753,-0.24503803253173828,0.05728006362915039
1772594461813314000,2.60631396484375,0.009256690740585327,-0.24437427520751953,0.05717730522155762
1772594461833578000,2.626577880859375,0.009329169988632202,-0.24321556091308594,0.05691671371459961
1772594461853841000,2.6468408203125,0.00946912169456482,-0.2419900894165039,0.05657958984375
1772594461874105000,2.66710498046875,0.009545892477035522,-0.2403564453125,0.05607342720031738
1772594461894369000,2.687369140625,0.00963813066482544,-0.2388315200805664,0.05553555488586426
1772594461914633000,2.707633056640625,0.009704113006591797,-0.23680973052978516,0.054834604263305664
1772594461934896000,2.727896240234375,0.00968843698501587,-0.2334423065185547,0.05377674102783203
1772594461955160000,2.74816015625,0.00983649492263794,-0.23443317413330078,0.0537114143371582
1772594461975424000,2.768424072265625,0.009978115558624268,-0.23618602752685547,0.05384111404418945
1772594461995687000,2.78868701171875,0.010056734085083008,-0.2368917465209961,0.05369377136230469
1772594462015951000,2.808951171875,0.010077178478240967,-0.23691463470458984,0.053328752517700195
1772594462036215000,2.829215087890625,0.01016688346862793,-0.23807334899902344,0.05317568778991699
1772594462056478000,2.84947802734375,0.010218203067779541,-0.23917198181152344,0.05304718017578125
1772594462076742000,2.869741943359375,0.010266304016113281,-0.24054908752441406,0.053012847900390625
1772594462097006000,2.890006103515625,0.010312885046005249,-0.2418346405029297,0.052977800369262695
1772594462117269000,2.91026904296875,0.010526120662689209,-0.24683094024658203,0.05380392074584961
1772594462137533000,2.930532958984375,0.010811328887939453,-0.2545900344848633,0.05530905723571777
1772594462157797000,2.950797119140625,0.010999590158462524,-0.26131439208984375,0.05672192573547363
1772594462178060000,2.97106005859375,0.01116800308227539,-0.2688779830932617,0.05839204788208008
1772594462198324000,2.991323974609375,0.011329799890518188,-0.27715587615966797,0.06030130386352539
1772594462218588000,3.011587890625,0.011319249868392944,-0.2829771041870117,0.06180763244628906
1772594462238851000,3.03185107421875,0.0109347403049469,-0.2842121124267578,0.062302350997924805
1772594462259115000,3.052114990234375,0.01032477617263794,-0.2819652557373047,0.061934709548950195
1772594462279379000,3.07237890625,0.009493142366409302,-0.2762622833251953,0.06075906753540039
1772594462299642000,3.09264208984375,0.008573710918426514,-0.26789093017578125,0.059014081954956055
1772594462319906000,3.112906005859375,0.007501512765884399,-0.2541370391845703,0.05606269836425781
1772594462340170000,3.133169921875,0.006439298391342163,-0.23589038848876953,0.0520627498626709
1772594462360433000,3.153432861328125,0.005456522107124329,-0.21663570404052734,0.04775547981262207
1772594462380697000,3.173697021484375,0.004547402262687683,-0.1957416534423828,0.04304766654968262
1772594462400961000,3.1939609375,0.0037204474210739136,-0.17463302612304688,0.03835105895996094
1772594462421224000,3.214223876953125,0.003083467483520508,-0.15722179412841797,0.03443717956542969
1772594462441488000,3.23448779296875,0.0026946812868118286,-0.14528179168701172,0.031767845153808594
1772594462461752000,3.254751953125,0.002458930015563965,-0.13808822631835938,0.030176162719726562
1772594462482015000,3.275014892578125,0.0023735761642456055,-0.13477230072021484,0.029459476470947266
1772594462502279000,3.29527880859375,0.0023564398288726807,-0.1338825225830078,0.029236316680908203
1772594462522543000,3.315543212890625,0.0024335533380508423,-0.135986328125,0.029606342315673828
1772594462542806000,3.335805908203125,0.0025520920753479004,-0.13883209228515625,0.030109405517578125
1772594462563070000,3.356070068359375,0.0027261823415756226,-0.14046478271484375,0.030321598052978516
1772594462583334000,3.376333984375,0.0029448270797729492,-0.14167022705078125,0.030420541763305664
1772594462603597000,3.39659716796875,0.0031457245349884033,-0.1407480239868164,0.030031442642211914
1772594462623861000,3.416861083984375,0.0033491849899291992,-0.13965511322021484,0.029613971710205078
1772594462644125000,3.437125,0.0035006552934646606,-0.13691234588623047,0.028821945190429688
1772594462664388000,3.45738818359375,0.0036479830741882324,-0.13405799865722656,0.02800273895263672
1772594462684652000,3.477652099609375,0.003795236349105835,-0.13102054595947266,0.02712535858154297
1772594462704916000,3.497916015625,0.003969907760620117,-0.12948131561279297,0.026610612869262695
1772594462725179000,3.518178955078125,0.004143327474594116,-0.12836265563964844,0.026256561279296875
1772594462745443000,3.538443115234375,0.004398077726364136,-0.1297740936279297,0.02647113800048828
1772594462765707000,3.55870703125,0.004744678735733032,-0.1348743438720703,0.027469635009765625
1772594462785970000,3.578969970703125,0.005187898874282837,-0.1427774429321289,0.02907085418701172
1772594462806234000,3.599234130859375,0.005754530429840088,-0.15406417846679688,0.03138875961303711
1772594462826498000,3.619498046875,0.0063127875328063965,-0.16510391235351562,0.03367948532104492
1772594462846761000,3.639760986328125,0.00689929723739624,-0.1764698028564453,0.03615593910217285
1772594462867025000,3.66002490234375,0.007526963949203491,-0.18894290924072266,0.03898358345031738
1772594462887289000,3.6802890625,0.00821608304977417,-0.20333290100097656,0.04228806495666504
1772594462907552000,3.700552001953125,0.00887972116470337,-0.21731185913085938,0.045532941818237305
1772594462927816000,3.72081591796875,0.009558498859405518,-0.22946929931640625,0.048367977142333984
1772594462948080000,3.741080078125,0.010186493396759033,-0.23981571197509766,0.05071902275085449
1772594462968343000,3.761343017578125,0.01071271300315857,-0.24622440338134766,0.05220389366149902
1772594462988607000,3.78160693359375,0.011201471090316772,-0.2504920959472656,0.053157806396484375
1772594463008871000,3.801870849609375,0.011677265167236328,-0.25311756134033203,0.053688764572143555
1772594463029134000,3.822134033203125,0.011989414691925049,-0.25104427337646484,0.05317234992980957
1772594463049398000,3.84239794921875,0.012289106845855713,-0.24839210510253906,0.05243206024169922
1772594463069662000,3.862661865234375,0.01261216402053833,-0.2447500228881836,0.05135035514831543
1772594463089925000,3.882925048828125,0.01276177167892456,-0.23768997192382812,0.04951035976409912
1772594463110189000,3.90318896484375,0.012906432151794434,-0.23059463500976562,0.04766035079956055
1772594463130453000,3.923452880859375,0.01297295093536377,-0.22373676300048828,0.04586505889892578
1772594463150716000,3.9437158203125,0.013026833534240723,-0.21732425689697266,0.04424309730529785
1772594463170980000,3.96397998046875,0.013246119022369385,-0.21485137939453125,0.043370962142944336
1772594463191244000,3.984244140625,0.01335299015045166,-0.21152687072753906,0.04230189323425293
1772594463211508000,4.004508056640625,0.013364136219024658,-0.2073822021484375,0.04107189178466797
1772594463231771000,4.02477099609375,0.013587892055511475,-0.2068338394165039,0.04052865505218506
1772594463252035000,4.04503515625,0.01381981372833252,-0.20686626434326172,0.040053367614746094
1772594463272299000,4.065299072265625,0.013941586017608643,-0.2062244415283203,0.03949940204620361
1772594463292562000,4.08556201171875,0.014113843441009521,-0.2066326141357422,0.039200663566589355
1772594463312826000,4.105826171875,0.014311671257019043,-0.2075347900390625,0.03902125358581543
1772594463333090000,4.126090087890625,0.014578938484191895,-0.20989227294921875,0.03922736644744873
1772594463353344000,4.146343994140625,0.014904439449310303,-0.21311569213867188,0.03968024253845215
1772594463373608000,4.16660791015625,0.01521986722946167,-0.21634292602539062,0.04027605056762695
1772594463393871000,4.18687109375,0.015631437301635742,-0.2210226058959961,0.04128849506378174
1772594463414135000,4.207135009765625,0.01616114377975464,-0.22736454010009766,0.04272174835205078
1772594463434399000,4.22739892578125,0.01666247844696045,-0.2332286834716797,0.04411733150482178
1772594463454662000,4.247661865234375,0.01708972454071045,-0.23772716522216797,0.0453188419342041
1772594463474926000,4.267926025390625,0.017461657524108887,-0.24145030975341797,0.046341896057128906
1772594463495190000,4.28818994140625,0.017684102058410645,-0.2434368133544922,0.04700469970703125
1772594463515453000,4.308452880859375,0.017749547958374023,-0.24334335327148438,0.047225236892700195
1772594463535717000,4.328717041015625,0.017863869667053223,-0.24366188049316406,0.04741501808166504
1772594463555981000,4.34898095703125,0.01792895793914795,-0.24373817443847656,0.04744541645050049
1772594463576244000,4.369243896484375,0.017888903617858887,-0.24265289306640625,0.047171592712402344
1772594463616772000,4.409772216796875,0.017578542232513428,-0.23908042907714844,0.04627799987792969
1772594463637035000,4.430034912109375,0.017445623874664307,-0.23866844177246094,0.04611682891845703
1772594463657299000,4.450298828125,0.017169415950775146,-0.23648548126220703,0.0456162691116333
1772594463677563000,4.47056298828125,0.016931235790252686,-0.23390483856201172,0.04507160186767578
1772594463697826000,4.490825927734375,0.016892433166503906,-0.23350143432617188,0.044930338859558105
1772594463718090000,4.511090087890625,0.01691669225692749,-0.23383522033691406,0.04493534564971924
1772594463738354000,4.53135400390625,0.016800343990325928,-0.2324075698852539,0.044622182846069336
1772594463758617000,4.5516171875,0.016644001007080078,-0.2304668426513672,0.044202566146850586
1772594463778881000,4.571881103515625,0.01651102304458618,-0.22876548767089844,0.043819546699523926
1772594463799145000,4.59214501953125,0.016369163990020752,-0.2267322540283203,0.043299078941345215
1772594463819408000,4.612407958984375,0.016263306140899658,-0.22466087341308594,0.042787909507751465
1772594463839672000,4.632672119140625,0.016031861305236816,-0.22148513793945312,0.042072296142578125
1772594463859936000,4.65293603515625,0.015933752059936523,-0.22083282470703125,0.041848063468933105
1772594463880199000,4.673198974609375,0.01585686206817627,-0.22129535675048828,0.0418013334274292
1772594463900463000,4.693463134765625,0.015723347663879395,-0.22092628479003906,0.04162240028381348
1772594463920727000,4.71372705078125,0.015606164932250977,-0.2206106185913086,0.041489243507385254
1772594463940990000,4.733989990234375,0.01554197072982788,-0.22081756591796875,0.041451215744018555
1772594463961254000,4.75425390625,0.015358150005340576,-0.21978282928466797,0.041188716888427734
1772594463981518000,4.77451806640625,0.015061736106872559,-0.21777820587158203,0.04077577590942383
1772594464001781000,4.794781005859375,0.014713525772094727,-0.21586132049560547,0.04038691520690918
1772594464022045000,4.815044921875,0.01434391736984253,-0.2137889862060547,0.03996443748474121
1772594464042309000,4.83530908203125,0.014062047004699707,-0.21247005462646484,0.03967142105102539
1772594464062572000,4.855572021484375,0.013777613639831543,-0.21072673797607422,0.0392993688583374
1772594464082836000,4.8758359375,0.013446986675262451,-0.20859813690185547,0.03888833522796631
1772594464103100000,4.896099853515625,0.013055264949798584,-0.2064533233642578,0.038471221923828125
1772594464123363000,4.916363037109375,0.0126267671585083,-0.20467567443847656,0.03812813758850098
1772594464143627000,4.936626953125,0.012200772762298584,-0.2034778594970703,0.03788328170776367
1772594464163891000,4.956890869140625,0.011807441711425781,-0.20296192169189453,0.03777909278869629
1772594464184154000,4.977154052734375,0.011601567268371582,-0.20453739166259766,0.03806257247924805
1772594464204418000,4.99741796875,0.011500775814056396,-0.20751380920410156,0.038622379302978516
1772594464224682000,5.017681884765625,0.011379420757293701,-0.20968055725097656,0.039017319679260254
1772594464244945000,5.03794482421875,0.01122891902923584,-0.21134090423583984,0.03933298587799072
1772594464265209000,5.058208984375,0.011116743087768555,-0.21319961547851562,0.03969120979309082
1772594464285473000,5.07847314453125,0.011056959629058838,-0.2161703109741211,0.040235280990600586
1772594464305736000,5.09873583984375,0.01105111837387085,-0.21908187866210938,0.04079997539520264
1772594464326000000,5.119000244140625,0.011038362979888916,-0.2215137481689453,0.04124462604522705
1772594464346264000,5.13926416015625,0.011009126901626587,-0.22342395782470703,0.041603922843933105
1772594464366527000,5.15952685546875,0.011074066162109375,-0.22643566131591797,0.042157649993896484
1772594464386791000,5.179791015625,0.01102176308631897,-0.22788619995117188,0.042424559593200684
1772594464407055000,5.20005517578125,0.01098710298538208,-0.2295389175415039,0.042702555656433105
1772594464427319000,5.220319091796875,0.010965675115585327,-0.23108291625976562,0.04294013977050781
1772594464447582000,5.24058203125,0.010972976684570312,-0.232818603515625,0.04320979118347168
1772594464467846000,5.260845947265625,0.010947078466415405,-0.2341632843017578,0.04342007637023926
1772594464488110000,5.281110107421875,0.010891258716583252,-0.23412132263183594,0.04336249828338623
1772594464508373000,5.301373046875,0.01095956563949585,-0.2352609634399414,0.04348492622375488
1772594464528637000,5.321636962890625,0.011132091283798218,-0.23678112030029297,0.04368484020233154
1772594464548901000,5.341901123046875,0.011383533477783203,-0.2385578155517578,0.04392552375793457
1772594464569164000,5.3621640625,0.011698871850967407,-0.24021244049072266,0.04417300224304199
1772594464589428000,5.382427978515625,0.012071847915649414,-0.24277687072753906,0.04457437992095947
1772594464609692000,5.40269189453125,0.012335211038589478,-0.2438526153564453,0.044765591621398926
1772594464629955000,5.422955078125,0.012692809104919434,-0.24522781372070312,0.045018553733825684
1772594464650219000,5.443218994140625,0.013061940670013428,-0.24580860137939453,0.04511451721191406
1772594464670483000,5.46348291015625,0.013514041900634766,-0.24701213836669922,0.04530739784240723
1772594464690746000,5.48374609375,0.013996243476867676,-0.2484302520751953,0.04557299613952637
1772594464711010000,5.504010009765625,0.01438760757446289,-0.24872779846191406,0.04564821720123291
1772594464731274000,5.52427392578125,0.014767348766326904,-0.2492809295654297,0.045774221420288086
1772594464751537000,5.544536865234375,0.014974355697631836,-0.2480449676513672,0.04558372497558594
1772594464771801000,5.564801025390625,0.015034914016723633,-0.24640941619873047,0.04531097412109375
1772594464792065000,5.58506494140625,0.015015244483947754,-0.2438182830810547,0.044875144958496094
1772594464812328000,5.605327880859375,0.015017926692962646,-0.24088096618652344,0.04434323310852051
1772594464832592000,5.625591796875,0.014984548091888428,-0.2379589080810547,0.04382944107055664
1772594464852856000,5.64585595703125,0.014970541000366211,-0.23545455932617188,0.043410539627075195
1772594464873119000,5.666118896484375,0.015010654926300049,-0.2338695526123047,0.04315388202667236
1772594464893383000,5.6863828125,0.015059947967529297,-0.23265647888183594,0.04296231269836426
1772594464913647000,5.706647216796875,0.015071988105773926,-0.23253726959228516,0.042998313903808594
1772594464933910000,5.726909912109375,0.014917075634002686,-0.23144912719726562,0.042867302894592285
1772594464954174000,5.747174072265625,0.014755606651306152,-0.2310333251953125,0.04283487796783447
1772594464974438000,5.76743798828125,0.014589905738830566,-0.23054027557373047,0.04279136657714844
1772594464994701000,5.787701171875,0.014395594596862793,-0.2295064926147461,0.042613863945007324
1772594465014965000,5.807965087890625,0.014218688011169434,-0.22875690460205078,0.04248809814453125
1772594465035229000,5.82822900390625,0.0139617919921875,-0.22745513916015625,0.04225754737854004
1772594465055492000,5.8484921875,0.013654768466949463,-0.22626018524169922,0.04203641414642334
1772594465075756000,5.868756103515625,0.0131758451461792,-0.22333526611328125,0.041500210762023926
1772594465096020000,5.88902001953125,0.012689590454101562,-0.22037220001220703,0.04098236560821533
1772594465116283000,5.909282958984375,0.012193024158477783,-0.21623611450195312,0.04023575782775879
1772594465136547000,5.929547119140625,0.011800646781921387,-0.2119464874267578,0.039443016052246094
1772594465156811000,5.94981103515625,0.011509835720062256,-0.2077655792236328,0.03865706920623779
1772594465177074000,5.970073974609375,0.011294960975646973,-0.20369338989257812,0.03788912296295166
1772594465197338000,5.990338134765625,0.011267483234405518,-0.20180892944335938,0.03755676746368408
1772594465217602000,6.01060205078125,0.011250495910644531,-0.19974422454833984,0.037126779556274414
1772594465237865000,6.030864990234375,0.011376023292541504,-0.19959354400634766,0.036995887756347656
1772594465258129000,6.05112890625,0.011557221412658691,-0.1994781494140625,0.036844730377197266
1772594465278393000,6.07139306640625,0.011818230152130127,-0.20014381408691406,0.036812543869018555
1772594465298656000,6.091656005859375,0.01213747262954712,-0.20148849487304688,0.03687751293182373
1772594465318920000,6.111919921875,0.012459278106689453,-0.202911376953125,0.03694319725036621
1772594465339184000,6.13218408203125,0.012851357460021973,-0.2057809829711914,0.03727364540100098
1772594465359447000,6.152447021484375,0.013356983661651611,-0.210357666015625,0.03795313835144043
1772594465379711000,6.1727109375,0.013854801654815674,-0.21471786499023438,0.03857302665710449
1772594465399975000,6.192974853515625,0.01421278715133667,-0.21704578399658203,0.038809895515441895
1772594465420238000,6.213238037109375,0.014649748802185059,-0.22064971923828125,0.03935384750366211
1772594465440502000,6.233501953125,0.014965176582336426,-0.22299861907958984,0.03976547718048096
1772594465460766000,6.253765869140625,0.015325725078582764,-0.22603893280029297,0.04031872749328613
1772594465481029000,6.274029052734375,0.01573050022125244,-0.2293701171875,0.04094803333282471
1772594465501293000,6.29429296875,0.01606130599975586,-0.2313241958618164,0.04131817817687988
1772594465521557000,6.314556884765625,0.016421914100646973,-0.233428955078125,0.041745901107788086
1772594465541820000,6.33481982421875,0.016642272472381592,-0.23482131958007812,0.0420687198638916
1772594465562084000,6.355083984375,0.0166856050491333,-0.23506546020507812,0.042200446128845215
1772594465582348000,6.37534814453125,0.016579270362854004,-0.2348613739013672,0.042244672775268555
1772594465602611000,6.39561083984375,0.016395270824432373,-0.23436546325683594,0.04226529598236084
1772594465622875000,6.415875,0.016100764274597168,-0.23335742950439453,0.04215860366821289
1772594465643139000,6.43613916015625,0.01578378677368164,-0.2325458526611328,0.04207170009613037
1772594465663402000,6.456402099609375,0.015421032905578613,-0.23105716705322266,0.041885972023010254
1772594465683666000,6.476666015625,0.015024662017822266,-0.22844982147216797,0.0415041446685791
1772594465703930000,6.49693017578125,0.014686763286590576,-0.2262554168701172,0.04123556613922119
1772594465724194000,6.517194091796875,0.014385998249053955,-0.22452545166015625,0.041029930114746094
1772594465744457000,6.53745703125,0.014116883277893066,-0.2229328155517578,0.04082643985748291
1772594465764721000,6.557720947265625,0.013803184032440186,-0.22064208984375,0.040468454360961914
1772594465784985000,6.577985107421875,0.013583481311798096,-0.21924591064453125,0.04028940200805664
1772594465805248000,6.598248046875,0.013434767723083496,-0.2189311981201172,0.04025924205780029
1772594465825512000,6.618511962890625,0.013396263122558594,-0.21953678131103516,0.04041886329650879
1772594465845776000,6.63877587890625,0.013452291488647461,-0.2202005386352539,0.0405735969543457
1772594465866039000,6.6590390625,0.013491153717041016,-0.22069072723388672,0.04068946838378906
1772594465886303000,6.679302978515625,0.013628602027893066,-0.2228860855102539,0.04109311103820801
1772594465906567000,6.69956689453125,0.0137404203414917,-0.22552013397216797,0.04156923294067383
1772594465926830000,6.719830078125,0.013733744621276855,-0.2271432876586914,0.04183483123779297
1772594465947094000,6.740093994140625,0.013729214668273926,-0.22882461547851562,0.04211235046386719
1772594465967358000,6.76035791015625,0.013777732849121094,-0.23111534118652344,0.04249000549316406
1772594465987621000,6.78062109375,0.013837218284606934,-0.23346996307373047,0.042899131774902344
1772594466007885000,6.800885009765625,0.013865172863006592,-0.23525142669677734,0.04321575164794922
1772594466028149000,6.82114892578125,0.013792216777801514,-0.23532962799072266,0.043225765228271484
1772594466048412000,6.841411865234375,0.013661324977874756,-0.2352151870727539,0.04321730136871338
1772594466068676000,6.861676025390625,0.0134773850440979,-0.23467254638671875,0.04311096668243408
1772594466088940000,6.88193994140625,0.013289570808410645,-0.23390769958496094,0.04296743869781494
1772594466109203000,6.902202880859375,0.013147950172424316,-0.23299598693847656,0.042783141136169434
1772594466129467000,6.922466796875,0.013116836547851562,-0.2330608367919922,0.04278421401977539
1772594466149731000,6.94273095703125,0.01304018497467041,-0.2314767837524414,0.0424884557723999
1772594466169994000,6.962993896484375,0.013001561164855957,-0.2303638458251953,0.04230320453643799
1772594466190258000,6.9832578125,0.012875556945800781,-0.22792434692382812,0.0418553352355957
1772594466210522000,7.003522216796875,0.012788534164428711,-0.22655582427978516,0.04161059856414795
1772594466230785000,7.023784912109375,0.01276099681854248,-0.2268962860107422,0.04167962074279785
1772594466251049000,7.044049072265625,0.012727797031402588,-0.22788715362548828,0.041884779930114746
1772594466271313000,7.06431298828125,0.012699484825134277,-0.22927379608154297,0.04216206073760986
1772594466291576000,7.084576171875,0.012664794921875,-0.23054027557373047,0.0424424409866333
1772594466311840000,7.104840087890625,0.012595713138580322,-0.23136234283447266,0.04261970520019531
1772594466332104000,7.12510400390625,0.012552797794342041,-0.23189258575439453,0.04276120662689209
1772594466352367000,7.1453671875,0.012569546699523926,-0.232879638671875,0.04297029972076416
1772594466372631000,7.165631103515625,0.01264190673828125,-0.23370075225830078,0.043134093284606934
1772594466392895000,7.18589501953125,0.012906074523925781,-0.2365884780883789,0.043678998947143555
1772594466413158000,7.206157958984375,0.013173282146453857,-0.23946666717529297,0.0442049503326416
1772594466433422000,7.226422119140625,0.013435006141662598,-0.24208641052246094,0.04466676712036133
1772594466453686000,7.24668603515625,0.01365429162979126,-0.24364471435546875,0.044931888580322266
1772594466473949000,7.266948974609375,0.013904929161071777,-0.2459239959716797,0.04533278942108154
1772594466494213000,7.287213134765625,0.014090359210968018,-0.24678897857666016,0.04548168182373047
1772594466514477000,7.30747705078125,0.01432657241821289,-0.24880313873291016,0.04588961601257324
1772594466534740000,7.327739990234375,0.01445925235748291,-0.24943923950195312,0.04604518413543701
1772594466555004000,7.34800390625,0.014605879783630371,-0.25034236907958984,0.04625976085662842
1772594466575268000,7.36826806640625,0.014652252197265625,-0.2508687973022461,0.0464017391204834
1772594466595531000,7.388531005859375,0.014558672904968262,-0.24982833862304688,0.04623103141784668
1772594466615795000,7.408794921875,0.014453291893005371,-0.24739456176757812,0.045835018157958984
1772594466636059000,7.429058837890625,0.014397263526916504,-0.24449920654296875,0.045365333557128906
1772594466656322000,7.449322021484375,0.01444864273071289,-0.2425212860107422,0.04503607749938965
1772594466676586000,7.4695859375,0.014459967613220215,-0.2390880584716797,0.044467806816101074
1772594466696850000,7.489849853515625,0.014468729496002197,-0.2365245819091797,0.04404294490814209
1772594466717113000,7.510113037109375,0.01443183422088623,-0.2330636978149414,0.043429017066955566
1772594466737377000,7.530376953125,0.01444101333618164,-0.2304859161376953,0.04298257827758789
1772594466757641000,7.550640869140625,0.014358818531036377,-0.22823524475097656,0.042597174644470215
1772594466777904000,7.570904052734375,0.014241278171539307,-0.22540950775146484,0.04208242893218994
1772594466798168000,7.59116796875,0.014287054538726807,-0.22460174560546875,0.04197263717651367
1772594466818432000,7.611431884765625,0.014386117458343506,-0.2245159149169922,0.04197287559509277
1772594466838695000,7.63169482421875,0.014473557472229004,-0.2244548797607422,0.041985273361206055
1772594466858959000,7.651958984375,0.014474332332611084,-0.2235269546508789,0.04183304309844971
1772594466879223000,7.67222314453125,0.014506220817565918,-0.224273681640625,0.04197227954864502
1772594466899486000,7.69248583984375,0.014431536197662354,-0.2243499755859375,0.04196441173553467
1772594466919750000,7.71275,0.014204680919647217,-0.22330570220947266,0.04175925254821777
1772594466940014000,7.73301416015625,0.013945519924163818,-0.22277545928955078,0.04163408279418945
1772594466960277000,7.753277099609375,0.013763189315795898,-0.22267627716064453,0.041604042053222656
1772594466980541000,7.773541015625,0.013742566108703613,-0.22390174865722656,0.04181694984436035
1772594467000805000,7.79380517578125,0.013689398765563965,-0.22476673126220703,0.0419386625289917
1772594467021069000,7.814069091796875,0.013617217540740967,-0.22520732879638672,0.04198944568634033
1772594467041332000,7.83433203125,0.013561606407165527,-0.2262592315673828,0.042139410972595215
1772594467061596000,7.854595947265625,0.013498127460479736,-0.22768592834472656,0.042352914810180664
1772594467081860000,7.874860107421875,0.01337820291519165,-0.2276134490966797,0.04230296611785889
1772594467102123000,7.895123046875,0.013311803340911865,-0.22807979583740234,0.042398810386657715
1772594467122387000,7.915386962890625,0.01336294412612915,-0.23038482666015625,0.0428011417388916
1772594467142651000,7.93565087890625,0.013392448425292969,-0.23204517364501953,0.043085694313049316
1772594467162914000,7.9559140625,0.01341557502746582,-0.23349571228027344,0.04333305358886719
1772594467183178000,7.976177978515625,0.013323426246643066,-0.23437881469726562,0.043500304222106934
1772594467203442000,7.99644189453125,0.0131264328956604,-0.23400592803955078,0.04343819618225098
1772594467223705000,8.016705078125,0.01289147138595581,-0.2337017059326172,0.04340779781341553
1772594467243969000,8.036968994140626,0.012668728828430176,-0.23339080810546875,0.04341006278991699
1772594467264233000,8.05723291015625,0.01244664192199707,-0.23322772979736328,0.04350113868713379
1772594467284496000,8.077495849609376,0.012351274490356445,-0.2345600128173828,0.0439300537109375
1772594467304760000,8.097760009765626,0.012406468391418457,-0.23742008209228516,0.04468250274658203
1772594467325024000,8.11802392578125,0.012562155723571777,-0.240203857421875,0.045433878898620605
1772594467345287000,8.138286865234376,0.012747645378112793,-0.2418498992919922,0.04596126079559326
1772594467365551000,8.158551025390626,0.012746214866638184,-0.23850059509277344,0.045543670654296875
1772594467385815000,8.17881494140625,0.012586712837219238,-0.23131942749023438,0.044475674629211426
1772594467406078000,8.199077880859376,0.0123404860496521,-0.22166061401367188,0.04294729232788086
1772594467426342000,8.219341796875,0.012215018272399902,-0.21300220489501953,0.04162132740020752
1772594467446606000,8.239606201171876,0.01224738359451294,-0.20720577239990234,0.04082942008972168
1772594467466869000,8.259868896484376,0.012373566627502441,-0.20208072662353516,0.040103793144226074
1772594467487133000,8.2801328125,0.012234091758728027,-0.19334030151367188,0.03858184814453125
1772594467507397000,8.300397216796876,0.011693000793457031,-0.1796131134033203,0.03599202632904053
1772594467527660000,8.320659912109376,0.011019885540008545,-0.16566944122314453,0.03338301181793213
1772594467547924000,8.340924072265626,0.010297954082489014,-0.15237140655517578,0.03091144561767578
1772594467568188000,8.36118798828125,0.009949207305908203,-0.14513683319091797,0.029657721519470215
1772594467588451000,8.381451171875,0.009966254234313965,-0.14357948303222656,0.029520153999328613
1772594467608715000,8.401715087890626,0.010082840919494629,-0.1439647674560547,0.0297853946685791
1772594467628979000,8.42197900390625,0.009992063045501709,-0.14185047149658203,0.02950608730316162
1772594467649242000,8.4422421875,0.009522318840026855,-0.13515281677246094,0.028253555297851562
1772594467669506000,8.462506103515626,0.009077966213226318,-0.12967777252197266,0.02724003791809082
1772594467689770000,8.48277001953125,0.008901655673980713,-0.1284046173095703,0.027112483978271484
1772594467710033000,8.503032958984376,0.008793771266937256,-0.12853336334228516,0.027295827865600586
1772594467730297000,8.523297119140626,0.00855475664138794,-0.12623214721679688,0.02694845199584961
1772594467750561000,8.54356103515625,0.008279085159301758,-0.1230916976928711,0.026400327682495117
1772594467770824000,8.563823974609376,0.007869362831115723,-0.11792373657226562,0.025380849838256836
1772594467791088000,8.584088134765626,0.007121920585632324,-0.10721206665039062,0.023108243942260742
1772594467811352000,8.60435205078125,0.006341814994812012,-0.09618759155273438,0.020727872848510742
1772594467831615000,8.624614990234376,0.005673050880432129,-0.08713150024414062,0.01877117156982422
1772594467851879000,8.64487890625,0.0056321024894714355,-0.08809280395507812,0.018990755081176758
1772594467872143000,8.66514306640625,0.005530595779418945,-0.08817577362060547,0.019025802612304688
1772594467892406000,8.685406005859376,0.005437970161437988,-0.08871746063232422,0.019149065017700195
1772594467912670000,8.705669921875,0.005556225776672363,-0.09276199340820312,0.020053386688232422
1772594467932934000,8.725933837890626,0.006036639213562012,-0.103515625,0.022420406341552734
1772594467953197000,8.746197021484376,0.006969153881072998,-0.1230001449584961,0.026655197143554688
1772594467973461000,8.7664609375,0.007874369621276855,-0.1442737579345703,0.03132128715515137
1772594467993725000,8.786724853515626,0.00852888822555542,-0.16387271881103516,0.0357508659362793
1772594468013988000,8.806988037109376,0.00883975625038147,-0.17731285095214844,0.03891491889953613
1772594468034252000,8.827251953125,0.008861958980560303,-0.18511390686035156,0.04075026512145996
1772594468054516000,8.847515869140626,0.007553666830062866,-0.1622304916381836,0.03435468673706055
1772594468074779000,8.86777880859375,0.0065934062004089355,-0.145660400390625,0.02968418598175049
1772594468095043000,8.88804296875,0.0060353875160217285,-0.13691425323486328,0.02690255641937256
1772594468115307000,8.90830712890625,0.005614757537841797,-0.13198471069335938,0.025005340576171875
1772594468135570000,8.92856982421875,0.005297809839248657,-0.1293354034423828,0.02353382110595703
1772594468155834000,8.948834228515626,0.004831284284591675,-0.12244796752929688,0.02139425277709961
1772594468176098000,8.96909814453125,0.005261480808258057,-0.13649559020996094,0.024135470390319824
1772594468196361000,8.98936083984375,0.003296792507171631,-0.0854043960571289,0.015371918678283691
1772594468216625000,9.009625,0.0014328956604003906,-0.036690711975097656,0.00673365592956543
1772594468236889000,9.02988916015625,0.0004534721374511719,-0.011373519897460938,0.002233266830444336
1772594468257152000,9.050152099609376,0.0036860406398773193,-0.09051895141601562,0.019603490829467773
1772594468277416000,9.070416015625,0.010336339473724365,-0.24686145782470703,0.05788064002990723
1772594468297680000,9.090679931640626,0.017730653285980225,-0.4042959213256836,0.10167384147644043
1772594468317944000,9.110944091796876,0.030137211084365845,-0.6478309631347656,0.17188763618469238
1772594468338207000,9.13120703125,0.047269463539123535,-0.9668512344360352,0.26801538467407227
1772594468358471000,9.151470947265626,0.06926745176315308,-1.3661823272705078,0.39110350608825684
1772594468378735000,9.171735107421876,0.09066486358642578,-1.7429218292236328,0.4989652633666992
1772594468398998000,9.191998046875,0.11541956663131714,-2.194760322570801,0.6236879825592041
1772594468419262000,9.212261962890626,0.14411026239395142,-2.713888168334961,0.7610583305358887
1772594468439526000,9.23252587890625,0.2085932493209839,-3.1481056213378906,0.8573646545410156
1772594468459789000,9.2527890625,0.29230940341949463,-3.435609817504883,0.9213533401489258
1772594468480053000,9.273052978515626,0.37268733978271484,-3.5706615447998047,0.9553766250610352
1772594468500317000,9.29331689453125,0.47802722454071045,-3.700967788696289,0.9886772632598877
1772594468520580000,9.313580078125,0.5947327613830566,-3.6785383224487305,0.9924015998840332
1772594468540844000,9.333843994140626,0.7068624496459961,-3.4708118438720703,0.960186243057251
1772594468561108000,9.35410791015625,0.7834458351135254,-3.1105222702026367,0.8972446918487549
1772594468581371000,9.374370849609376,0.8454654216766357,-2.691558837890625,0.8203117847442627
1772594468601635000,9.394635009765626,0.8806576728820801,-2.228510856628418,0.7287678718566895
1772594468621899000,9.41489892578125,0.8420557975769043,-1.6983222961425781,0.6083648204803467
1772594468642162000,9.435161865234376,0.7500648498535156,-1.2334375381469727,0.4875147342681885
1772594468662426000,9.455426025390626,0.669705867767334,-0.9071359634399414,0.39551758766174316
1772594468682690000,9.47568994140625,0.6236710548400879,-0.7023220062255859,0.3371005058288574
1772594468702953000,9.495952880859376,0.547147274017334,-0.5169720649719238,0.2699711322784424
1772594468723217000,9.516216796875,0.4795708656311035,-0.38672494888305664,0.21956467628479004
1772594468743481000,9.536481201171876,0.37877464294433594,-0.27080488204956055,0.16492605209350586
1772594468763744000,9.556743896484376,0.25418567657470703,-0.1648387908935547,0.10372209548950195
1772594468784008000,9.577008056640626,0.10058212280273438,-0.060764312744140625,0.03762650489807129
1772594468804272000,9.597272216796876,-0.06464290618896484,0.03759622573852539,-0.022188901901245117
1772594468824535000,9.61753515625,-0.19678783416748047,0.1126399040222168,-0.06140589714050293
1772594468844799000,9.637799072265626,-0.3620467185974121,0.20961523056030273,-0.10241246223449707
1772594468865063000,9.65806298828125,-0.6785678863525391,0.3973369598388672,-0.17480218410491943
1772594468885326000,9.678326171875,-0.995084285736084,0.5905065536499023,-0.22997736930847168
1772594468905590000,9.698590087890626,-1.1669631004333496,0.6939053535461426,-0.30865347385406494
1772594468925854000,9.71885400390625,-1.274184226989746,0.7200689315795898,-0.39055824279785156
1772594468946117000,9.7391171875,-1.291490077972412,0.6786708831787109,-0.44444751739501953
1772594468966381000,9.759381103515626,-1.2185182571411133,0.5841081142425537,-0.47174763679504395
1772594468986645000,9.77964501953125,-1.1691207885742188,0.49568939208984375,-0.49247026443481445
1772594469006908000,9.799907958984376,-1.1272683143615723,0.4164457321166992,-0.49859070777893066
1772594469027172000,9.820172119140626,-1.0555005073547363,0.33293747901916504,-0.488666296005249
1772594469047436000,9.84043603515625,-0.9092273712158203,0.2291858196258545,-0.4355204105377197
1772594469067699000,9.860698974609376,-0.646275520324707,0.13058555126190186,-0.31665611267089844
1772594469087963000,9.880962890625,-0.3571634292602539,0.055454373359680176,-0.17840290069580078
1772594469108227000,9.90122705078125,-0.2737150192260742,0.028580069541931152,-0.1283860206604004
1772594469128490000,9.921489990234376,-0.31078147888183594,0.022337734699249268,-0.1360306739807129
1772594469148754000,9.94175390625,-0.34658145904541016,0.010463893413543701,-0.14130115509033203
1772594469169018000,9.96201806640625,-0.3644866943359375,-0.003835149109363556,-0.1383202075958252
1772594469189281000,9.982281005859376,-0.32223987579345703,-0.013762414455413818,-0.11855196952819824
1772594469209545000,10.002544921875,-0.23740196228027344,-0.01952075958251953,-0.08706378936767578
1772594469229809000,10.022808837890626,-0.1477527618408203,-0.01788187026977539,-0.05402827262878418
1772594469250072000,10.043072021484376,-0.12777996063232422,-0.019581317901611328,-0.04697537422180176
1772594469270336000,10.0633359375,-0.1034078598022461,-0.019168972969055176,-0.03813743591308594
1772594469290600000,10.083599853515626,-0.07579326629638672,-0.016463041305541992,-0.028030872344970703
1772594469310863000,10.103863037109376,-0.05472850799560547,-0.013176918029785156,-0.020258426666259766
1772594469331127000,10.124126953125,-0.009648323059082031,-0.0026502609252929688,-0.003571033477783203
1772594469351391000,10.144390869140626,0.019107818603515625,0.005713224411010742,0.0070688724517822266
1772594469371654000,10.16465380859375,0.050792694091796875,0.016422033309936523,0.01875448226928711
1772594469391918000,10.18491796875,0.08746147155761719,0.030379056930541992,0.03218674659729004
1772594469412182000,10.20518212890625,0.1093912124633789,0.03971529006958008,0.04009842872619629
1772594469432445000,10.22544482421875,0.13403797149658203,0.05069375038146973,0.048934221267700195
1772594469452709000,10.245709228515626,0.16224002838134766,0.06374621391296387,0.059003591537475586
1772594469472973000,10.26597314453125,0.18634033203125,0.07602453231811523,0.0676262378692627
1772594469493236000,10.286236083984376,0.20586299896240234,0.08721160888671875,0.07465624809265137
1772594469513500000,10.3065,0.2222118377685547,0.09756159782409668,0.08063411712646484
1772594469533764000,10.32676416015625,0.21296119689941406,0.09447026252746582,0.07732009887695312
1772594469554027000,10.347027099609376,0.21109676361083984,0.09455728530883789,0.0766143798828125
1772594469574291000,10.367291015625,0.21407032012939453,0.09673357009887695,0.07766556739807129
1772594469594555000,10.387554931640626,0.21689891815185547,0.09873080253601074,0.07868266105651855
1772594469614819000,10.407819091796876,0.21738147735595703,0.09960126876831055,0.07881808280944824
1772594469635082000,10.42808203125,0.2148265838623047,0.09902215003967285,0.07775235176086426
1772594469655346000,10.448345947265626,0.21164703369140625,0.0980844497680664,0.07629132270812988
1772594469675610000,10.468610107421876,0.1872425079345703,0.08719587326049805,0.06506609916687012
1772594469695873000,10.488873046875,0.16772937774658203,0.07851266860961914,0.05599474906921387
1772594469716137000,10.509136962890626,0.1749286651611328,0.08361148834228516,0.05593252182006836
1772594469736401000,10.52940087890625,0.18200016021728516,0.08862590789794922,0.05556225776672363
1772594469756664000,10.5496640625,0.18832111358642578,0.09317255020141602,0.054746150970458984
