time,seconds_elapsed,z,y,x
1772594459442556000,0.235555908203125,0.0023945067077875137,0.004123872611671686,0
1772594459462698000,0.255697998046875,-0.0023945067077875137,0.004123872611671686,0.0013302814913913608
1772594459482992000,0.2759921875,0.0018623941577970982,0.0023945067077875137,0.002128450432792306
1772594459503256000,0.296256103515625,0.0039908443577587605,-0.0019954221788793802,0.0013302814913913608
1772594459523519000,0.31651904296875,0.0013302814913913608,-0.0022614786867052317,-0.0013302814913913608
1772594459543783000,0.336782958984375,0.0017293660202994943,0.0029266192577779293,-0.003059647511690855
1772594459564047000,0.357047119140625,-0.004655985161662102,-0.0013302814913913608,-0.0038578163366764784
1772594459584310000,0.37731005859375,0.0037247883155941963,-0.0019954221788793802,-0.004389929119497538
1772594459604574000,0.397573974609375,-0.003325703786686063,-0.0019954221788793802,-0.0031926757656037807
1772594459624838000,0.417837890625,-0.0013302814913913608,0.003059647511690855,-0.0022614786867052317
1772594459645101000,0.43810107421875,-0.00013302815204951912,0.0035917600616812706,0.0038578163366764784
1772594459665365000,0.458364990234375,0.0006651407456956804,0.0014633096288889647,0.004655985161662102
1772594459685629000,0.47862890625,0.0034587320405989885,-0.0014633096288889647,0.0017293660202994943
1772594459705892000,0.49889208984375,0.0038578163366764784,0,-0.0009311970788985491
1772594459726156000,0.519156005859375,0.3321712911128998,0.19781285524368286,1.4635757207870483
1772594459746420000,0.539419921875,0.6836316585540771,0.022348729893565178,1.370988130569458
1772594459766683000,0.559682861328125,0.7387053370475769,-0.4819609820842743,0.737774133682251
1772594459786947000,0.579947021484375,0.8613572716712952,-1.582236886024475,-1.7094117403030396
1772594459807211000,0.6002109375,1.3248273134231567,-1.41608464717865,-6.067546844482422
1772594459827474000,0.620473876953125,2.4698007106781006,-2.7492928504943848,-7.392640590667725
1772594459847738000,0.640738037109375,2.4273645877838135,-2.0212297439575195,-5.6515679359436035
1772594459868002000,0.661001953125,1.268689513206482,-1.834990382194519,-3.505025863647461
1772594459888265000,0.681264892578125,0.2163037806749344,-1.5707963705062866,-1.7843066453933716
1772594459908529000,0.70152880859375,-0.5776082277297974,-1.1049318313598633,-0.7555999159812927
1772594459928793000,0.72179296875,-1.0708765983581543,-0.6043468713760376,-0.333634614944458
1772594459949056000,0.742055908203125,-0.7260676622390747,-0.21217989921569824,-0.15165209770202637
1772594459969320000,0.76231982421875,-0.40972670912742615,0.01662851870059967,-0.13209696114063263
1772594459989584000,0.782583984375,-0.10642252117395401,0.004256900865584612,-0.03432126343250275
1772594460009847000,0.802846923828125,-0.12345012277364731,-0.03365612402558327,-0.05201400816440582
1772594460030111000,0.823111083984375,-0.0730324536561966,0.09578026831150055,0.00611929502338171
1772594460050375000,0.843375,-0.04044055938720703,0.3452080488204956,0.042835064232349396
1772594460070638000,0.86363818359375,0.2661893367767334,0.5903789401054382,0.004922041669487953
1772594460090902000,0.883902099609375,0.34161630272865295,0.6470489501953125,-0.005853238515555859
1772594460111166000,0.904166015625,0.2717765271663666,0.5027133822441101,0.0482892207801342
1772594460131429000,0.92442919921875,0.1515190601348877,0.28361600637435913,0.06757830083370209
1772594460151693000,0.944693115234375,-0.2837490439414978,0.12850520014762878,0.16987694799900055
1772594460171957000,0.96495703125,-0.5897138118743896,0.022747814655303955,0.16389068961143494
1772594460192220000,0.985219970703125,-0.5455484390258789,-0.023412954062223434,0.16282646358013153
1772594460212484000,1.005484130859375,-0.38990551233291626,-0.17706046998500824,0.1998082846403122
1772594460232748000,1.025748046875,-0.24051490426063538,-0.2437075674533844,0.2129780650138855
1772594460253011000,1.046010986328125,-0.11733082681894302,-0.2375882863998413,0.20659272372722626
1772594460273275000,1.06627490234375,-0.02447718009352684,-0.1827806830406189,0.15324842929840088
1772594460293539000,1.0865390625,0.06691315770149231,-0.19608350098133087,0.17027603089809418
1772594460313802000,1.106802001953125,0.5463466048240662,-0.030064363032579422,0.16229434311389923
1772594460334066000,1.12706591796875,0.7738247513771057,-0.04709196463227272,0.16162919998168945
1772594460354330000,1.147330078125,0.7138290405273438,-0.19102843105793,0.19182659685611725
1772594460374593000,1.167593017578125,0.45482325553894043,-0.14553280174732208,0.13595476746559143
1772594460394857000,1.18785693359375,0.41411665081977844,-0.08447287976741791,0.1223858967423439
1772594460415121000,1.208120849609375,0.30875834822654724,-0.0029266192577779293,0.10003717243671417
1772594460435384000,1.228384033203125,0.24743236601352692,-0.08686738461256027,0.1388813853263855
1772594460455648000,1.24864794921875,0.14952364563941956,-0.0663810446858406,0.09351879358291626
1772594460475912000,1.268911865234375,0.23958370089530945,-0.16708335280418396,0.2031339854001999
1772594460496175000,1.289175048828125,0.15404659509658813,-0.06119294837117195,0.10575737804174423
1772594460516439000,1.30943896484375,0.0867343544960022,-0.024876264855265617,0.05440851300954819
1772594460536703000,1.329702880859375,0.18863391876220703,-0.1646888554096222,0.06997280567884445
1772594460556966000,1.3499658203125,0.16774849593639374,-0.14806033670902252,0.022348729893565178
1772594460577230000,1.37022998046875,0.12531252205371857,-0.028068939223885536,-0.04616076871752739
1772594460597494000,1.390493896484375,0.09857386350631714,0.08141323179006577,-0.11520238220691681
1772594460617758000,1.410758056640625,0.05454154312610626,0.12145470082759857,-0.13755111396312714
1772594460638021000,1.431021240234375,0.07037189602851868,0.08447287976741791,-0.1740008294582367
1772594460658285000,1.45128515625,0.09564723819494247,0.08966097235679626,-0.24277637898921967
1772594460678549000,1.471549072265625,0.05866541340947151,0.08114717155694962,-0.16828061640262604
1772594460698812000,1.49181201171875,0.08700041472911835,0.04083964228630066,-0.18065223097801208
1772594460719076000,1.512076171875,0.10030322521924973,-0.03525245934724808,-0.162959486246109
1772594460739340000,1.532340087890625,0.10070230811834335,-0.05148189514875412,-0.16003286838531494
1772594460759603000,1.55260302734375,0.16322554647922516,-0.19634954631328583,-0.18291370570659637
1772594460779867000,1.572866943359375,0.1696108877658844,-0.24118003249168396,-0.13648688793182373
1772594460800131000,1.593131103515625,0.16149617731571198,-0.1306336522102356,-0.12970244884490967
1772594460820394000,1.61339404296875,0.20832209289073944,-0.06651407480239868,-0.1843770146369934
1772594460840658000,1.633657958984375,0.20286792516708374,-0.019023025408387184,-0.18477609753608704
1772594460860922000,1.653922119140625,0.3836531937122345,0.04456442967057228,-0.20007434487342834
1772594460881185000,1.67418505859375,0.7682375907897949,0.04749105125665665,-0.20433124899864197
1772594460901449000,1.694448974609375,0.7960404753684998,-0.011972533538937569,-0.20512941479682922
1772594460921713000,1.714712890625,0.6151221990585327,-0.03112858720123768,-0.21497349441051483
1772594460941976000,1.73497607421875,0.42675432562828064,0.029665278270840645,-0.2343956083059311
1772594460962240000,1.755239990234375,0.28521236777305603,0.011706477031111717,-0.23479469120502472
1772594460982504000,1.77550390625,0.15763835608959198,-0.04110569879412651,-0.16588610410690308
1772594461002767000,1.79576708984375,0.12251892685890198,-0.044697459787130356,-0.19275778532028198
1772594461023031000,1.816031005859375,0.07223428785800934,-0.003325703786686063,-0.18717060983181
1772594461043295000,1.836294921875,0.044697459787130356,-0.05121583864092827,-0.16641822457313538
1772594461063558000,1.856557861328125,0.011174364946782589,-0.04083964228630066,-0.17586322128772736
1772594461083822000,1.876822021484375,-0.017027603462338448,0.008779858238995075,-0.1987440586090088
1772594461104086000,1.8970859375,-0.025009293109178543,0.03525245934724808,-0.19994130730628967
1772594461124349000,1.917348876953125,-0.005188097711652517,0.017958801239728928,-0.1680145561695099
1772594461144613000,1.937613037109375,0.02727077156305313,-0.032192811369895935,-0.14513371884822845
1772594461164877000,1.957876953125,0.046293795108795166,-0.12305103987455368,-0.15457871556282043
1772594461185140000,1.978139892578125,0.03352309390902519,-0.1366199105978012,-0.14859244227409363
1772594461205404000,1.99840380859375,0.0023945067077875137,-0.08992703258991241,-0.16162919998168945
1772594461225668000,2.018668212890625,-0.029133165255188942,-0.09391787648200989,-0.17759257555007935
1772594461245931000,2.038930908203125,-0.06385350972414017,-0.09684449434280396,-0.19794589281082153
1772594461266195000,2.05919482421875,-0.3118179738521576,-0.06731224805116653,-0.2519553303718567
1772594461286459000,2.079458984375,-0.7364438772201538,-0.06066083908081055,-0.2572764456272125
1772594461306722000,2.09972216796875,-0.7877927422523499,-0.10695463418960571,-0.2540837824344635
1772594461326986000,2.119986083984375,-0.6455855965614319,-0.0614590048789978,-0.2486296147108078
1772594461347250000,2.14025,-0.4863509237766266,-0.03618365898728371,-0.22801025211811066
1772594461367513000,2.16051318359375,-0.2828178405761719,-0.018091829493641853,-0.15737231075763702
1772594461387777000,2.180777099609375,-0.2272120863199234,0.04642682522535324,-0.17054209113121033
1772594461408041000,2.201041015625,-0.05893146991729736,0.011972533538937569,-0.04429837316274643
1772594461428304000,2.221303955078125,-0.015298237092792988,0.003059647511690855,-0.01144042145460844
1772594461448568000,2.241568115234375,-0.011307393200695515,0.1388813853263855,-0.05028464272618294
1772594461468832000,2.26183203125,0.05733513459563255,0.1580374389886856,-0.025541406124830246
1772594461489095000,2.282094970703125,0.12917032837867737,0.07742238789796829,0.014234011992812157
1772594461509359000,2.302359130859375,0.16495491564273834,0.02633957378566265,0.023412954062223434
1772594461529623000,2.322623046875,0.16894575953483582,0.017692744731903076,0.021151475608348846
1772594461549886000,2.342885986328125,0.1492575854063034,0.07555998861789703,0.004123872611671686
1772594461570150000,2.36314990234375,0.12650977075099945,0.11453723907470703,-0.011573448777198792
1772594461590414000,2.3834140625,0.11121153831481934,0.11959230899810791,-0.021151475608348846
1772594461610677000,2.403677001953125,0.09258759021759033,0.15457871556282043,-0.039376333355903625
1772594461630941000,2.42394091796875,0.043500207364559174,0.08793161064386368,-0.024078095331788063
1772594461651205000,2.444205078125,0.058532387018203735,0.08859674632549286,-0.08128020167350769
1772594461671468000,2.464468017578125,0.0260735172778368,-0.05188097804784775,-0.07250034064054489
1772594461691732000,2.48473193359375,0.012371618300676346,-0.051614921540021896,-0.045096542686223984
1772594461711996000,2.504995849609375,0.0031926757656037807,-0.013435843400657177,-0.011706477031111717
1772594461732259000,2.525259033203125,-0.034986402839422226,-0.05627090856432915,-0.08048202842473984
1772594461752523000,2.54552294921875,-0.009045914746820927,-0.014633096754550934,-0.020885419100522995
1772594461772787000,2.565786865234375,-0.0023945067077875137,-0.0038578163366764784,-0.005454154219478369
1772594461793050000,2.586050048828125,-0.018357884138822556,-0.07529393583536148,-0.005853238515555859
1772594461813314000,2.60631396484375,-0.013834928162395954,-0.05733513459563255,-0.0037247883155941963
1772594461833578000,2.626577880859375,0.04137175530195236,-0.12358315289020538,0.04177083820104599
1772594461853841000,2.6468408203125,0.03365612402558327,-0.08739949762821198,0.03259189799427986
1772594461874105000,2.66710498046875,0.008779858238995075,-0.022747814655303955,0.008513801731169224
1772594461894369000,2.687369140625,0.0022614786867052317,-0.005853238515555859,0.0022614786867052317
1772594461914633000,2.707633056640625,0.15870258212089539,-0.3687540292739868,0.1678815335035324
1772594461934896000,2.727896240234375,0.07263337075710297,-0.359575092792511,0.11759688705205917
1772594461955160000,2.74816015625,0.06491773575544357,-0.2798912227153778,0.08473893254995346
1772594461975424000,2.768424072265625,0.06066083908081055,0.0031926757656037807,0.006784435827285051
1772594461995687000,2.78868701171875,0.03804605081677437,0.0395093597471714,-0.005986266769468784
1772594462015951000,2.808951171875,0.08500499278306961,0.035917602479457855,-0.014500068500638008
1772594462036215000,2.829215087890625,0.06026175245642662,0.022348729893565178,-0.010376195423305035
1772594462056478000,2.84947802734375,0.12650977075099945,-0.027403799816966057,0.0038578163366764784
1772594462076742000,2.869741943359375,0.08926188945770264,-0.023945067077875137,0.004389929119497538
1772594462097006000,2.890006103515625,0.10589040815830231,0.02700471505522728,-0.0035917600616812706
1772594462117269000,2.91026904296875,0.06957372277975082,0.023945067077875137,-0.003325703786686063
1772594462137533000,2.930532958984375,0.018091829493641853,0.006252323277294636,-0.0007981689414009452
1772594462157797000,2.950797119140625,0.07289943099021912,0.08500499278306961,-0.01396795641630888
1772594462178060000,2.97106005859375,0.01888999715447426,0.022082673385739326,-0.0035917600616812706
1772594462198324000,2.991323974609375,-0.04230295121669769,0.15790441632270813,-0.09591329842805862
1772594462218588000,3.011587890625,-0.0482892207801342,0.14420251548290253,-0.09790872037410736
1772594462238851000,3.03185107421875,-0.031527671962976456,0.09006005525588989,-0.06265626102685928
1772594462259115000,3.052114990234375,-0.029000137001276016,0.03857816383242607,-0.10748674720525742
1772594462279379000,3.07237890625,-0.00971105508506298,0.09923899918794632,-0.15737231075763702
1772594462299642000,3.09264208984375,0.02327992580831051,0.11320696026086807,-0.1657530814409256
1772594462319906000,3.112906005859375,0.040307529270648956,-0.029266193509101868,-0.13635385036468506
1772594462340170000,3.133169921875,0.035917602479457855,-0.12398223578929901,-0.1004362553358078
1772594462360433000,3.153432861328125,0.016229433938860893,-0.07010583579540253,-0.04589471220970154
1772594462380697000,3.173697021484375,0.021417532116174698,0.00864682998508215,-0.11134456098079681
1772594462400961000,3.1939609375,0.0055871824733912945,0.0022614786867052317,-0.02886710874736309
1772594462421224000,3.214223876953125,0.027536828070878983,0.0063853515312075615,-0.10988125205039978
1772594462441488000,3.23448779296875,0.007183520123362541,0.0017293660202994943,-0.028468023985624313
1772594462461752000,3.254751953125,0.02075239084661007,0.10495921224355698,-0.10083533823490143
1772594462482015000,3.275014892578125,0.005454154219478369,0.02727077156305313,-0.026206545531749725
1772594462502279000,3.29527880859375,0.0014633096288889647,0.0070504918694496155,-0.006784435827285051
1772594462522543000,3.315543212890625,0.0003990844707004726,0.0018623941577970982,-0.0017293660202994943
1772594462542806000,3.335805908203125,0.08580315858125687,0.02979830652475357,-0.007582604885101318
1772594462563070000,3.356070068359375,0.06598196178674698,0.022747814655303955,-0.0055871824733912945
1772594462583334000,3.376333984375,0.11134456098079681,-0.16668426990509033,0.09564723819494247
1772594462603597000,3.39659716796875,0.09578026831150055,-0.14646399021148682,0.11932624876499176
1772594462623861000,3.416861083984375,0.05893146991729736,-0.0905921682715416,0.07915174961090088
1772594462644125000,3.437125,0.10801886022090912,-0.048821330070495605,0.1301015317440033
1772594462664388000,3.45738818359375,0.028068939223885536,-0.012637674808502197,0.033789150416851044
1772594462684652000,3.477652099609375,0.11666569113731384,-0.04522957280278206,0.09857386350631714
1772594462704916000,3.497916015625,0.12664279341697693,0.032192811369895935,0.08606921136379242
1772594462725179000,3.518178955078125,0.08447287976741791,0.12823913991451263,0.04243598133325577
1772594462745443000,3.538443115234375,0.04842224717140198,0.1926247626543045,0.02261478640139103
1772594462765707000,3.55870703125,0.01050922367721796,0.28029030561447144,0.004922041669487953
1772594462785970000,3.578969970703125,-0.012903730385005474,0.2590058147907257,0.011839505285024643
1772594462806234000,3.599234130859375,-0.016894575208425522,0.04403231665492058,0.05560576915740967
1772594462826498000,3.619498046875,-0.016894575208425522,-0.12770701944828033,0.08527104556560516
1772594462846761000,3.639760986328125,-0.008912886492908001,-0.08487196266651154,0.04616076871752739
1772594462867025000,3.66002490234375,-0.02381203882396221,-0.10362893342971802,0.06225717440247536
1772594462887289000,3.6802890625,-0.04682590812444687,-0.14340434968471527,0.051348865032196045
1772594462907552000,3.700552001953125,-0.06877555698156357,-0.22056066989898682,0.05959661304950714
1772594462927816000,3.72081591796875,-0.03618365898728371,-0.12039047479629517,0.029931334778666496
1772594462948080000,3.741080078125,-0.00944499857723713,-0.031261615455150604,0.007715632673352957
1772594462968343000,3.761343017578125,-0.07329851388931274,0.11147759109735489,0.02540837787091732
1772594462988607000,3.78160693359375,-0.009844083338975906,0.1344914585351944,0.04177083820104599
1772594463008871000,3.801870849609375,0.02381203882396221,0.10309682041406631,0.06797738373279572
1772594463029134000,3.822134033203125,0.04576168581843376,0.0921885073184967,0.08314259350299835
1772594463049398000,3.84239794921875,0.05986266955733299,0.11094547808170319,0.07994992285966873
1772594463069662000,3.862661865234375,0.06451865285634995,0.1597668081521988,0.06505076587200165
1772594463089925000,3.882925048828125,0.06491773575544357,0.16096405684947968,0.05999569594860077
1772594463110189000,3.90318896484375,0.0686425268650055,0.10801886022090912,0.07170217484235764
1772594463130453000,3.923452880859375,0.0702388659119606,0.09045914560556412,0.06930766999721527
1772594463150716000,3.9437158203125,0.07183520495891571,0.25434982776641846,0.04908738657832146
1772594463170980000,3.96397998046875,0.04922041669487953,0.2981160879135132,0.027536828070878983
1772594463191244000,3.984244140625,0.03817908093333244,0.21045053005218506,0.020619364455342293
1772594463211508000,4.004508056640625,0.07755541056394577,0.18517518043518066,0.03046344593167305
1772594463231771000,4.02477099609375,0.11054639518260956,0.08540407568216324,0.045096542686223984
1772594463252035000,4.04503515625,0.12198681384325027,0.11546843498945236,0.030596474185585976
1772594463272299000,4.065299072265625,0.14806033670902252,0.25155624747276306,0.005188097711652517
1772594463292562000,4.08556201171875,0.10003717243671417,0.3265841007232666,-0.026871686801314354
1772594463312826000,4.105826171875,0.06345442682504654,0.3610384166240692,-0.0438992902636528
1772594463333090000,4.126090087890625,0.04150478169322014,0.2047303318977356,-0.022215701639652252
1772594463353344000,4.146343994140625,0.020885419100522995,0.08979400247335434,-0.008779858238995075
1772594463373608000,4.16660791015625,0.0035917600616812706,-0.07742238789796829,0.0345873199403286
1772594463393871000,4.18687109375,0,-0.07143611460924149,0.027802884578704834
1772594463414135000,4.207135009765625,-0.08141323179006577,0.07090400159358978,0.015165209770202637
1772594463434399000,4.22739892578125,-0.09085822850465775,0.16109709441661835,-0.008380773477256298
1772594463454662000,4.247661865234375,-0.09152337163686752,0.2712444067001343,-0.031261615455150604
1772594463474926000,4.267926025390625,-0.06744527071714401,0.24995990097522736,-0.026206545531749725
1772594463495190000,4.28818994140625,-0.01755971647799015,0.06491773575544357,-0.006784435827285051
1772594463515453000,4.308452880859375,-0.004522957373410463,0.016894575208425522,-0.0017293660202994943
1772594463535717000,4.328717041015625,-0.0011972533538937569,0.004389929119497538,-0.0003990844707004726
1772594463555981000,4.34898095703125,0.026472602039575577,0.09205548465251923,-0.0034587320405989885
1772594463576244000,4.369243896484375,0.025009293109178543,0.2266799658536911,-0.027536828070878983
1772594463596508000,4.3895078125,0.017027603462338448,0.23253321647644043,-0.0351194329559803
1772594463626903000,4.419903076171875,0.011041336692869663,0.15178512036800385,-0.03738091140985489
1772594463647167000,4.4401669921875,0.006252323277294636,0.08859674632549286,-0.024344151839613914
1772594463667431000,4.460430908203125,0.0015963378828018904,0.023013871163129807,-0.0063853515312075615
1772594463687694000,4.480694091796875,0.024876264855265617,-0.05893146991729736,-0.050018586218357086
1772594463707958000,4.5009580078125,0.03485337644815445,-0.19328990578651428,-0.010243168100714684
1772594463728222000,4.521221923828125,0.017160631716251373,-0.12398223578929901,0.011174364946782589
1772594463748485000,4.541485107421875,0.004389929119497538,-0.032192811369895935,0.0029266192577779293
1772594463768749000,4.5617490234375,0.0011972533538937569,-0.008380773477256298,0.0007981689414009452
1772594463789013000,4.582012939453125,0.00026605630409903824,-0.002128450432792306,0.00013302815204951912
1772594463809277000,4.60227685546875,0.12611068785190582,-0.012105561792850494,0.042169924825429916
1772594463829540000,4.6225400390625,0.03272492438554764,-0.0031926757656037807,0.010908308438956738
1772594463849804000,4.642803955078125,0.06544984877109528,-0.06345442682504654,0.005188097711652517
1772594463870068000,4.66306787109375,0.07090400159358978,-0.22614786028862,0.014234011992812157
1772594463890331000,4.683330810546875,0.05879844352602959,-0.4143826961517334,0.02421112358570099
1772594463910595000,4.703594970703125,0.03857816383242607,-0.31540974974632263,0.016761546954512596
1772594463930859000,4.72385888671875,0.04802316427230835,-0.32033178210258484,0.01755971647799015
1772594463951122000,4.744121826171875,0.042569007724523544,-0.2612673044204712,0.027669856324791908
1772594463971386000,4.76438623046875,0.03618365898728371,-0.2403818666934967,0.0433671772480011
1772594463991650000,4.784650146484375,0.030995558947324753,-0.1827806830406189,0.02886710874736309
1772594464011913000,4.804912841796875,0.019023025408387184,-0.1086840033531189,0.016495490446686745
1772594464032177000,4.825177001953125,0.026738658547401428,-0.010642251931130886,-0.05361034348607063
1772594464052441000,4.845441162109375,0.017958801239728928,0.006252323277294636,-0.0433671772480011
1772594464072704000,4.8657041015625,0.026871686801314354,0.05094978213310242,-0.10416104644536972
1772594464092968000,4.885968017578125,0.023945067077875137,-0.03525245934724808,-0.07343153655529022
1772594464113232000,4.90623193359375,0.03538548946380615,-0.3583778440952301,-0.027802884578704834
1772594464133495000,4.9264951171875,0.030995558947324753,-0.4628049433231354,0.00572021072730422
1772594464153759000,4.946759033203125,0.010376195423305035,-0.1618952602148056,-0.00026605630409903824
1772594464174023000,4.96702294921875,0.01223859004676342,-0.016894575208425522,-0.08088111877441406
1772594464194286000,4.9872861328125,0.008114716969430447,0.008380773477256298,-0.06212414801120758
1772594464214550000,5.007550048828125,0.011839505285024643,0.07941780984401703,-0.10456012934446335
1772594464234814000,5.02781396484375,0.003059647511690855,0.020619364455342293,-0.027137743309140205
1772594464255077000,5.0480771484375,0.019954223185777664,0.014500068500638008,-0.06944069266319275
1772594464275341000,5.068341064453125,0.014899153262376785,0.008380773477256298,-0.04988555610179901
1772594464295605000,5.08860498046875,0.012504646554589272,0.12345012277364731,-0.0823444277048111
1772594464315868000,5.108867919921875,0.0031926757656037807,0.1712072342634201,-0.07782147079706192
1772594464336132000,5.129132080078125,-0.007183520123362541,0.3084922730922699,-0.09897294640541077
1772594464356396000,5.14939599609375,-0.00864682998508215,0.32179510593414307,-0.09272062033414841
1772594464376659000,5.169658935546875,-0.0022614786867052317,0.08354167640209198,-0.024078095331788063
1772594464396923000,5.1899228515625,0.012637674808502197,0.08261048048734665,-0.04868830367922783
1772594464417187000,5.21018701171875,0.009977111592888832,0.052546121180057526,-0.03432126343250275
1772594464437450000,5.230449951171875,0.02979830652475357,-0.06624802201986313,-0.02261478640139103
1772594464457714000,5.2507138671875,0.0433671772480011,-0.17546413838863373,-0.0015963378828018904
1772594464477978000,5.27097802734375,0.022348729893565178,-0.10549132525920868,0.005321125965565443
1772594464498241000,5.291240966796875,0.03525245934724808,-0.09977111220359802,-0.0029266192577779293
1772594464518505000,5.3115048828125,0.024078095331788063,-0.06278929114341736,-0.0029266192577779293
1772594464538769000,5.331768798828125,0.04682590812444687,-0.22920750081539154,0.042569007724523544
1772594464559032000,5.352031982421875,0.030995558947324753,-0.006252323277294636,0.042835064232349396
1772594464579296000,5.3722958984375,0.017027603462338448,0.1432713270187378,0.034055206924676895
1772594464599560000,5.392559814453125,0.00784866139292717,0.21869827806949615,0.03964238986372948
1772594464619823000,5.412822998046875,0.005321125965565443,0.15191814303398132,0.04922041669487953
1772594464640087000,5.433087158203125,0.0013302814913913608,0.0395093597471714,0.012770703062415123
1772594464660351000,5.45335107421875,0.023412954062223434,-0.10655555129051208,0.08167928457260132
1772594464680614000,5.47361376953125,0.00611929502338171,-0.027669856324791908,0.021151475608348846
1772594464700878000,5.493878173828125,0.018623940646648407,0.07090400159358978,0.06332139670848846
1772594464721142000,5.51414208984375,0.008779858238995075,0.205794557929039,0.04802316427230835
1772594464741405000,5.534405029296875,-0.019688166677951813,0.42675432562828064,0.0015963378828018904
1772594464761669000,5.554669189453125,-0.019555138424038887,0.31966665387153625,-0.0011972533538937569
1772594464781933000,5.57493310546875,-0.01396795641630888,0.2723086178302765,0.010775280185043812
1772594464802196000,5.595196044921875,-0.0035917600616812706,0.07063794881105423,0.0027935912366956472
1772594464822460000,5.6154599609375,-0.0009311970788985491,0.018357884138822556,0.0006651407456956804
1772594464842724000,5.63572412109375,-0.00026605630409903824,0.0047890134155750275,0.00013302815204951912
1772594464862987000,5.655987060546875,0,0.0011972533538937569,0
1772594464883251000,5.6762509765625,0,0.00026605630409903824,0
1772594464903515000,5.696514892578125,0.054142456501722336,-0.17958800494670868,0.07875266671180725
1772594464923778000,5.716778076171875,0.023945067077875137,-0.15391357243061066,0.06066083908081055
1772594464944042000,5.7370419921875,0.014367040246725082,-0.1959504634141922,0.05055069923400879
1772594464964306000,5.757305908203125,0.005321125965565443,-0.10256470739841461,0.02035330794751644
1772594464984569000,5.777569091796875,0.005454154219478369,-0.1509869545698166,-0.023013871163129807
1772594465004833000,5.7978330078125,0.016096405684947968,-0.18650546669960022,-0.026738658547401428
1772594465025097000,5.818096923828125,0.024344151839613914,-0.3441438376903534,-0.016761546954512596
1772594465045360000,5.838360107421875,0.017160631716251373,-0.2617993950843811,-0.0023945067077875137
1772594465065624000,5.8586240234375,0.0260735172778368,-0.25607919692993164,-0.0031926757656037807
1772594465085888000,5.878887939453125,0.02633957378566265,-0.1531154066324234,-0.017958801239728928
1772594465106152000,5.89915185546875,0.016894575208425522,-0.0839407667517662,-0.013302815146744251
1772594465126415000,5.9194150390625,0.015963377431035042,-0.09844083338975906,-0.040972672402858734
1772594465146679000,5.939678955078125,0.010110139846801758,-0.06465168297290802,-0.02979830652475357
1772594465166943000,5.95994287109375,0.0026605629827827215,-0.016761546954512596,-0.007715632673352957
1772594465187206000,5.980205810546875,0.0006651407456956804,-0.004389929119497538,-0.0019954221788793802
1772594465207470000,6.000469970703125,0.03046344593167305,-0.11812900006771088,0.03272492438554764
1772594465227734000,6.020734130859375,0.023412954062223434,-0.09032611548900604,0.02540837787091732
1772594465247997000,6.040996826171875,0.00611929502338171,-0.023412954062223434,0.006651407573372126
1772594465268261000,6.06126123046875,0.09444998949766159,-0.1459318846464157,0.11400512605905533
1772594465288525000,6.081525146484375,0.08407378941774368,-0.025275349617004395,0.06997280567884445
1772594465308788000,6.1017880859375,0.0521470345556736,-0.00013302815204951912,0.038711193948984146
1772594465329052000,6.122052001953125,0.0905921682715416,0.03551851585507393,0.05374337360262871
1772594465349316000,6.142316162109375,0.02354598231613636,0.009178942069411278,0.01396795641630888
1772594465369579000,6.1625791015625,0.07236731797456741,0.047890134155750275,0.035917602479457855
1772594465389843000,6.182843017578125,0.018756968900561333,0.012504646554589272,0.009311970323324203
1772594465410107000,6.20310693359375,0.05055069923400879,-0.12611068785190582,0.08567012846469879
1772594465430370000,6.2233701171875,0.030862530693411827,-0.10322984308004379,0.06930766999721527
1772594465450634000,6.243634033203125,0.017027603462338448,-0.06265626102685928,0.041903868317604065
1772594465470898000,6.26389794921875,0.004389929119497538,-0.016229433938860893,0.010908308438956738
1772594465491161000,6.2841611328125,0.01476612500846386,0.03884422034025192,0.048156190663576126
1772594465511425000,6.304425048828125,0.010775280185043812,0.03205978497862816,0.03551851585507393
1772594465531689000,6.32468896484375,0.0027935912366956472,0.008380773477256298,0.009178942069411278
1772594465551952000,6.344951904296875,0.0006651407456956804,0.002128450432792306,0.0023945067077875137
1772594465572216000,6.365216064453125,0.029665278270840645,-0.08500499278306961,0.08580315858125687
1772594465592480000,6.38547998046875,0.007715632673352957,-0.022082673385739326,0.022348729893565178
1772594465612743000,6.405742919921875,-0.024610208347439766,0.13861533999443054,-0.0872664675116539
1772594465633007000,6.426007080078125,-0.028068939223885536,0.19076237082481384,-0.10708766430616379
1772594465653271000,6.44627099609375,-0.023013871163129807,0.19555138051509857,-0.11906019598245621
1772594465673534000,6.466533935546875,-0.012105561792850494,0.14473463594913483,-0.11839505285024643
1772594465693798000,6.4867978515625,-0.012770703062415123,0.15763835608959198,-0.10642252117395401
1772594465714062000,6.50706201171875,-0.003325703786686063,0.040972672402858734,-0.027669856324791908
1772594465734325000,6.527324951171875,-0.0007981689414009452,0.010642251931130886,-0.007183520123362541
1772594465754589000,6.5475888671875,-0.00026605630409903824,0.0027935912366956472,-0.0018623941577970982
1772594465774853000,6.56785302734375,0,0.0006651407456956804,-0.0005321126081980765
1772594465795116000,6.588115966796875,0,0.00013302815204951912,-0.00013302815204951912
1772594465815380000,6.6083798828125,-0.0014633096288889647,-0.07263337075710297,-0.04243598133325577
1772594465835644000,6.628643798828125,0.009844083338975906,-0.15338145196437836,-0.04203689470887184
1772594465855907000,6.648906982421875,0.008114716969430447,-0.08952794969081879,-0.01569732278585434
1772594465876171000,6.6691708984375,0.002128450432792306,-0.02327992580831051,-0.004123872611671686
1772594465896435000,6.68943505859375,0.034720346331596375,-0.0883306935429573,-0.009178942069411278
1772594465916698000,6.709697998046875,0.026472602039575577,-0.06491773575544357,-0.0065183793194592
1772594465936962000,6.729962158203125,0.006917464081197977,-0.016894575208425522,-0.0017293660202994943
1772594465957226000,6.75022607421875,0.0017293660202994943,-0.004389929119497538,-0.0003990844707004726
1772594465977489000,6.770489013671875,0.047890134155750275,0.09391787648200989,0.0022614786867052317
1772594465997753000,6.790753173828125,0.012371618300676346,0.024344151839613914,0.0005321126081980765
1772594466018017000,6.81101708984375,0.021816616877913475,0.04616076871752739,-0.0697067528963089
1772594466038280000,6.831280029296875,0.015165209770202637,0.032192811369895935,-0.05361034348607063
1772594466058544000,6.851544189453125,0.0039908443577587605,0.008380773477256298,-0.01396795641630888
1772594466078808000,6.87180810546875,0.018623940646648407,-0.034986402839422226,-0.06624802201986313
1772594466099071000,6.892071044921875,0.013834928162395954,-0.02793591283261776,-0.04908738657832146
1772594466119335000,6.9123349609375,0.0035917600616812706,-0.007316548377275467,-0.012770703062415123
1772594466139599000,6.93259912109375,0.030596474185585976,0.07436273992061615,-0.007582604885101318
1772594466159862000,6.952862060546875,0.023013871163129807,0.05813330411911011,-0.004123872611671686
1772594466180126000,6.9731259765625,0.01662851870059967,0.15511082112789154,0.0065183793194592
1772594466200390000,6.993389892578125,0.004389929119497538,0.040307529270648956,0.0017293660202994943
1772594466220653000,7.013653076171875,0.001064225216396153,0.01050922367721796,0.0003990844707004726
1772594466240917000,7.0339169921875,0.021284503862261772,-0.06425260007381439,-0.02327992580831051
1772594466261181000,7.054180908203125,0.016229433938860893,-0.05081675574183464,-0.017958801239728928
1772594466281444000,7.074444091796875,0.008912886492908001,-0.0653168261051178,-0.05933055654168129
1772594466301708000,7.0947080078125,0.004655985161662102,-0.043500207364559174,-0.04323415085673332
1772594466321972000,7.114971923828125,0.0011972533538937569,-0.011307393200695515,-0.011174364946782589
1772594466342235000,7.13523486328125,0.01050922367721796,0.07595907151699066,-0.04655985161662102
1772594466362499000,7.1554990234375,0.007981688715517521,0.05986266955733299,-0.03432126343250275
1772594466382763000,7.175762939453125,0.0019954221788793802,0.01556429360061884,-0.008912886492908001
1772594466403027000,7.19602685546875,0.0005321126081980765,0.0039908443577587605,-0.0022614786867052317
1772594466423290000,7.2162900390625,0.04948647320270538,-0.0779544934630394,0.137285053730011
1772594466443554000,7.236553955078125,0.012770703062415123,-0.020220279693603516,0.035651545971632004
1772594466463818000,7.25681787109375,0.003325703786686063,-0.005321125965565443,0.009311970323324203
1772594466484081000,7.277080810546875,0.05613787844777107,-0.15817047655582428,0.04070661589503288
1772594466504345000,7.297344970703125,0.014500068500638008,-0.04110569879412651,0.01050922367721796
1772594466524609000,7.317609130859375,0.022481758147478104,-0.1015004813671112,0.007316548377275467
1772594466544872000,7.337871826171875,0.015431265346705914,-0.07263337075710297,0.004256900865584612
1772594466565136000,7.358135986328125,0.0039908443577587605,-0.01888999715447426,0.001064225216396153
1772594466585400000,7.378400146484375,-0.010775280185043812,0.13262906670570374,0.031527671962976456
1772594466605663000,7.3986630859375,-0.0027935912366956472,0.03445428982377052,0.008114716969430447
1772594466625927000,7.418927001953125,-0.0006651407456956804,0.008912886492908001,0.002128450432792306
1772594466646191000,7.439191162109375,-0.00013302815204951912,0.0022614786867052317,0.0005321126081980765
1772594466666454000,7.4594541015625,0.02101844735443592,0.14673005044460297,0.004655985161662102
1772594466686718000,7.479718017578125,0.00013302815204951912,0.20446427166461945,-0.00864682998508215
1772594466706982000,7.49998193359375,0,0.05307823419570923,-0.0022614786867052317
1772594466727245000,7.5202451171875,0,0.013834928162395954,-0.0005321126081980765
1772594466747509000,7.540509033203125,0.016761546954512596,-0.05188097804784775,0.07250034064054489
1772594466767773000,7.56077294921875,0.012903730385005474,-0.041637811809778214,0.05587182566523552
1772594466788036000,7.5810361328125,0.012504646554589272,-0.17466595768928528,0.0697067528963089
1772594466808300000,7.601300048828125,0.0031926757656037807,-0.045362599194049835,0.018091829493641853
1772594466828564000,7.62156396484375,0.0007981689414009452,-0.011706477031111717,0.004655985161662102
1772594466848827000,7.641826904296875,0.00026605630409903824,-0.003059647511690855,0.0011972533538937569
1772594466869091000,7.662091064453125,0,-0.0007981689414009452,0.00026605630409903824
1772594466889355000,7.68235498046875,0,-0.00026605630409903824,0.00013302815204951912
1772594466909618000,7.702617919921875,0,0,0
1772594466929882000,7.722882080078125,0.0697067528963089,-0.004389929119497538,-0.039110276848077774
1772594466950146000,7.74314599609375,0.05361034348607063,-0.003325703786686063,-0.030064363032579422
1772594466970409000,7.763408935546875,0.026206545531749725,0.01144042145460844,-0.07223428785800934
1772594466990673000,7.7836728515625,0.0130367586389184,0.009178942069411278,-0.051614921540021896
1772594467010937000,7.80393701171875,0.0219496451318264,-0.05813330411911011,-0.03990844637155533
1772594467031200000,7.824199951171875,0.015165209770202637,-0.04589471220970154,-0.023945067077875137
1772594467051464000,7.8444638671875,0.0039908443577587605,-0.011972533538937569,-0.006252323277294636
1772594467071728000,7.86472802734375,0.001064225216396153,-0.003059647511690855,-0.0015963378828018904
1772594467091991000,7.884990966796875,0.00026605630409903824,-0.0007981689414009452,-0.0003990844707004726
1772594467112255000,7.9052548828125,0.10056928545236588,-0.06398653984069824,-0.008912886492908001
1772594467132519000,7.925518798828125,0.0260735172778368,-0.01662851870059967,-0.0022614786867052317
1772594467152782000,7.945781982421875,0.031926754862070084,-0.11759688705205917,-0.029931334778666496
1772594467173046000,7.9660458984375,0.021550560370087624,-0.1602989286184311,-0.01636246219277382
1772594467193310000,7.98631005859375,0.016229433938860893,-0.13209696114063263,-0.025275349617004395
1772594467213573000,8.006572998046876,0.00971105508506298,-0.08034900575876236,-0.0172936599701643
1772594467233837000,8.026837158203126,0.0025275349617004395,-0.020885419100522995,-0.004522957373410463
1772594467254101000,8.04710107421875,0.017160631716251373,0.024344151839613914,-0.1004362553358078
1772594467274364000,8.067364013671876,0.004522957373410463,0.006252323277294636,-0.0260735172778368
1772594467294628000,8.087628173828126,0.0011972533538937569,0.0015963378828018904,-0.006784435827285051
1772594467314892000,8.10789208984375,0.00026605630409903824,0.0003990844707004726,-0.0017293660202994943
1772594467335155000,8.128155029296876,-0.08101414144039154,-0.06850949674844742,-0.060128726065158844
1772594467355419000,8.1484189453125,-0.02101844735443592,-0.017825772985816002,-0.01556429360061884
1772594467375683000,8.16868310546875,-0.07263337075710297,0.07808752357959747,0.04483048617839813
1772594467395946000,8.188946044921876,-0.045362599194049835,0.07941780984401703,0.056536965072155
1772594467416210000,8.2092099609375,-0.053211260586977005,0.015298237092792988,0.08101414144039154
1772594467436474000,8.22947412109375,-0.055073656141757965,-0.11866111308336258,0.10349590331315994
1772594467456737000,8.249737060546876,-0.05720210447907448,-0.1541796326637268,0.12118864804506302
1772594467477001000,8.2700009765625,-0.058532387018203735,-0.08314259350299835,0.11533540487289429
1772594467497265000,8.290264892578126,-0.0570690780878067,0.06398653984069824,0.08167928457260132
1772594467517528000,8.310528076171876,-0.04868830367922783,0.17652836441993713,0.04589471220970154
1772594467537792000,8.3307919921875,-0.02288084290921688,0.10402801632881165,0.017825772985816002
1772594467558056000,8.351055908203126,-0.03791302442550659,0.14353737235069275,0.02793591283261776
1772594467578319000,8.371319091796876,-0.009844083338975906,0.037247881293296814,0.007183520123362541
1772594467598583000,8.3915830078125,-0.0025275349617004395,0.00971105508506298,0.0018623941577970982
1772594467618847000,8.411846923828126,-0.1092161163687706,-0.031261615455150604,0.03285795450210571
1772594467639110000,8.43210986328125,-0.0691746398806572,-0.07755541056394577,0.0307295024394989
1772594467659374000,8.4523740234375,-0.038711193948984146,-0.05547273904085159,0.019289081916213036
1772594467679638000,8.472637939453126,-0.05334429070353508,-0.13489054143428802,0.028201967477798462
1772594467699902000,8.49290185546875,-0.013834928162395954,-0.034986402839422226,0.007316548377275467
1772594467720165000,8.5131650390625,-0.06265626102685928,0.3253868520259857,-0.15630808472633362
1772594467740429000,8.533428955078126,-0.0686425268650055,0.47397929430007935,-0.168546661734581
1772594467760693000,8.55369287109375,-0.07702329754829407,0.5196079611778259,-0.16069801151752472
1772594467780956000,8.573955810546876,-0.0570690780878067,0.36024022102355957,-0.10269773006439209
1772594467801220000,8.59422021484375,-0.050018586218357086,0.34999707341194153,-0.08899583667516708
1772594467821484000,8.614484130859376,-0.026206545531749725,0.3253868520259857,-0.06757830083370209
1772594467841747000,8.634746826171876,0.007981688715517521,0.22787722945213318,-0.04456442967057228
1772594467862011000,8.655010986328126,0.002128450432792306,0.059197526425123215,-0.011573448777198792
1772594467882275000,8.675275146484376,0.033124011009931564,0.0828765407204628,-0.08567012846469879
1772594467902538000,8.6955380859375,0.0019954221788793802,0.07994992285966873,-0.11826203018426895
1772594467922802000,8.715802001953126,-0.004922041669487953,0.1004362553358078,-0.14619794487953186
1772594467943066000,8.736066162109376,-0.013435843400657177,-0.04270203784108162,-0.11866111308336258
1772594467963329000,8.7563291015625,-0.026472602039575577,-0.15431265532970428,-0.09737660735845566
1772594467983593000,8.776593017578126,-0.02474323660135269,-0.20340004563331604,-0.04602774232625961
1772594468003857000,8.79685693359375,-0.0172936599701643,-0.24384060502052307,-0.03831210732460022
1772594468024120000,8.8171201171875,-0.03418823331594467,-0.20153765380382538,-0.05028464272618294
1772594468044384000,8.837384033203126,-0.04589471220970154,-0.18717060983181,-0.041903868317604065
1772594468064648000,8.85764794921875,-0.012770703062415123,-0.181583434343338,-0.02101844735443592
1772594468084911000,8.8779111328125,0.525993287563324,-0.04735802114009857,-0.033124011009931564
1772594468105175000,8.898175048828126,0.7788798213005066,0.16535399854183197,-0.0735645666718483
1772594468125439000,8.91843896484375,0.6381360292434692,0.3364281952381134,-0.12770701944828033
1772594468145702000,8.938701904296876,0.43779563903808594,0.3025060296058655,-0.15072089433670044
1772594468165966000,8.958966064453126,0.2503589689731598,0.13023455440998077,-0.10296379029750824
1772594468186230000,8.97922998046875,0.23013870418071747,-0.0025275349617004395,-0.08354167640209198
1772594468206493000,8.999492919921876,-0.36569440364837646,-0.1894320845603943,-0.019954223185777664
1772594468226757000,9.019757080078126,-0.8360819220542908,-0.1316978633403778,0.045096542686223984
1772594468247021000,9.04002099609375,-0.9268071055412292,-0.047890134155750275,0.09950505942106247
1772594468267284000,9.060283935546876,-1.1971203088760376,0.0862022414803505,0.10256470739841461
1772594468287548000,9.0805478515625,-1.225987434387207,0.21590469777584076,0.06438562273979187
1772594468307812000,9.10081201171875,-0.8153295516967773,0.318868488073349,0.011041336692869663
1772594468328075000,9.121074951171876,-0.42555704712867737,0.4751765727996826,-0.03605062887072563
1772594468348339000,9.1413388671875,-0.10522526502609253,0.7593246698379517,-0.12464737892150879
1772594468368603000,9.161602783203126,0.07808752357959747,1.0429407358169556,-0.23452863097190857
1772594468388866000,9.181865966796876,0.16601912677288055,1.4026488065719604,-0.37061643600463867
1772594468409130000,9.2021298828125,0.1894320845603943,1.6556683778762817,-0.4637361466884613
1772594468429394000,9.222393798828126,0.1761292666196823,1.7338889837265015,-0.4814288914203644
1772594468449657000,9.242656982421876,0.16814757883548737,1.803728699684143,-0.2679187059402466
1772594468469921000,9.262921142578126,0.007183520123362541,2.0813584327697754,0.377533882856369
1772594468490185000,9.28318505859375,-0.25661131739616394,2.3621809482574463,0.9043253660202026
1772594468510448000,9.3034482421875,-0.5003188848495483,2.367501974105835,1.065954566001892
1772594468530712000,9.323712158203126,-0.6922785043716431,2.4791126251220703,1.1767669916152954
1772594468550976000,9.34397607421875,-0.8493847250938416,2.615865468978882,1.5190484523773193
1772594468571239000,9.364239013671876,-1.0321654081344604,2.5347185134887695,1.9476652145385742
1772594468591503000,9.384503173828126,-1.2826573848724365,2.3157541751861572,2.315355062484741
1772594468611767000,9.40476708984375,-0.8480544686317444,2.110358715057373,2.8229904174804688
1772594468632030000,9.425030029296876,0.08194534480571747,1.8733024597167969,3.347653388977051
1772594468652294000,9.4452939453125,-1.4199424982070923,1.6371774673461914,3.6709117889404297
1772594468672558000,9.46555810546875,-1.7805818319320679,1.448676586151123,4.001885890960693
1772594468692821000,9.485821044921876,-1.6524757146835327,1.28225839138031,3.9658353328704834
1772594468713085000,9.5060849609375,-1.3897451162338257,1.2138818502426147,3.4013967514038086
1772594468733349000,9.52634912109375,-1.1047987937927246,1.4070388078689575,2.5602598190307617
1772594468753612000,9.546612060546876,-0.9986423254013062,1.5016217231750488,1.6430307626724243
1772594468773876000,9.5668759765625,-1.2040377855300903,1.540998101234436,0.6014202833175659
1772594468794140000,9.587139892578126,-1.4007863998413086,1.9283760786056519,-0.26153334975242615
1772594468814403000,9.607403076171876,-1.5781129598617554,2.5202183723449707,-0.7853981852531433
1772594468834667000,9.6276669921875,-1.8602657318115234,3.0048398971557617,-0.9576696753501892
1772594468854931000,9.647930908203126,-2.142418384552002,3.0261244773864746,-0.932793378829956
1772594468875194000,9.668194091796876,-2.4426629543304443,2.9155781269073486,-0.6261634826660156
1772594468895458000,9.6884580078125,-2.654177665710449,2.6175949573516846,-0.19328990578651428
1772594468915722000,9.708721923828126,-2.598172903060913,1.2467398643493652,0.0877985805273056
1772594468935985000,9.72898486328125,-2.279304265975952,-2.051826238632202,1.2955611944198608
1772594468956249000,9.7492490234375,-2.083487033843994,-3.5836453437805176,2.76113224029541
1772594468976513000,9.769512939453126,-1.9470000267028809,-3.1181797981262207,2.678654909133911
1772594468996777000,9.78977685546875,-1.9072246551513672,-1.7171274423599243,1.8530821800231934
1772594469017040000,9.810039794921876,-2.001408576965332,-0.07635816186666489,1.353162407875061
1772594469037304000,9.830303955078126,-1.9246512651443481,0.9575366377830505,1.1453723907470703
1772594469057568000,9.850568115234376,-1.7131365537643433,1.4073047637939453,1.138720989227295
1772594469077831000,9.870830810546876,-1.5707963705062866,1.3926717042922974,1.4365710020065308
1772594469098095000,9.89109521484375,-1.3628734350204468,1.115441083908081,1.3473091125488281
1772594469118359000,9.911359130859376,-1.1528220176696777,0.544617235660553,1.3112584352493286
1772594469138622000,9.9316220703125,-1.0386837720870972,0.4960619807243347,1.5332825183868408
1772594469158886000,9.951885986328126,-0.8453938961029053,0.35598334670066833,1.4856584072113037
1772594469179150000,9.972150146484376,-0.6693976521492004,0.2288084179162979,1.6951777935028076
1772594469199413000,9.9924130859375,-0.47717198729515076,0.13848230242729187,1.8307334184646606
1772594469219677000,10.012677001953126,-0.41464874148368835,0.0647847130894661,1.752911925315857
1772594469239941000,10.032941162109376,-0.44697460532188416,0.028201967477798462,1.8444353342056274
1772594469260204000,10.0532041015625,-0.34760257601737976,0.031527671962976456,1.6679069995880127
1772594469280468000,10.073468017578126,-0.2338634878396988,0.03764696791768074,1.359547734260559
1772594469300732000,10.09373193359375,-0.2338634878396988,0.03791302442550659,1.0426746606826782
1772594469320995000,10.1139951171875,-0.33124008774757385,0.029000137001276016,0.7544026374816895
1772594469341259000,10.134259033203126,-0.4499012231826782,0.023679010570049286,0.5974294543266296
1772594469361523000,10.15452294921875,-0.5580530762672424,0.03817908093333244,0.9206878542900085
1772594469381786000,10.1747861328125,-0.5246630311012268,0.04735802114009857,1.2004460096359253
1772594469402050000,10.195050048828126,-0.38564860820770264,0.05959661304950714,1.096418023109436
1772594469422314000,10.21531396484375,-0.2880059480667114,0.06904160976409912,0.9056556820869446
1772594469442577000,10.235576904296876,-0.2359919399023056,0.06159203499555588,0.7035859227180481
1772594469462841000,10.255841064453126,-0.16668426990509033,0.05374337360262871,0.5351722836494446
1772594469483105000,10.27610498046875,-0.08912885934114456,0.03977541625499725,0.42728641629219055
1772594469503368000,10.296367919921876,-0.041238728910684586,0.022481758147478104,0.3726118505001068
1772594469523632000,10.316632080078126,0.08154625445604324,0.05613787844777107,0.3803274929523468
1772594469543896000,10.33689599609375,0.21430835127830505,0.11200970411300659,0.38950642943382263
1772594469564159000,10.357158935546876,0.2639278471469879,0.1460649073123932,0.36276775598526
1772594469584423000,10.3774228515625,0.2770976424217224,0.16841363906860352,0.3376254439353943
1772594469604687000,10.39768701171875,0.35106128454208374,0.21271201968193054,0.3397538959980011
1772594469624950000,10.417949951171876,0.39762115478515625,0.2354598343372345,0.31487762928009033
1772594469645214000,10.4382138671875,0.40041473507881165,0.24929475784301758,0.26805171370506287
1772594469665478000,10.458477783203126,0.3638319969177246,0.24690024554729462,0.20818905532360077
1772594469685741000,10.478740966796876,0.3589099645614624,0.3412172198295593,0.20446427166461945
1772594469706005000,10.4990048828125,0.1146702691912651,0.7744898796081543,0.20885419845581055
1772594469726269000,10.51926904296875,-0.2112487107515335,1.047729730606079,0.35425397753715515
1772594469746532000,10.539531982421876,-0.31846940517425537,0.9780229926109314,0.6752508878707886
1772594469766796000,10.559796142578126,-0.37008431553840637,0.7763522863388062,0.6333470344543457
1772594469787060000,10.58006005859375,-0.36968523263931274,0.5716219544410706,0.4231625497341156
