time,seconds_elapsed,z,y,x
1772402089630640000,0.34664013671875,-2.518907070159912,1.0130939483642578,0.4305329918861389
1772402089650697000,0.366697021484375,-1.8919260501861572,0.8128759860992432,1.223626971244812
1772402089670753500,0.38675341796875,0.26725900173187256,0.7038999795913696,1.4669009447097778
1772402089690810000,0.40681005859375,1.9514069557189941,0.8575199842453003,1.6527210474014282
1772402089710866700,0.42686669921875,3.219525098800659,0.6596159934997559,1.8469769954681396
1772402089730923500,0.446923583984375,4.000420093536377,0.5524929761886597,2.2015810012817383
1772402089750979800,0.466979736328125,3.961134910583496,1.046794056892395,2.9084649085998535
1772402089771036700,0.48703662109375,6.126509189605713,0.655834972858429,2.788372039794922
1772402089791093500,0.507093505859375,8.157206535339355,0.25826799869537354,1.340296983718872
1772402089811150000,0.527150146484375,6.931365966796875,0.6090139746665955,0.014636999927461147
1772402089831206700,0.54720654296875,4.051492214202881,0.7224109768867493,-0.4418889880180359
1772402089851263200,0.56726318359375,-1.6180050373077393,-1.3372700214385986,-1.3479119539260864
1772402089871319800,0.58731982421875,-6.44880485534668,-4.321816921234131,-1.4231289625167847
1772402089891376600,0.607376708984375,-6.791044235229492,-5.507052898406982,-1.490502953529358
1772402089911433200,0.62743310546875,-3.891235113143921,-4.049642086029053,0.9451959729194641
1772402089931489800,0.64748974609375,0.244610995054245,-3.5669140815734863,2.0793569087982178
1772402089951546400,0.66754638671875,-0.9627100229263306,-2.163930892944336,0.5066859722137451
1772402089971603000,0.68760302734375,-4.4397687911987305,-2.0703439712524414,-1.3338509798049927
1772402089991659800,0.70765966796875,-5.2998151779174805,-0.8194760084152222,-2.195080041885376
1772402090011716000,0.727716064453125,-1.9806519746780396,0.3252190053462982,-1.2872639894485474
1772402090031773000,0.74777294921875,0.9954779744148254,1.2297760248184204,-0.29621100425720215
1772402090051829800,0.767829833984375,1.3883819580078125,2.1902201175689697,-0.3481689989566803
1772402090071886300,0.78788623046875,0.9899060130119324,2.543376922607422,-0.7073349952697754
1772402090091943000,0.80794287109375,1.2535250186920166,2.6227009296417236,-0.7706680297851562
1772402090111999500,0.82799951171875,1.102020025253296,2.566960096359253,-0.7485340237617493
1772402090132056000,0.84805615234375,0.3224160075187683,2.2167680263519287,-0.4532270133495331
1772402090152112600,0.868112548828125,-0.41966700553894043,1.9230149984359741,-0.2017810046672821
1772402090172169200,0.888169189453125,-0.5885329842567444,1.4712109565734863,-0.18062500655651093
1772402090192226000,0.90822607421875,0.25637200474739075,1.0105689764022827,-0.3549000024795532
1772402090212282600,0.92828271484375,1.674697995185852,0.4612550139427185,-0.49112001061439514
1772402090232339200,0.948339111328125,2.22855806350708,0.2122039943933487,-0.33929601311683655
1772402090252395800,0.968395751953125,2.3092470169067383,0.13536299765110016,-0.3058370053768158
1772402090272452600,0.98845263671875,2.544996976852417,0.11948999762535095,0.10733000189065933
1772402090292509200,1.00850927734375,2.6751980781555176,0.0883919969201088,1.1282639503479004
1772402090312565800,1.028565673828125,2.3857579231262207,-0.32768499851226807,1.6378109455108643
1772402090332622300,1.048622314453125,2.117405891418457,-0.7565479874610901,1.7334489822387695
1772402090352679000,1.068678955078125,1.7531249523162842,-1.1124390363693237,1.6763590574264526
1772402090372735500,1.088735595703125,1.0464999675750732,-1.7595510482788086,1.768286943435669
1772402090392792300,1.108792236328125,-0.09799899905920029,-2.783639907836914,1.701828956604004
1772402090412849200,1.12884912109375,-0.7791990041732788,-3.554111957550049,1.1390630006790161
1772402090432905700,1.14890576171875,-0.5545589923858643,-3.9536900520324707,-0.7663480043411255
1772402090452962300,1.16896240234375,0.3611510097980499,-1.816552996635437,-3.4074790477752686
1772402090473019000,1.189018798828125,0.5297219753265381,-1.3308420181274414,-2.504383087158203
1772402090493075500,1.209075439453125,-1.8226219415664673,-1.5374729633331299,0.2644929885864258
1772402090513132000,1.229132080078125,-3.9980978965759277,-0.7299780249595642,3.22119402885437
1772402090533188600,1.249188720703125,-3.8608779907226562,0.33921700716018677,3.827354907989502
1772402090553245400,1.269245361328125,-1.0263019800186157,1.0505729913711548,1.9874839782714844
1772402090573302000,1.289302001953125,1.1101579666137695,1.2868579626083374,-0.7012119889259338
1772402090593358600,1.309358642578125,1.0777260065078735,1.4718869924545288,-2.954569101333618
1772402090613415200,1.329415283203125,0.3429810106754303,1.595108985900879,-3.300455093383789
1772402090633471700,1.3494716796875,-0.8752139806747437,1.8520870208740234,-2.45876407623291
1772402090653528300,1.3695283203125,-2.597770929336548,2.142469882965088,-2.2174110412597656
1772402090673585200,1.389585205078125,-3.432616949081421,1.967576026916504,-2.117928981781006
1772402090693641700,1.409641845703125,-3.158092975616455,1.6020599603652954,-1.8575429916381836
1772402090713698300,1.4296982421875,-2.905674934387207,1.2840490341186523,-1.4420340061187744
1772402090733755000,1.4497548828125,-2.690139055252075,1.2048389911651611,-0.9560269713401794
1772402090753811500,1.4698115234375,-2.5873119831085205,1.308670997619629,-0.3368220031261444
1772402090773868300,1.489868408203125,-2.5538489818573,1.3653359413146973,-0.03985700011253357
1772402090793924900,1.5099248046875,-2.0030789375305176,1.5402690172195435,0.15451300144195557
1772402090813981400,1.5299814453125,-0.5680630207061768,1.468214988708496,0.7940109968185425
1772402090834038000,1.5500380859375,1.2023489475250244,1.2737720012664795,1.5312080383300781
1772402090854094800,1.5700947265625,2.9866790771484375,0.649416983127594,2.1961669921875
1772402090874151400,1.5901513671875,4.049343109130859,-0.13166500627994537,2.2721331119537354
1772402090894208000,1.6102080078125,3.8242740631103516,0.5194669961929321,2.1033060550689697
1772402090914264800,1.630264892578125,7.4258198738098145,1.2059739828109741,3.7506449222564697
1772402090934321400,1.6503212890625,13.85745620727539,-0.4712199866771698,5.117315769195557
1772402090954378000,1.6703779296875,12.76756477355957,-2.2697761058807373,6.430653095245361
1772402090974434600,1.6904345703125,7.233251094818115,-6.136620998382568,4.035721778869629
1772402090994491100,1.7104912109375,-0.6581979990005493,-5.637296199798584,-2.3930211067199707
1772402091014547700,1.730547607421875,-8.590559005737305,-4.716238021850586,-5.805616855621338
1772402091034604300,1.750604248046875,-13.806846618652344,-2.1857900619506836,-6.977293968200684
1772402091054661000,1.7706611328125,-12.371077537536621,-0.8038319945335388,-4.785035133361816
1772402091074717700,1.7907177734375,-6.257661819458008,0.2129340022802353,-2.17602801322937
1772402091094774300,1.810774169921875,-1.2525290250778198,0.6927469968795776,-0.2352219969034195
1772402091114830800,1.830830810546875,1.2235759496688843,1.322996973991394,-0.13457700610160828
1772402091134887400,1.850887451171875,1.0900609493255615,1.7055970430374146,-0.902862012386322
1772402091154944000,1.870944091796875,0.03444899991154671,1.9156780242919922,-1.0518889427185059
1772402091175000600,1.89100048828125,-0.254040002822876,2.234143018722534,-1.0519119501113892
1772402091195057200,1.91105712890625,-0.013632000423967838,2.4209139347076416,-0.5143290162086487
1772402091215114000,1.931114013671875,0.38589298725128174,2.3527309894561768,0.06773599982261658
1772402091235170600,1.951170654296875,0.492713987827301,2.110184907913208,0.13258899748325348
1772402091255227100,1.97122705078125,0.43417099118232727,2.0137479305267334,0.0196710005402565
1772402091275283700,1.99128369140625,0.4665369987487793,1.6485979557037354,0.03733599931001663
1772402091295340300,2.01134033203125,0.9612299799919128,1.15487802028656,0.14426900446414948
1772402091315397000,2.031397216796875,1.4177839756011963,0.8007019758224487,0.07941500097513199
1772402091335453700,2.05145361328125,1.5518269538879395,0.6445620059967041,-0.06686700135469437
1772402091355510300,2.07151025390625,1.5726619958877563,0.5460489988327026,-0.09349299967288971
1772402091375566800,2.09156689453125,1.6357289552688599,0.41763898730278015,0.02680400013923645
1772402091395623400,2.11162353515625,1.6973830461502075,0.32291099429130554,0.17024299502372742
1772402091415680300,2.13168017578125,1.5115070343017578,-0.31606999039649963,0.36419498920440674
1772402091435736800,2.15173681640625,1.3772050142288208,-1.0000560283660889,0.4545559883117676
1772402091455793400,2.17179345703125,1.542564034461975,-1.2848440408706665,0.45884400606155396
1772402091475850000,2.19185009765625,1.818052053451538,-1.2054749727249146,0.36707499623298645
1772402091495906600,2.211906494140625,2.148041009902954,-0.7267799973487854,0.2824600040912628
1772402091515963100,2.231963134765625,2.3712329864501953,0.09617500007152557,0.4211679995059967
1772402091536019700,2.252019775390625,1.3801859617233276,-0.36385899782180786,1.597733974456787
1772402091556076300,2.272076171875,-0.2902500033378601,-1.493487000465393,2.026987075805664
1772402091576132900,2.2921328125,-0.9426000118255615,-2.609989881515503,1.3535900115966797
1772402091596189700,2.312189697265625,-1.1492799520492554,-3.5671920776367188,0.14607200026512146
1772402091616246300,2.332246337890625,-0.2450229972600937,-2.250554084777832,-1.5783419609069824
1772402091636302800,2.352302734375,0.9975799918174744,-1.9324430227279663,-1.155472993850708
1772402091656359400,2.372359375,0.47806400060653687,-1.7715539932250977,-0.6539779901504517
1772402091676416000,2.392416015625,-0.927947998046875,-0.7892429828643799,-0.7359830141067505
1772402091696472600,2.41247265625,-1.7703590393066406,0.2902050018310547,-0.7551860213279724
1772402091716529200,2.432529052734375,-2.380286931991577,1.4809629917144775,-0.7809489965438843
1772402091736586000,2.4525859375,-2.756230115890503,2.8951709270477295,-0.42555901408195496
1772402091756642300,2.472642333984375,-1.3817839622497559,3.842535972595215,0.652351975440979
1772402091776699000,2.492698974609375,1.476971983909607,3.010828971862793,0.4714820086956024
1772402091796755500,2.51275537109375,1.959177017211914,1.8070629835128784,-0.7700139880180359
1772402091816812000,2.53281201171875,-0.030257999897003174,0.5744500160217285,-1.3000110387802124
1772402091836868600,2.55286865234375,-2.5546059608459473,0.07636000216007233,-1.7112090587615967
1772402091856925400,2.572925537109375,-3.8652849197387695,0.31548699736595154,-1.2905670404434204
1772402091876982000,2.59298193359375,-5.033827781677246,0.5707899928092957,-0.24045300483703613
1772402091897038600,2.61303857421875,-5.788661956787109,0.5678319931030273,0.5436360239982605
1772402091917095200,2.63309521484375,-4.357329845428467,0.6950650215148926,1.0133090019226074
1772402091937151700,2.65315185546875,-1.521064043045044,0.8592519760131836,1.3258470296859741
1772402091957208300,2.673208251953125,0.7863479852676392,0.6026020050048828,1.4206780195236206
1772402091977265200,2.69326513671875,1.9906779527664185,0.4476810097694397,1.4197419881820679
1772402091997321500,2.713321533203125,2.4701430797576904,0.4253450036048889,1.3413939476013184
1772402092017378300,2.73337841796875,2.9393138885498047,0.10427600145339966,1.0939149856567383
1772402092037435000,2.753434814453125,3.799452066421509,-0.4773789942264557,0.5799319744110107
1772402092057491500,2.773491455078125,5.253961086273193,-0.6523029804229736,-0.3208540081977844
1772402092077547800,2.7935478515625,5.627968788146973,0.09895700216293335,-0.9774829745292664
1772402092097604400,2.813604248046875,5.3111748695373535,3.0631659030914307,2.307612895965576
1772402092117661200,2.8336611328125,4.8577399253845215,-0.19826699793338776,4.230891227722168
1772402092137717800,2.8537177734375,-0.185807004570961,-3.0122129917144775,-0.5744869709014893
1772402092157774300,2.8737744140625,-4.168644905090332,-3.5017709732055664,-1.9899890422821045
1772402092177831000,2.893830810546875,-1.2821160554885864,-5.337416172027588,-1.6511919498443604
1772402092197887500,2.913887451171875,-0.03369300067424774,-4.242733001708984,-2.5441529750823975
1772402092217944000,2.933944091796875,-3.167754888534546,-2.735785961151123,-1.9401229619979858
1772402092238000600,2.954000732421875,-5.949403762817383,-1.6790289878845215,-1.6136980056762695
1772402092258057500,2.974057373046875,-5.889922142028809,-0.5920230150222778,-0.8677579760551453
1772402092278113800,2.99411376953125,-3.4111380577087402,0.08878099918365479,-0.2710059881210327
1772402092298170400,3.01417041015625,-0.3937099874019623,1.0158250331878662,-0.3528049886226654
1772402092318227000,3.03422705078125,1.0890309810638428,1.7334599494934082,-0.4390439987182617
1772402092338283500,3.054283447265625,0.9840250015258789,2.180367946624756,-0.44323500990867615
1772402092358340000,3.074340087890625,-0.10958000272512436,2.4810938835144043,-0.3273879885673523
1772402092378396700,3.094396728515625,-0.541263997554779,2.69207501411438,0.038888998329639435
1772402092398453200,3.114453369140625,-0.19141100347042084,2.674459934234619,0.5383110046386719
1772402092418509800,3.134509765625,0.36927101016044617,2.4483680725097656,0.8002489805221558
1772402092438566400,3.15456640625,0.721015989780426,1.9962949752807617,0.4713990092277527
1772402092458623000,3.174623046875,1.1128129959106445,1.4634350538253784,-0.03248000144958496
1772402092478679600,3.194679443359375,1.7750509977340698,1.080348014831543,-0.1467839926481247
1772402092498736000,3.214736083984375,2.2320399284362793,0.5906779766082764,0.11617200076580048
1772402092518792700,3.234792724609375,2.458432912826538,0.02774200029671192,0.535336971282959
1772402092538849300,3.254849365234375,2.5643460750579834,-0.4834049940109253,0.7098699808120728
1772402092558905600,3.274905517578125,2.2082760334014893,-0.9435240030288696,0.655896008014679
1772402092578962400,3.29496240234375,2.173021078109741,-1.1612190008163452,0.626317024230957
1772402092599019000,3.31501904296875,2.414417028427124,-1.224174976348877,0.7674530148506165
1772402092619075600,3.33507568359375,2.1131339073181152,-1.15693998336792,0.403562992811203
1772402092639132200,3.355132080078125,1.5625070333480835,-0.8335520029067993,0.12764999270439148
1772402092659188700,3.375188720703125,0.9892060160636902,-1.33964204788208,0.8045200109481812
1772402092679245000,3.3952451171875,0.1457650065422058,-2.1517128944396973,0.6268159747123718
1772402092699301600,3.415301513671875,-0.39858800172805786,-2.303770065307617,-0.056147001683712006
1772402092719358500,3.4353583984375,-1.5364700555801392,-2.903815984725952,0.1750819981098175
1772402092739415000,3.4554150390625,-2.737175941467285,-2.72385311126709,-0.04553399980068207
1772402092759471600,3.4754716796875,-2.54013991355896,-2.0830819606781006,-0.36602699756622314
1772402092779528000,3.49552783203125,-1.4649120569229126,-1.641666054725647,-0.7712209820747375
1772402092799584500,3.51558447265625,-0.6031299829483032,-0.8557320237159729,-1.1017769575119019
1772402092819641000,3.53564111328125,-0.39610299468040466,-0.29578500986099243,-0.9270219802856445
1772402092839697700,3.55569775390625,-0.996882975101471,0.8729709982872009,-0.914417028427124
1772402092859754200,3.575754150390625,-1.7263059616088867,2.647977113723755,-0.687533974647522
1772402092879810800,3.595810791015625,-0.6210449934005737,3.3975820541381836,0.3939720094203949
1772402092899867100,3.6158671875,1.1695630550384521,3.08766508102417,0.5223780274391174
1772402092919923700,3.635923828125,1.5852500200271606,2.3461320400238037,-0.5796970129013062
1772402092939980300,3.655980224609375,-0.5077990293502808,1.4305059909820557,-1.2245570421218872
1772402092960036900,3.676036865234375,-3.292638063430786,1.1060049533843994,-1.218045949935913
1772402092980093400,3.696093505859375,-4.995710849761963,1.0360039472579956,-0.7240369915962219
1772402093000150000,3.71614990234375,-6.158168792724609,0.9648029804229736,-0.48002898693084717
1772402093020206600,3.73620654296875,-5.587335109710693,1.0574419498443604,-0.2824229896068573
1772402093040263200,3.75626318359375,-3.0994679927825928,1.1195529699325562,0.5380610227584839
1772402093060319700,3.77631982421875,-0.13317400217056274,0.9204429984092712,1.187248945236206
1772402093080376000,3.7963759765625,2.0926599502563477,0.8915539979934692,1.700199007987976
1772402093100432600,3.8164326171875,3.154128074645996,0.6980429887771606,1.747359037399292
1772402093120489200,3.8364892578125,3.1249020099639893,0.2656340003013611,1.403486967086792
1772402093140545500,3.856545654296875,3.6911211013793945,-0.32429200410842896,1.4699900150299072
1772402093160602400,3.876602294921875,4.676898002624512,-0.500232994556427,1.351991057395935
1772402093180658700,3.89665869140625,5.331117153167725,-0.6281859874725342,0.9895930290222168
1772402093200715500,3.916715576171875,4.36249303817749,-0.7689489722251892,0.05807400122284889
1772402093220772000,3.936772216796875,2.4387950897216797,-0.9695590138435364,0.042458999902009964
1772402093240828400,3.956828369140625,0.3862360119819641,-1.922847032546997,1.5603679418563843
1772402093260885000,3.976885009765625,0.8185889720916748,-2.0878779888153076,2.234694004058838
1772402093280941600,3.996941650390625,2.066071033477783,-1.6879019737243652,1.3629549741744995
1772402093300998100,4.016998046875,1.151257038116455,-2.5391221046447754,0.303164005279541
1772402093321054500,4.037054443359375,-3.2789928913116455,-1.922497034072876,-1.7702679634094238
1772402093341111300,4.057111328125,-5.803194999694824,-1.4859980344772339,-2.4026150703430176
1772402093361167600,4.077167724609375,-5.080955982208252,-1.0183980464935303,-1.7060920000076294
1772402093381224200,4.09722412109375,-2.8431649208068848,-0.3379189968109131,-0.7536730170249939
1772402093401280800,4.11728076171875,-1.2089309692382812,0.29446399211883545,-0.4189389944076538
1772402093421337000,4.137337158203125,-0.46714499592781067,1.0187710523605347,-0.7015510201454163
1772402093441394000,4.157393798828125,-0.4985159933567047,1.8190170526504517,-1.1412400007247925
1772402093461450200,4.1774501953125,-0.6724129915237427,2.2808139324188232,-1.1713919639587402
1772402093481506800,4.1975068359375,-0.5019299983978271,2.272650957107544,-1.0507140159606934
1772402093501563400,4.2175634765625,-0.32714399695396423,2.224519968032837,-0.6885709762573242
1772402093521620000,4.237619873046875,-0.32811498641967773,2.1412160396575928,-0.25805699825286865
1772402093541676300,4.25767626953125,-0.13449199497699738,1.8377729654312134,-0.26404500007629395
1772402093561732900,4.27773291015625,0.18760499358177185,1.4430179595947266,-0.5616359710693359
1772402093581789400,4.29778955078125,0.4828839898109436,1.0816149711608887,-0.45330899953842163
1772402093601845800,4.317845703125,1.1527069807052612,0.9076910018920898,-0.24584700167179108
1772402093621902300,4.33790234375,2.410166025161743,0.6837530136108398,-0.2694779932498932
1772402093641959000,4.357958984375,2.796133041381836,0.40140199661254883,-0.004381999839097261
1772402093662015700,4.378015625,2.1241049766540527,0.026722000911831856,0.566893994808197
1772402093682072000,4.398072021484375,1.7160840034484863,-0.4674220085144043,0.8631150126457214
1772402093702128600,4.418128662109375,1.4536679983139038,-0.8411369919776917,0.8672919869422913
1772402093722185200,4.438185302734375,1.359734058380127,-1.0697100162506104,0.7570329904556274
1772402093742241500,4.458241455078125,1.5381879806518555,-1.041368007659912,0.5136269927024841
1772402093762298000,4.478298095703125,1.6177500486373901,-0.6794940233230591,0.43170100450515747
1772402093782355000,4.49835498046875,1.1806010007858276,-1.0243949890136719,1.1917610168457031
1772402093802411300,4.518411376953125,0.2900800108909607,-1.7891160249710083,1.4366090297698975
1772402093822467800,4.5384677734375,0.23366400599479675,-2.107292890548706,0.984486997127533
1772402093842524400,4.5585244140625,0.3613309860229492,-2.679434061050415,0.8163890242576599
1772402093862580700,4.578580810546875,0.2642650008201599,-2.155548095703125,0.00911100022494793
1772402093882637300,4.59863720703125,0.1922129988670349,-1.764436960220337,-0.3527100086212158
1772402093902694000,4.61869384765625,0.053769998252391815,-1.6243499517440796,-0.39736801385879517
1772402093922750200,4.638750244140625,-0.5409839749336243,-1.2114800214767456,-0.235494002699852
1772402093942806800,4.658806884765625,-1.5031869411468506,-0.1915840059518814,-0.049995001405477524
1772402093962863000,4.678863037109375,-2.392148971557617,0.9691320061683655,-0.22959600389003754
1772402093982919700,4.698919677734375,-2.4657180309295654,1.764104962348938,-0.4884769916534424
1772402094002976300,4.718976318359375,-2.294174909591675,2.416883945465088,-0.6795809864997864
1772402094023032800,4.73903271484375,-2.4769399166107178,2.88150691986084,-0.6164649724960327
1772402094043089200,4.759089111328125,-2.6463520526885986,2.9908061027526855,-0.10277199745178223
1772402094063145700,4.779145751953125,-1.4866820573806763,2.520643949508667,0.3081820011138916
1772402094083202300,4.799202392578125,-0.2773450016975403,1.7221150398254395,-0.29905399680137634
1772402094103258600,4.819258544921875,-0.1858759969472885,0.8560919761657715,-0.7984430193901062
1772402094123315200,4.839315185546875,-1.018301010131836,0.33447399735450745,-0.7899540066719055
1772402094143371800,4.859371826171875,-1.681839942932129,0.05157899856567383,-0.7071629762649536
1772402094163428400,4.879428466796875,-2.015872001647949,0.1884630024433136,-0.5305309891700745
1772402094183485000,4.89948486328125,-2.3182969093322754,0.7387700080871582,-0.1396239995956421
1772402094203541200,4.919541259765625,-2.0442380905151367,0.9910159707069397,0.21070000529289246
1772402094223597800,4.939597900390625,-0.24258999526500702,0.6856129765510559,0.7597600221633911
1772402094243654400,4.959654296875,2.012326955795288,0.30928999185562134,1.3398079872131348
1772402094263710700,4.979710693359375,3.8242619037628174,-0.18536700308322906,1.3190460205078125
1772402094283767300,4.999767333984375,4.781009197235107,-0.7018939852714539,0.4016369879245758
1772402094303824000,5.019823974609375,4.336007118225098,-1.1031149625778198,-0.45789000391960144
1772402094323880400,5.03988037109375,3.66800594329834,0.6127070188522339,0.2176869958639145
1772402094343937000,5.05993701171875,6.516805171966553,0.5157660245895386,1.5533499717712402
1772402094363993300,5.079993408203125,6.921442985534668,-1.6297869682312012,2.3634800910949707
1772402094384050000,5.1000498046875,1.758754014968872,-3.084630012512207,1.618783950805664
1772402094404106200,5.120106201171875,-2.3761959075927734,-3.26690411567688,0.42302700877189636
1772402094424162800,5.140162841796875,-3.1921560764312744,-3.760723114013672,-0.6671770215034485
1772402094444219400,5.160219482421875,-3.773725986480713,-2.9429779052734375,-1.5505419969558716
1772402094464275700,5.180275634765625,-4.6357808113098145,-2.557581901550293,-2.0948328971862793
1772402094484332500,5.20033251953125,-4.426225185394287,-1.5556659698486328,-1.987866997718811
1772402094504388900,5.220388916015625,-3.401779890060425,-0.5453320145606995,-1.1286929845809937
1772402094524445400,5.240445556640625,-2.525424003601074,0.48693299293518066,-0.5181540250778198
1772402094544502000,5.260501953125,-1.7195390462875366,1.1151469945907593,-0.26492300629615784
1772402094564558300,5.280558349609375,-0.9908310174942017,1.5513169765472412,-0.7271389961242676
1772402094584615000,5.300614990234375,-0.5382639765739441,1.8154540061950684,-1.2313109636306763
1772402094604671200,5.320671142578125,-0.2578110098838806,1.93716299533844,-1.105849027633667
1772402094624727800,5.340727783203125,-0.23104900121688843,2.125730037689209,-0.5990790128707886
1772402094644784000,5.3607841796875,-0.24483899772167206,2.034183979034424,-0.1016630008816719
1772402094664840700,5.3808408203125,-0.05987099930644035,1.7961469888687134,0.1330689936876297
1772402094684897300,5.400897216796875,0.12490200251340866,1.5281169414520264,0.1048550009727478
1772402094704953600,5.42095361328125,0.6383209824562073,1.280094027519226,-0.046514999121427536
1772402094725010200,5.44101025390625,1.3610570430755615,1.1256749629974365,-0.1100120022892952
1772402094745066500,5.46106640625,2.1880459785461426,1.0157400369644165,-0.13041000068187714
1772402094765123000,5.481123046875,2.7216360569000244,0.9941920042037964,-0.05792799964547157
1772402094785179600,5.5011796875,2.818908929824829,0.649753987789154,0.6504570245742798
1772402094805236200,5.521236328125,2.5095269680023193,0.22140300273895264,1.2675659656524658
1772402094825292800,5.541292724609375,1.9540220499038696,-0.28687700629234314,1.3244520425796509
1772402094845349000,5.56134912109375,1.534417986869812,-0.8399009704589844,1.040362000465393
1772402094865405700,5.58140576171875,1.5283340215682983,-1.170320987701416,0.4274890124797821
1772402094885462000,5.6014619140625,1.5314669609069824,-1.165856957435608,0.0891909971833229
1772402094905518600,5.6215185546875,0.8435729742050171,-0.9790850281715393,0.3609530031681061
1772402094925575000,5.641574951171875,-0.4091399908065796,-1.9624680280685425,1.3095619678497314
1772402094945631500,5.661631591796875,-0.8537120223045349,-2.3635740280151367,0.6916499733924866
1772402094965687800,5.681687744140625,0.4698300063610077,-2.0268590450286865,-0.1634790003299713
1772402094985744400,5.701744384765625,0.6878640055656433,-2.1422879695892334,-0.5539829730987549
1772402095005801000,5.721801025390625,-0.43770700693130493,-1.9994299411773682,-0.881587028503418
1772402095025857300,5.741857177734375,-1.130167007446289,-1.4731440544128418,-0.46046900749206543
1772402095045913900,5.761913818359375,-1.4649330377578735,-0.6745150089263916,0.3156239986419678
1772402095065970400,5.781970458984375,-1.8503470420837402,0.20358699560165405,0.3252989947795868
1772402095086026800,5.80202685546875,-1.7058769464492798,0.5940690040588379,0.13783900439739227
1772402095106083300,5.822083251953125,-1.3399020433425903,1.2448550462722778,-0.45132800936698914
1772402095126140000,5.842139892578125,-1.5583209991455078,2.0686841011047363,-0.7690619826316833
1772402095146196200,5.8621962890625,-2.1378579139709473,2.436547040939331,-0.6976500153541565
1772402095166252800,5.882252685546875,-1.6182860136032104,2.7476370334625244,-0.26291999220848083
1772402095186309000,5.90230908203125,-0.5722280144691467,2.5757100582122803,-0.32713600993156433
1772402095206365700,5.92236572265625,-0.27938300371170044,1.0781669616699219,-1.1217080354690552
1772402095226422000,5.942422119140625,-0.65870600938797,0.4793339967727661,-1.1653670072555542
1772402095246478600,5.962478515625,-1.8141649961471558,-0.035732001066207886,-0.8290929794311523
1772402095266535000,5.982534912109375,-3.219331979751587,-0.4269849956035614,-0.5152739882469177
1772402095286591500,6.002591552734375,-2.6194660663604736,-0.5239880084991455,0.15017999708652496
1772402095306647800,6.022647705078125,-1.549172043800354,-0.5183910131454468,1.1049439907073975
1772402095326704400,6.042704345703125,-1.0937379598617554,0.058086998760700226,2.0119550228118896
1772402095346760700,6.0627607421875,0.36420899629592896,0.26646900177001953,2.502363920211792
1772402095366817300,6.0828173828125,2.0665669441223145,0.28037500381469727,2.421091079711914
1772402095386873600,6.10287353515625,2.9228529930114746,0.013899999670684338,2.0696730613708496
1772402095406930200,6.12293017578125,3.2430830001831055,-0.5272790193557739,1.0101380348205566
1772402095426986500,6.142986572265625,3.1496660709381104,-0.996222972869873,0.23130999505519867
1772402095447043000,6.16304296875,2.5021328926086426,-1.4961789846420288,-0.5429509878158569
1772402095467099400,6.183099365234375,2.9537060260772705,-0.5921429991722107,0.08643899857997894
1772402095487156000,6.203156005859375,7.0445661544799805,-1.224113941192627,5.153151035308838
1772402095507212300,6.22321240234375,9.682852745056152,-2.436892032623291,6.528120994567871
1772402095527268900,6.243268798828125,5.005480766296387,-2.849513053894043,-0.28630301356315613
1772402095547325400,6.263325439453125,-4.5676140785217285,-3.458009958267212,-4.5402421951293945
1772402095567381800,6.2833818359375,-11.9332914352417,-2.2584080696105957,-4.668193817138672
1772402095587438300,6.303438232421875,-12.842633247375488,-1.0291270017623901,-4.006555080413818
1772402095607495000,6.323494873046875,-8.110106468200684,-0.6185010075569153,-2.8332440853118896
1772402095627551000,6.343551025390625,-1.510485053062439,-0.3684009909629822,-1.5985950231552124
1772402095647607800,6.36360791015625,1.5500110387802124,-0.015521000139415264,-1.0244760513305664
1772402095667664100,6.3836640625,1.5688090324401855,1.0067830085754395,-0.8043810129165649
1772402095687720400,6.403720458984375,0.4870469868183136,1.8726259469985962,-0.7931039929389954
1772402095707777000,6.423777099609375,-0.5967620015144348,2.3429009914398193,-0.3912830054759979
1772402095727833300,6.443833251953125,-0.8198090195655823,2.4871199131011963,0.33257201313972473
1772402095747890000,6.463889892578125,0.17135100066661835,2.544895887374878,0.8444579839706421
1772402095767946200,6.4839462890625,0.7786809802055359,2.246316909790039,0.9059659838676453
1772402095788002800,6.5040029296875,0.9045450091362,1.8818540573120117,0.21277299523353577
1772402095808059100,6.52405908203125,0.7636359930038452,1.627882957458496,-0.028981000185012817
1772402095828115500,6.544115478515625,1.124508023262024,1.1911059617996216,0.26801401376724243
1772402095848172000,6.564172119140625,1.866806983947754,0.6576849818229675,0.1416109949350357
1772402095868228400,6.584228271484375,2.4686450958251953,0.5069479942321777,-0.21390999853610992
1772402095888285000,6.604284912109375,2.8253159523010254,0.5607579946517944,-0.19592800736427307
1772402095908341500,6.624341552734375,2.713852882385254,0.46220600605010986,0.45045700669288635
1772402095928397800,6.644397705078125,1.8686820268630981,-0.10863400250673294,0.9867650270462036
1772402095948454400,6.664454345703125,0.6405460238456726,-0.9285069704055786,0.766211986541748
1772402095968511000,6.684510986328125,0.28843700885772705,-1.3380060195922852,0.7601699829101562
1772402095988567300,6.7045673828125,0.7651500105857849,-1.36000394821167,0.8345360159873962
1772402096008623900,6.724623779296875,1.2169189453125,-1.4728039503097534,0.8172280192375183
1772402096028680200,6.74468017578125,0.26153498888015747,-2.4878430366516113,1.7545830011367798
1772402096048736500,6.764736572265625,-0.3579710125923157,-3.6494739055633545,2.050865888595581
1772402096068793000,6.78479296875,0.3360230028629303,-4.0267791748046875,1.0814919471740723
1772402096088849400,6.804849365234375,1.4872180223464966,-1.5054229497909546,-1.6916049718856812
1772402096108906000,6.824906005859375,1.5953760147094727,-0.7579389810562134,-2.238084077835083
1772402096128962300,6.84496240234375,0.26510000228881836,-1.1695510149002075,-0.39206698536872864
1772402096149019000,6.865018798828125,-2.396718978881836,-0.9356409907341003,1.4407449960708618
1772402096169075200,6.8850751953125,-4.718975067138672,-0.20771199464797974,1.9757959842681885
1772402096189131500,6.905131591796875,-3.5263800621032715,1.518630027770996,1.368636965751648
1772402096209188000,6.92518798828125,-0.10510300099849701,2.4965031147003174,1.3357089757919312
1772402096229244400,6.945244384765625,1.940716028213501,2.4932029247283936,0.7085670232772827
1772402096249300700,6.96530078125,1.3437730073928833,2.008162021636963,-0.9579449892044067
1772402096269357300,6.985357421875,-0.637781023979187,1.3153300285339355,-2.6007559299468994
1772402096289413600,7.00541357421875,-2.8790249824523926,0.9298629760742188,-3.2494049072265625
1772402096309470200,7.02547021484375,-4.472020149230957,0.9182909727096558,-3.203524112701416
1772402096329526500,7.045526611328125,-5.197616100311279,1.046633005142212,-2.122818946838379
1772402096349583000,7.0655830078125,-5.0172929763793945,1.2701059579849243,-1.1590549945831299
1772402096369639400,7.085639404296875,-3.441833972930908,1.228883981704712,-0.37124401330947876
1772402096389695700,7.10569580078125,-1.4702670574188232,0.9735069870948792,0.33100399374961853
1772402096409752300,7.12575244140625,0.01658499985933304,0.754006028175354,0.7688030004501343
1772402096429809000,7.145808837890625,1.2052680253982544,0.7680050134658813,0.6950420141220093
1772402096449865200,7.165865234375,1.941014051437378,0.8960040211677551,0.8664339780807495
1772402096469921800,7.185921875,2.117611885070801,0.44480299949645996,1.9459470510482788
1772402096570204000,7.286203857421875,18.736841201782227,-7.695765018463135,7.998946189880371
1772402096590260200,7.30626025390625,9.496673583984375,-1.8590120077133179,-3.9168429374694824
1772402096610316500,7.326316650390625,-4.401060104370117,-4.269608974456787,-2.8958740234375
1772402096630373000,7.346373046875,-13.52564811706543,-5.434887886047363,-3.4406991004943848
1772402096650429400,7.366429443359375,-14.779718399047852,-1.8655109405517578,-6.044559001922607
1772402096670485800,7.38648583984375,-14.194974899291992,3.175590991973877,-5.350846767425537
1772402096690542300,7.406542236328125,-8.559179306030273,2.438873052597046,-2.635077953338623
1772402096710598700,7.4265986328125,-1.3337429761886597,1.435897946357727,-0.1136619970202446
1772402096730655200,7.4466552734375,3.2138049602508545,1.9839190244674683,1.4258699417114258
1772402096750711600,7.466711669921875,5.7366437911987305,2.6055350303649902,1.4190959930419922
1772402096770768100,7.48676806640625,6.0261149406433105,1.2380280494689941,-0.103923000395298
1772402096790824400,7.506824462890625,5.604092121124268,1.7432219982147217,-0.5735380053520203
1772402096810880800,7.526880859375,1.727273941040039,1.871377944946289,-0.894029974937439
1772402096830937000,7.54693701171875,-2.129380941390991,2.6099019050598145,-1.4584239721298218
1772402096850993700,7.56699365234375,-3.683505058288574,2.615122079849243,-0.9651389718055725
1772402096871050000,7.587050048828125,-2.918004035949707,1.8904969692230225,-0.7881109714508057
1772402096891106600,7.6071064453125,-1.591202974319458,1.493198037147522,-0.4728890061378479
1772402096911163000,7.627162841796875,0.03903700038790703,0.5897579789161682,-0.15831099450588226
1772402096931219200,7.64721923828125,1.6552300453186035,0.491007000207901,0.042149998247623444
1772402096951275800,7.66727587890625,1.9673830270767212,0.5040050148963928,1.0105199813842773
1772402096971332000,7.68733203125,1.683506965637207,1.2704039812088013,2.178015947341919
1772402096991388400,7.707388427734375,1.9772050380706787,1.0739229917526245,1.384013056755066
1772402097011445000,7.727445068359375,1.94896399974823,0.4239389896392822,0.3120099902153015
1772402097031501300,7.747501220703125,1.2047710418701172,0.1751510053873062,-0.36319100856781006
1772402097051557600,7.7675576171875,1.6822160482406616,-0.6342790126800537,-0.6713529825210571
1772402097071614200,7.7876142578125,3.408972978591919,-0.5666229724884033,0.22131699323654175
1772402097091670500,7.80767041015625,3.5447781085968018,-0.7156980037689209,-0.033344998955726624
1772402097111726800,7.827726806640625,0.964622974395752,-1.553359031677246,-0.8754760026931763
1772402097131783400,7.847783447265625,-1.158700942993164,-2.4698870182037354,-0.9955809712409973
1772402097151839700,7.86783984375,-0.6549599766731262,-2.7175099849700928,-0.6412649750709534
1772402097171896000,7.88789599609375,0.320032000541687,-3.0684080123901367,-1.085811972618103
1772402097191952400,7.907952392578125,-1.0479739904403687,-1.6443259716033936,-0.9910489916801453
1772402097212009000,7.928009033203125,1.2088199853897095,-0.7106599807739258,1.4695600271224976
1772402097232065300,7.948065185546875,1.9462560415267944,-1.54692804813385,0.8628479838371277
1772402097252121600,7.96812158203125,0.017004000023007393,-1.1247429847717285,-0.3153209984302521
1772402097272178200,7.98817822265625,-2.9095959663391113,-0.29259398579597473,0.7077419757843018
1772402097292234500,8.008234375,-4.142877101898193,0.44192400574684143,0.21579399704933167
1772402097312290800,8.028290771484375,-2.9143009185791016,1.4031389951705933,-0.3409639894962311
1772402097332347400,8.048347412109376,-1.6898410320281982,1.8257110118865967,-1.0023709535598755
1772402097352403700,8.06840380859375,-0.5262719988822937,2.337368965148926,0.6573020219802856
1772402097372460000,8.0884599609375,1.9077810049057007,2.6402950286865234,2.10984206199646
1772402097392516600,8.1085166015625,0.8006240129470825,2.2402360439300537,0.5638729929924011
1772402097412573000,8.128572998046875,-1.9354989528656006,1.731389045715332,-1.1865010261535645
1772402097432629200,8.148629150390626,-3.7203989028930664,1.4675110578536987,-1.4972000122070312
1772402097452685600,8.168685546875,-4.38592004776001,1.2468090057373047,-1.0561599731445312
1772402097472742100,8.1887421875,-3.9135360717773438,1.1846469640731812,-0.45372799038887024
1772402097492798500,8.208798583984375,-2.4540278911590576,0.9189170002937317,-0.09898199886083603
1772402097512855000,8.22885498046875,-1.4296220541000366,0.5799340009689331,-0.13118599355220795
1772402097532911400,8.248911376953124,0.80110102891922,0.35674700140953064,0.7454509735107422
1772402097552967700,8.2689677734375,2.111280918121338,0.15579700469970703,1.3267600536346436
1772402097573024000,8.28902392578125,2.053025007247925,-0.008160999976098537,1.2318079471588135
1772402097593080600,8.30908056640625,2.9888200759887695,-0.9241290092468262,0.47024598717689514
1772402097613137000,8.329136962890624,4.44865608215332,-1.6273030042648315,-0.21020199358463287
1772402097633193200,8.349193115234375,5.709324836730957,0.37415701150894165,0.18623700737953186
1772402097653249500,8.36924951171875,10.76986026763916,0.7721250057220459,6.883389949798584
1772402097673306000,8.38930615234375,9.475887298583984,-2.492698907852173,7.993112087249756
1772402097693362400,8.409362548828126,-1.1456890106201172,-5.725359916687012,1.1536890268325806
1772402097713418800,8.429418701171874,-5.082951068878174,-6.823488235473633,-4.23464822769165
1772402097733475300,8.449475341796875,-8.314360618591309,-4.516389846801758,-6.884518146514893
1772402097753531600,8.46953173828125,-8.146689414978027,-2.6131110191345215,-5.132414817810059
1772402097773588200,8.489588134765626,-4.483750820159912,-1.780089020729065,-3.200331926345825
1772402097793644500,8.50964453125,-2.1758010387420654,-1.2464710474014282,-1.6538649797439575
1772402097813700900,8.529700927734375,-1.3422399759292603,-0.5507760047912598,0.11290699988603592
1772402097833757400,8.54975732421875,-0.7169920206069946,0.2969779968261719,-0.12807300686836243
1772402097853813800,8.569813720703126,0.33200499415397644,1.769582986831665,-0.6904590129852295
1772402097873870000,8.5898701171875,0.6912050247192383,2.9980669021606445,0.28043198585510254
1772402097893926400,8.609926513671875,-0.01983500085771084,3.4672529697418213,1.1587460041046143
1772402097913982700,8.629982666015625,-1.0350689888000488,3.438602924346924,0.9485960006713867
1772402097934039300,8.650039306640625,-1.0248550176620483,2.930881977081299,0.4332770109176636
1772402097954095600,8.670095703125,-0.06948400288820267,2.200705051422119,0.059422001242637634
1772402097974152000,8.69015185546875,0.580411970615387,1.8645639419555664,0.0323369987308979
1772402097994208300,8.710208251953125,0.6995300054550171,1.4452509880065918,0.09866999834775925
1772402098014264800,8.730264892578125,1.4412239789962769,0.9898009896278381,0.12053599953651428
1772402098034321200,8.750321044921876,2.1505789756774902,0.8782410025596619,0.5468279719352722
1772402098054377500,8.77037744140625,2.2644639015197754,0.6217920184135437,1.083063006401062
1772402098074433800,8.790433837890625,2.3731698989868164,0.21423399448394775,1.4136500358581543
1772402098094490400,8.810490478515625,0.8833370208740234,-0.2870120108127594,1.3821200132369995
1772402098114546400,8.83054638671875,0.794668972492218,-0.8192099928855896,0.9560959935188293
1772402098134603000,8.85060302734375,1.7365360260009766,-0.9849680066108704,0.8088769912719727
1772402098154659300,8.870659423828124,2.059628963470459,-0.9143739938735962,0.7279009819030762
1772402098174715600,8.890715576171875,1.3149030208587646,-0.6946989893913269,0.26392099261283875
1772402098194772000,8.91077197265625,1.1151219606399536,-0.7589589953422546,0.08713600039482117
1772402098214828500,8.93082861328125,0.5416970252990723,-2.0167670249938965,0.764909029006958
1772402098234884900,8.950884765625,0.20695699751377106,-3.075014114379883,0.15192699432373047
1772402098254941200,8.970941162109375,0.11756700277328491,-4.725611209869385,0.4151419997215271
1772402098274997500,8.99099755859375,0.4292530119419098,-4.732489109039307,0.7057129740715027
1772402098295053800,9.0110537109375,1.1426019668579102,-3.2635910511016846,0.06057000160217285
1772402098315110400,9.0311103515625,0.3236820101737976,-2.0876729488372803,0.21485599875450134
1772402098335167000,9.0511669921875,-2.017853021621704,-0.6381379961967468,-0.05051400139927864
1772402098355223300,9.071223388671875,-3.2830820083618164,0.8094890117645264,-0.09561199694871902
1772402098375279600,9.091279541015625,-2.168865919113159,2.8003900051116943,0.5707100033760071
1772402098395336000,9.1113359375,0.528905987739563,3.8931119441986084,1.394968032836914
1772402098415392300,9.131392333984374,1.2183250188827515,3.6280899047851562,0.3447740077972412
1772402098435448600,9.151448486328125,-1.1037390232086182,2.8088719844818115,-2.063380002975464
1772402098455505200,9.171505126953125,-3.8557910919189453,2.2526979446411133,-3.705104112625122
1772402098475561500,9.1915615234375,-4.671833038330078,1.5013580322265625,-3.745682954788208
1772402098495618000,9.2116181640625,-4.611066818237305,1.0418859720230103,-3.017345905303955
1772402098515674000,9.231674072265625,-3.6696529388427734,0.8127089738845825,-2.2394769191741943
1772402098535730700,9.251730712890625,-2.4893229007720947,0.47176700830459595,-1.1043809652328491
1772402098555787000,9.271787109375,-1.9570579528808594,0.7246140241622925,0.6196939945220947
1772402098575843000,9.291843017578126,-1.359246015548706,0.8436909914016724,0.9933549761772156
1772402098595899600,9.311899658203124,0.2630020081996918,1.0885529518127441,1.0954840183258057
1772402098615956000,9.3319560546875,2.1336019039154053,1.1676419973373413,2.5507869720458984
1772402098636012300,9.35201220703125,2.4964818954467773,0.7333139777183533,3.193429946899414
1772402098656068600,9.372068603515626,3.273984909057617,0.17865100502967834,2.491544008255005
1772402098676125200,9.392125244140624,5.2567877769470215,0.15812000632286072,2.054835081100464
1772402098696181500,9.412181396484375,9.417431831359863,0.4096960127353668,2.9998679161071777
1772402098716237800,9.43223779296875,10.763544082641602,0.5141569972038269,2.8630940914154053
1772402098736294100,9.452294189453125,5.062835216522217,0.8401250243186951,1.817674994468689
1772402098756350500,9.4723505859375,-1.471331000328064,0.36010000109672546,0.18053999543190002
1772402098776406800,9.49240673828125,-7.6258649826049805,-2.39591908454895,-2.395566940307617
1772402098796463000,9.512463134765625,-8.033491134643555,-4.7815351486206055,-4.146053791046143
1772402098816519700,9.532519775390625,-3.934792995452881,-5.106828212738037,-0.7440429925918579
1772402098836576000,9.552575927734376,-2.3974339962005615,-4.761462211608887,1.0575649738311768
1772402098856632600,9.572632568359374,0.058851998299360275,-2.7083699703216553,0.5180519819259644
1772402098876689000,9.59268896484375,-1.1401180028915405,-1.2794959545135498,-0.16715799272060394
1772402098896745200,9.6127451171875,-5.2656941413879395,-1.0083969831466675,-2.3233261108398438
1772402098916801800,9.6328017578125,-1.4429559707641602,-0.56911700963974,-1.6114610433578491
1772402098936857900,9.65285791015625,3.082434892654419,-0.012893999926745892,-0.6131690144538879
1772402098956914200,9.6729140625,3.1051480770111084,0.8632839918136597,-1.3449350595474243
1772402098976970500,9.692970458984375,0.666517972946167,2.201827049255371,-1.2175480127334595
1772402098997027000,9.713027099609375,-1.2251850366592407,2.9318621158599854,-0.541238009929657
1772402099017083400,9.73308349609375,-0.8881480097770691,3.0462889671325684,-0.24178999662399292
1772402099037140000,9.753139892578124,0.0694810003042221,2.705030918121338,-0.5374320149421692
1772402099057196000,9.773196044921875,-0.1940149962902069,2.2104249000549316,-0.42834600806236267
1772402099077252400,9.79325244140625,-0.08961199969053268,1.70114004611969,-0.38667699694633484
1772402099097308700,9.81330859375,0.7307100296020508,1.3857120275497437,-0.1829410046339035
1772402099117365000,9.833364990234376,0.8509680032730103,1.338170051574707,0.05444600060582161
1772402099137421300,9.85342138671875,1.7071739435195923,0.8505359888076782,-0.19164200127124786
1772402099157477600,9.8734775390625,2.4249401092529297,0.521228015422821,-0.216512992978096
1772402099177534200,9.8935341796875,1.8847520351409912,0.20818300545215607,0.4531880021095276
1772402099197590500,9.913590576171876,1.5902010202407837,-0.35585299134254456,1.2321510314941406
1772402099217646800,9.933646728515624,1.2585610151290894,-0.8038820028305054,1.3361209630966187
1772402099237703200,9.953703125,0.6468480229377747,-0.9919059872627258,0.739296019077301
1772402099257759500,9.973759521484375,1.1382789611816406,-1.027124047279358,0.0018370000179857016
1772402099277815800,9.99381591796875,1.4234219789505005,-0.802498996257782,-0.20572899281978607
1772402099297872100,10.0138720703125,1.1099380254745483,-0.5155990123748779,0.25301599502563477
1772402099317928400,10.033928466796874,0.4575510025024414,-1.470078945159912,1.370411992073059
1772402099337984800,10.05398486328125,-0.3235589861869812,-3.044862985610962,1.0299299955368042
1772402099358041000,10.074041015625,0.4859519898891449,-3.10309100151062,-0.2816550135612488
1772402099378097400,10.094097412109376,0.5799610018730164,-2.488071918487549,-1.115723967552185
1772402099398153700,10.11415380859375,-0.0624300017952919,-1.4272569417953491,-1.3389790058135986
1772402099418210300,10.134210205078125,-1.0939429998397827,-0.9906060099601746,-0.010382999666035175
1772402099438266600,10.1542666015625,-2.518354892730713,-1.2364850044250488,1.4860930442810059
1772402099458323000,10.174322998046875,-2.348283052444458,-0.6715869903564453,1.5640740394592285
1772402099478379300,10.194379150390626,-0.3690269887447357,0.5203289985656738,0.6744589805603027
1772402099498435600,10.214435546875,0.7983779907226562,1.5346629619598389,0.06836699694395065
1772402099518492000,10.234491943359375,1.6291019916534424,2.1853299140930176,-0.24210500717163086
1772402099538548500,10.254548583984375,0.6344810128211975,2.509063959121704,-0.548084020614624
1772402099558604800,10.274604736328126,-1.1972140073776245,2.2384519577026367,-2.0144670009613037
1772402099578661000,10.2946611328125,-2.7977709770202637,1.9387609958648682,-2.0307741165161133
1772402099598717400,10.314717529296875,-3.8742170333862305,1.6102089881896973,-1.3454190492630005
1772402099618773800,10.334773681640625,-3.7257730960845947,1.109766960144043,-1.771535038948059
1772402099638830000,10.354830078125,-3.0958189964294434,0.876613974571228,-1.9484280347824097
