time,seconds_elapsed,z,y,x
1772402089630640000,0.34664013671875,0.8945749998092651,-0.9425625205039978,1.2440999746322632
1772402089650697000,0.366697021484375,1.0096625089645386,-1.3601499795913696,0.7892500162124634
1772402089670753500,0.38675341796875,1.0363374948501587,-1.6168625354766846,0.3653374910354614
1772402089690810000,0.40681005859375,1.0500874519348145,-1.5614500045776367,0.22151249647140503
1772402089710866700,0.42686669921875,0.9638749957084656,-1.2578500509262085,0.023375000804662704
1772402089730923500,0.446923583984375,0.9468249678611755,-0.9777625203132629,-0.12044999748468399
1772402089750979800,0.466979736328125,0.6782875061035156,-0.35983750224113464,-0.6392375230789185
1772402089771036700,0.48703662109375,0.2639999985694885,0.6510624885559082,-1.4605250358581543
1772402089791093500,0.507093505859375,-0.0034374999813735485,0.7394750118255615,-1.1856625080108643
1772402089811150000,0.527150146484375,-0.021587500348687172,0.0705375000834465,-0.04702499881386757
1772402089831206700,0.54720654296875,-0.031075000762939453,0.04166249930858612,0.8307750225067139
1772402089851263200,0.56726318359375,-0.11096250265836716,0.49445000290870667,1.8492374420166016
1772402089871319800,0.58731982421875,-0.1568875014781952,0.0193875003606081,1.9354499578475952
1772402089891376600,0.607376708984375,0.27568748593330383,-1.256887435913086,1.0683749914169312
1772402089911433200,0.62743310546875,0.7145875096321106,-1.256887435913086,-0.40700000524520874
1772402089931489800,0.64748974609375,0.3438875079154968,0.20996250212192535,-0.6562874913215637
1772402089951546400,0.66754638671875,-0.18232500553131104,0.643637478351593,0.4250124990940094
1772402089971603000,0.68760302734375,-0.476437509059906,0.4188250005245209,0.7253124713897705
1772402089991659800,0.70765966796875,-0.3198249936103821,-0.017875000834465027,-0.3750999867916107
1772402090011716000,0.727716064453125,0.0008249999955296516,-0.23100000619888306,-1.5767124891281128
1772402090031773000,0.74777294921875,0.08813749998807907,-0.24584999680519104,-1.8451124429702759
1772402090051829800,0.767829833984375,-0.0034374999813735485,-0.2512125074863434,-1.565024971961975
1772402090071886300,0.78788623046875,0.006187499966472387,-0.2096875011920929,-1.4147374629974365
1772402090091943000,0.80794287109375,0.11371249705553055,-0.18521249294281006,-1.2421749830245972
1772402090111999500,0.82799951171875,0.20748749375343323,-0.3993000090122223,-0.8523625135421753
1772402090132056000,0.84805615234375,0.25437501072883606,-0.5665000081062317,-0.5411999821662903
1772402090152112600,0.868112548828125,0.22343750298023224,-0.4834499955177307,-0.5178250074386597
1772402090172169200,0.888169189453125,0.12333749979734421,-0.2671625018119812,-0.7469000220298767
1772402090192226000,0.90822607421875,0.047712501138448715,-0.06270000338554382,-1.1335500478744507
1772402090212282600,0.92828271484375,0.0668250024318695,-0.007287499960511923,-1.241075038909912
1772402090232339200,0.948339111328125,0.09886249899864197,0.02681249938905239,-1.0632874965667725
1772402090252395800,0.968395751953125,0.16376249492168427,0.15565000474452972,-0.9630500078201294
1772402090272452600,0.98845263671875,0.3044250011444092,0.08648750185966492,-0.8320124745368958
1772402090292509200,1.00850927734375,0.28847500681877136,-0.1414874941110611,-0.5625125169754028
1772402090312565800,1.028565673828125,0.08071249723434448,-0.1639000028371811,-0.32394999265670776
1772402090332622300,1.048622314453125,-0.1568875014781952,-0.04455000162124634,-0.1471250057220459
1772402090352679000,1.068678955078125,-0.3730374872684479,0.02461249940097332,0.047849997878074646
1772402090372735500,1.088735595703125,-0.5446375012397766,0.12581250071525574,0.22687499225139618
1772402090392792300,1.108792236328125,-0.8406749963760376,0.3324750065803528,0.27582499384880066
1772402090412849200,1.12884912109375,-1.1985875368118286,0.5765374898910522,0.05953750014305115
1772402090432905700,1.14890576171875,-1.3957624435424805,0.8119375109672546,-0.16843749582767487
1772402090452962300,1.16896240234375,-1.0175000429153442,0.7192624807357788,0.015949999913573265
1772402090473019000,1.189018798828125,-0.33467498421669006,0.3452624976634979,0.8318749666213989
1772402090493075500,1.209075439453125,0.10518749803304672,-0.055275000631809235,1.6937249898910522
1772402090513132000,1.229132080078125,0.1989624947309494,-0.05101250112056732,1.5871624946594238
1772402090533188600,1.249188720703125,-0.31556248664855957,0.9855999946594238,0.48454999923706055
1772402090553245400,1.269245361328125,-0.9185000061988831,2.161637544631958,-0.5508249998092651
1772402090573302000,1.289302001953125,-1.105912446975708,2.1924374103546143,-0.44756248593330383
1772402090593358600,1.309358642578125,-0.7778375148773193,1.631024956703186,0.21834999322891235
1772402090613415200,1.329415283203125,-0.202674999833107,1.3520375490188599,0.7786625027656555
1772402090633471700,1.3494716796875,0.2532750070095062,1.188962459564209,1.4284875392913818
1772402090653528300,1.3695283203125,0.3928374946117401,0.9748749732971191,1.8034499883651733
1772402090673585200,1.389585205078125,0.45883750915527344,0.5658124685287476,1.7639875411987305
1772402090693641700,1.409641845703125,0.517549991607666,0.17173749208450317,1.6521999835968018
1772402090713698300,1.4296982421875,0.6452875137329102,-0.14891250431537628,1.6596249341964722
1772402090733755000,1.4497548828125,0.8456249833106995,-0.46956250071525574,1.7117375135421753
1772402090753811500,1.4698115234375,0.9468249678611755,-0.8105624914169312,1.698949933052063
1772402090773868300,1.489868408203125,0.9638749957084656,-0.9831249713897705,1.4422374963760376
1772402090793924900,1.5099248046875,1.0724999904632568,-0.988349974155426,0.9011750221252441
1772402090813981400,1.5299814453125,1.226912498474121,-0.88714998960495,0.2886124849319458
1772402090834038000,1.5500380859375,1.2641749382019043,-0.9820249676704407,-0.14492499828338623
1772402090854094800,1.5700947265625,1.2322750091552734,-1.3026750087738037,-0.3548874855041504
1772402090874151400,1.5901513671875,1.1512874364852905,-1.5455000400543213,-0.30896249413490295
1772402090894208000,1.6102080078125,0.9809250235557556,-1.7191624641418457,-0.7671124935150146
1772402090914264800,1.630264892578125,0.8243125081062317,-0.5335000157356262,-2.610987424850464
1772402090934321400,1.6503212890625,0.6569749712944031,-0.07012499868869781,-2.5438873767852783
1772402090954378000,1.6703779296875,0.4866124987602234,-0.6432250142097473,-1.1548625230789185
1772402090974434600,1.6904345703125,0.047712501138448715,0.49334999918937683,0.3801875114440918
1772402090994491100,1.7104912109375,-0.4796000123023987,1.3125749826431274,3.178725004196167
1772402091014547700,1.730547607421875,-1.0069124698638916,0.7138999700546265,5.098225116729736
1772402091034604300,1.750604248046875,-0.909974992275238,0.08538749814033508,3.8104000091552734
1772402091054661000,1.7706611328125,-0.2441999912261963,0.5807999968528748,1.0800625085830688
1772402091074717700,1.7907177734375,0.028599999845027924,1.179474949836731,-1.0909249782562256
1772402091094774300,1.810774169921875,-0.089649997651577,1.3338874578475952,-1.7513375282287598
1772402091114830800,1.830830810546875,-0.4039750099182129,0.9695125222206116,-1.3880624771118164
1772402091134887400,1.850887451171875,-0.5094375014305115,0.2974124848842621,-0.7244874835014343
1772402091154944000,1.870944091796875,-0.4295499920845032,-0.27252501249313354,-0.469837486743927
1772402091175000600,1.89100048828125,-0.18658749759197235,-0.48454999923706055,-0.5689749717712402
1772402091195057200,1.91105712890625,0.08387500047683716,-0.46956250071525574,-0.6914874911308289
1772402091215114000,1.931114013671875,0.14038750529289246,-0.4450874924659729,-0.7170624732971191
1772402091235170600,1.951170654296875,0.17022499442100525,-0.4834499955177307,-0.6562874913215637
1772402091255227100,1.97122705078125,0.1872749924659729,-0.7071624994277954,-0.5869874954223633
1772402091275283700,1.99128369140625,0.14038750529289246,-0.8626750111579895,-0.6136624813079834
1772402091295340300,2.01134033203125,0.05939999967813492,-0.812624990940094,-0.6861249804496765
1772402091315397000,2.031397216796875,-0.03753750026226044,-0.5857499837875366,-0.6978124976158142
1772402091335453700,2.05145361328125,-0.04922499880194664,-0.341825008392334,-0.6744375228881836
1772402091355510300,2.07151025390625,-0.06833750009536743,-0.18411250412464142,-0.6509249806404114
1772402091375566800,2.09156689453125,-0.1163249984383583,-0.008387500420212746,-0.6168249845504761
1772402091395623400,2.11162353515625,-0.18658749759197235,0.05555000156164169,-0.523187518119812
1772402091415680300,2.13168017578125,-0.2899875044822693,0.07906249910593033,-0.3964124917984009
1772402091435736800,2.15173681640625,-0.3283500075340271,0.07796250283718109,-0.3398999869823456
1772402091455793400,2.17179345703125,-0.3123999834060669,0.042762499302625656,-0.31542500853538513
1772402091475850000,2.19185009765625,-0.2217874974012375,-0.028599999845027924,-0.23017500340938568
1772402091495906600,2.211906494140625,-0.0364375002682209,-0.2171124964952469,-0.04908749833703041
1772402091515963100,2.231963134765625,0.1340624988079071,-0.35887500643730164,0.3119874894618988
1772402091536019700,2.252019775390625,0.09459999948740005,-0.17022499442100525,0.6837875247001648
1772402091556076300,2.272076171875,-0.29961249232292175,0.24406249821186066,0.7317749857902527
1772402091576132900,2.2921328125,-0.6734749674797058,0.607337474822998,0.5262125134468079
1772402091596189700,2.312189697265625,-0.8855000138282776,0.80121248960495,0.22261250019073486
1772402091616246300,2.332246337890625,-0.6010124683380127,0.7022125124931335,-0.05444999784231186
1772402091636302800,2.352302734375,-0.18562500178813934,0.23663750290870667,0.13089999556541443
1772402091656359400,2.372359375,0.07218749821186066,-0.17668749392032623,0.6539499759674072
1772402091676416000,2.392416015625,0.3279374837875366,-0.5164499878883362,0.9447624683380127
1772402091696472600,2.41247265625,0.509987473487854,-0.4269374907016754,0.9277125000953674
1772402091716529200,2.432529052734375,0.683650016784668,-0.047712501138448715,0.7562500238418579
1772402091736586000,2.4525859375,0.720912516117096,0.24089999496936798,0.29397499561309814
1772402091756642300,2.472642333984375,0.5867124795913696,0.9492999911308289,-0.6754000186920166
1772402091776699000,2.492698974609375,0.22990000247955322,1.6619625091552734,-0.9087374806404114
1772402091796755500,2.51275537109375,0.03918749839067459,1.5192375183105469,-0.1545500010251999
1772402091816812000,2.53281201171875,0.15207499265670776,0.8076750040054321,1.0715374946594238
1772402091836868600,2.55286865234375,0.4834499955177307,0.18658749759197235,1.9046499729156494
1772402091856925400,2.572925537109375,1.007462501525879,-0.38967499136924744,2.359499931335449
1772402091876982000,2.59298193359375,1.209862470626831,-0.8317375183105469,2.460700035095215
1772402091897038600,2.61303857421875,1.209862470626831,-0.6315374970436096,1.7213624715805054
1772402091917095200,2.63309521484375,1.2226500511169434,-0.14258749783039093,0.5197499990463257
1772402091937151700,2.65315185546875,1.142762541770935,-0.09253749996423721,-0.2887499928474426
1772402091957208300,2.673208251953125,0.9766625165939331,-0.35241249203681946,-0.5167250037193298
1772402091977265200,2.69326513671875,0.8541499972343445,-0.6676999926567078,-0.4059000015258789
1772402091997321500,2.713321533203125,0.7433249950408936,-0.9447624683380127,-0.3217499852180481
1772402092017378300,2.73337841796875,0.6389625072479248,-1.0895500183105469,-0.40273749828338623
1772402092037435000,2.753434814453125,0.5867124795913696,-1.0405999422073364,-0.5902875065803528
1772402092057491500,2.773491455078125,0.7561125159263611,-0.8307750225067139,-0.644599974155426
1772402092077547800,2.7935478515625,1.2376375198364258,-0.8680375218391418,-0.3057999908924103
1772402092097604400,2.813604248046875,1.8554250001907349,-1.0192874670028687,-0.3708375096321106
1772402092117661200,2.8336611328125,1.1683374643325806,0.1929125040769577,0.25987499952316284
1772402092137717800,2.8537177734375,0.3746874928474426,0.10559999942779541,1.2516624927520752
1772402092157774300,2.8737744140625,0.4291374981403351,-0.0019249999895691872,0.3909125030040741
1772402092177831000,2.893830810546875,0.2063875049352646,1.5160750150680542,-0.9620875120162964
1772402092197887500,2.913887451171875,0.2256374955177307,1.2295249700546265,0.013749999925494194
1772402092217944000,2.933944091796875,0.14891250431537628,-0.005224999971687794,1.1886874437332153
1772402092238000600,2.954000732421875,-0.02681249938905239,-0.5803874731063843,0.9725375175476074
1772402092258057500,2.974057373046875,-0.048124998807907104,-0.20116250216960907,-0.1929125040769577
1772402092278113800,2.99411376953125,-0.13021250069141388,0.3932499885559082,-1.389162540435791
1772402092298170400,3.01417041015625,-0.18562500178813934,0.5391374826431274,-1.8653249740600586
1772402092318227000,3.03422705078125,-0.1504250019788742,0.2227499932050705,-1.6363874673843384
1772402092338283500,3.054283447265625,-0.048124998807907104,-0.13089999556541443,-1.131350040435791
1772402092358340000,3.074340087890625,0.1116499975323677,-0.19910000264644623,-0.8225250244140625
1772402092378396700,3.094396728515625,0.26496249437332153,-0.10642500221729279,-0.8768374919891357
1772402092398453200,3.114453369140625,0.33742499351501465,-0.14038750529289246,-0.9865624904632568
1772402092418509800,3.134509765625,0.2521750032901764,-0.2096875011920929,-1.0003124475479126
1772402092438566400,3.15456640625,0.045512501150369644,-0.16596250236034393,-0.9897249937057495
1772402092458623000,3.174623046875,-0.0705375000834465,-0.21078750491142273,-0.9737749695777893
1772402092478679600,3.194679443359375,-0.06407500058412552,-0.3694624900817871,-0.8959500193595886
1772402092498736000,3.214736083984375,-0.06833750009536743,-0.38651248812675476,-0.7521250247955322
1772402092518792700,3.234792724609375,-0.17710000276565552,-0.3119874894618988,-0.5955125093460083
1772402092538849300,3.254849365234375,-0.3283500075340271,-0.20762500166893005,-0.3973749876022339
1772402092558905600,3.274905517578125,-0.454025000333786,-0.16073749959468842,-0.2536875009536743
1772402092578962400,3.29496240234375,-0.5211250185966492,-0.1863124966621399,-0.22591249644756317
1772402092599019000,3.31501904296875,-0.5743374824523926,-0.08607500046491623,-0.12155000120401382
1772402092619075600,3.33507568359375,-0.6074749827384949,0.05555000156164169,0.13199999928474426
1772402092639132200,3.355132080078125,-0.5318499803543091,0.035337500274181366,0.40149998664855957
1772402092659188700,3.375188720703125,-0.6126999855041504,0.08744999766349792,0.645425021648407
1772402092679245000,3.3952451171875,-0.8758749961853027,0.4251500070095062,0.7892500162124634
1772402092699301600,3.415301513671875,-0.9323874711990356,0.8395749926567078,0.8861874938011169
1772402092719358500,3.4353583984375,-0.9418749809265137,1.0995874404907227,1.050225019454956
1772402092739415000,3.4554150390625,-0.9696499705314636,1.0334500074386597,0.9352750182151794
1772402092759471600,3.4754716796875,-0.9833999872207642,0.5743374824523926,0.5475249886512756
1772402092779528000,3.49552783203125,-0.9120374917984009,0.15468749403953552,0.19277499616146088
1772402092799584500,3.51558447265625,-0.7832000255584717,-0.047712501138448715,0.018012499436736107
1772402092819641000,3.53564111328125,-0.6362124681472778,-0.17132499814033508,0.06173750013113022
1772402092839697700,3.55569775390625,-0.3357749879360199,-0.22027499973773956,0.16073749959468842
1772402092859754200,3.575754150390625,-0.018287500366568565,-0.0424874983727932,-0.2503874897956848
1772402092879810800,3.595810791015625,0.07961250096559525,0.33467498421669006,-0.9737749695777893
1772402092899867100,3.6158671875,-0.16637499630451202,0.7980499863624573,-1.0451375246047974
1772402092919923700,3.635923828125,-0.32725000381469727,1.204912543296814,-0.1704999953508377
1772402092939980300,3.655980224609375,-0.11948750168085098,0.9887624979019165,1.1749374866485596
1772402092960036900,3.676036865234375,0.16706250607967377,0.24310000240802765,2.2188374996185303
1772402092980093400,3.696093505859375,0.40136250853538513,-0.6549124717712402,2.69073748588562
1772402093000150000,3.71614990234375,0.40562498569488525,-0.9692375063896179,2.4010250568389893
1772402093020206600,3.73620654296875,0.5388625264167786,-0.5783249735832214,1.3432375192642212
1772402093040263200,3.75626318359375,0.7539125084877014,-0.1905750036239624,0.26936250925064087
1772402093060319700,3.77631982421875,0.8476874828338623,-0.1116499975323677,-0.26743748784065247
1772402093080376000,3.7963759765625,0.8519499897956848,-0.35241249203681946,-0.30153748393058777
1772402093100432600,3.8164326171875,0.6921749711036682,-0.5803874731063843,-0.0789249986410141
1772402093120489200,3.8364892578125,0.6687999963760376,-0.6591749787330627,-0.016087500378489494
1772402093140545500,3.856545654296875,0.6879125237464905,-0.9212499856948853,-0.1396999955177307
1772402093160602400,3.876602294921875,0.564300000667572,-1.1716375350952148,-0.20350000262260437
1772402093180658700,3.89665869140625,0.36616250872612,-0.8339374661445618,-0.08098749816417694
1772402093200715500,3.916715576171875,0.32999998331069946,0.1237500011920929,0.24392500519752502
1772402093220772000,3.936772216796875,0.509987473487854,0.6573874950408936,0.5698000192642212
1772402093240828400,3.956828369140625,0.6676999926567078,0.16637499630451202,0.5271750092506409
1772402093260885000,3.976885009765625,0.5909749865531921,-0.5953750014305115,-0.03203750029206276
1772402093280941600,3.996941650390625,0.2947999835014343,-0.40039998292922974,-0.21738749742507935
1772402093300998100,4.016998046875,-0.11522500216960907,0.36877501010894775,0.6837875247001648
1772402093321054500,4.037054443359375,-0.5083374977111816,0.46997499465942383,1.3571250438690186
1772402093341111300,4.057111328125,-0.505174994468689,0.35282498598098755,0.8808249831199646
1772402093361167600,4.077167724609375,-0.3624500036239624,0.32394999265670776,-0.11302500218153
1772402093381224200,4.09722412109375,-0.34540000557899475,0.16417500376701355,-0.7341125011444092
1772402093401280800,4.11728076171875,-0.476437509059906,-0.06696250289678574,-0.9129999876022339
1772402093421337000,4.137337158203125,-0.5403749942779541,-0.10106249898672104,-0.8842625021934509
1772402093441394000,4.157393798828125,-0.5072374939918518,0.09171249717473984,-0.81826251745224
1772402093461450200,4.1774501953125,-0.44769999384880066,0.3293125033378601,-0.8267874717712402
1772402093481506800,4.1975068359375,-0.3144625127315521,0.4955500066280365,-0.8149625062942505
1772402093501563400,4.2175634765625,-0.16431249678134918,0.5274500250816345,-0.7074375152587891
1772402093521620000,4.237619873046875,-0.13021250069141388,0.4208875000476837,-0.6329125165939331
1772402093541676300,4.25767626953125,-0.19511249661445618,0.15895000100135803,-0.5678749680519104
1772402093561732900,4.27773291015625,-0.210099995136261,-0.16499999165534973,-0.4954124987125397
1772402093581789400,4.29778955078125,-0.19304999709129333,-0.2628999948501587,-0.5444999933242798
1772402093601845800,4.317845703125,-0.196212500333786,-0.18095000088214874,-0.6892874836921692
1772402093621902300,4.33790234375,-0.18232500553131104,-0.1574375033378601,-0.7031750082969666
1772402093641959000,4.357958984375,-0.1120624989271164,-0.11591249704360962,-0.4442625045776367
1772402093662015700,4.378015625,-0.089649997651577,-0.11275000125169754,-0.17902499437332153
1772402093682072000,4.398072021484375,-0.15358750522136688,-0.13722500205039978,-0.10986249893903732
1772402093702128600,4.418128662109375,-0.24310000240802765,-0.05953750014305115,-0.09707500040531158
1772402093722185200,4.438185302734375,-0.3166624903678894,0.05444999784231186,-0.1311749964952469
1772402093742241500,4.458241455078125,-0.29534998536109924,0.05555000156164169,-0.10023749619722366
1772402093762298000,4.478298095703125,-0.20157499611377716,-0.049912501126527786,0.06806249916553497
1772402093782355000,4.49835498046875,-0.21642500162124634,-0.07548750191926956,0.2928749918937683
1772402093802411300,4.518411376953125,-0.40933749079704285,0.11948750168085098,0.3525499999523163
1772402093822467800,4.5384677734375,-0.5455999970436096,0.26221248507499695,0.2513499855995178
1772402093842524400,4.5585244140625,-0.6830999851226807,0.2877874970436096,0.2055625021457672
1772402093862580700,4.578580810546875,-0.7385125160217285,0.2994749844074249,0.16609999537467957
1772402093882637300,4.59863720703125,-0.6351125240325928,0.24089999496936798,0.16183750331401825
1772402093902694000,4.61869384765625,-0.4241875112056732,0.1993750035762787,0.3119874894618988
1772402093922750200,4.638750244140625,-0.12058749794960022,0.06297499686479568,0.5751624703407288
1772402093942806800,4.658806884765625,0.04977500066161156,-0.07232499867677689,0.7562500238418579
1772402093962863000,4.678863037109375,0.11275000125169754,-0.04675000160932541,0.74566251039505
1772402093982919700,4.698919677734375,0.21175000071525574,0.027912499383091927,0.6539499759674072
1772402094002976300,4.718976318359375,0.3097875118255615,-0.05197500064969063,0.7093625068664551
1772402094023032800,4.73903271484375,0.3768875002861023,-0.10958749800920486,0.72861248254776
1772402094043089200,4.759089111328125,0.3172124922275543,0.3335750102996826,0.34718748927116394
1772402094063145700,4.779145751953125,0.16802500188350677,1.1633875370025635,-0.20776249468326569
1772402094083202300,4.799202392578125,0.005087499972432852,1.5831749439239502,-0.23333749175071716
1772402094103258600,4.819258544921875,0.020075000822544098,1.3179374933242798,0.23856249451637268
1772402094123315200,4.839315185546875,0.04881250113248825,0.8001124858856201,0.7317749857902527
1772402094143371800,4.859371826171875,0.13186250627040863,0.27719998359680176,1.0300124883651733
1772402094163428400,4.879428466796875,0.32147499918937683,-0.2704625129699707,1.141937494277954
1772402094183485000,4.89948486328125,0.4067249894142151,-0.554812490940094,0.9182249903678894
1772402094203541200,4.919541259765625,0.4045250117778778,-0.5857499837875366,0.258774995803833
1772402094223597800,4.939597900390625,0.40878748893737793,-0.5644375085830688,-0.524150013923645
1772402094243654400,4.959654296875,0.2554749846458435,-0.5761250257492065,-0.9789999723434448
1772402094263710700,4.979710693359375,-0.050324998795986176,-0.5431249737739563,-1.0536625385284424
1772402094283767300,4.999767333984375,-0.24199999868869781,-0.6272749900817871,-0.7808625102043152
1772402094303824000,5.019823974609375,-0.06943749636411667,-0.7423624992370605,-0.3973749876022339
1772402094323880400,5.03988037109375,0.12017499655485153,-0.7935125231742859,-0.7543249726295471
1772402094343937000,5.05993701171875,0.14781250059604645,0.196212500333786,-1.3678499460220337
1772402094363993300,5.079993408203125,0.4450874924659729,0.8597875237464905,-0.1821874976158142
1772402094384050000,5.1000498046875,0.4599374830722809,0.3091000020503998,1.1482625007629395
1772402094404106200,5.120106201171875,0.2287999987602234,-0.3513124883174896,1.0907875299453735
1772402094424162800,5.140162841796875,-0.13021250069141388,0.3357749879360199,0.7253124713897705
1772402094444219400,5.160219482421875,-0.4273499846458435,0.6925874948501587,0.6732000112533569
1772402094464275700,5.180275634765625,-0.48276248574256897,0.9151999950408936,0.4760249853134155
1772402094484332500,5.20033251953125,-0.3102000057697296,0.6297500133514404,0.14588749408721924
1772402094504388900,5.220388916015625,-0.22714999318122864,0.18548749387264252,-0.14918750524520874
1772402094524445400,5.240445556640625,-0.2377374917268753,-0.09363749623298645,-0.41442498564720154
1772402094544502000,5.260501953125,-0.3422375023365021,-0.18947499990463257,-0.6722375154495239
1772402094564558300,5.280558349609375,-0.468874990940094,-0.12333749979734421,-0.8277499675750732
1772402094584615000,5.300614990234375,-0.3965499997138977,0.04496249929070473,-0.8746374845504761
1772402094604671200,5.320671142578125,-0.1802625060081482,0.10779999941587448,-0.8149625062942505
1772402094624727800,5.340727783203125,-0.013062499463558197,0.040699999779462814,-0.6786999702453613
1772402094644784000,5.3607841796875,0.03712499886751175,-0.09363749623298645,-0.5721374750137329
1772402094664840700,5.3808408203125,0.021037500351667404,-0.24914999306201935,-0.5103999972343445
1772402094684897300,5.400897216796875,-0.013062499463558197,-0.38871249556541443,-0.5295125246047974
1772402094704953600,5.42095361328125,-0.0471624992787838,-0.4174500107765198,-0.6627500057220459
1772402094725010200,5.44101025390625,-0.04179999977350235,-0.27994999289512634,-0.7511624693870544
1772402094745066500,5.46106640625,0.007287499960511923,-0.32147499918937683,-0.7137625217437744
1772402094765123000,5.481123046875,0.09776250272989273,-0.48881250619888306,-0.5348749756813049
1772402094785179600,5.5011796875,0.16706250607967377,-0.5792874693870544,-0.29727500677108765
1772402094805236200,5.521236328125,0.055137500166893005,-0.5036625266075134,-0.08208750188350677
1772402094825292800,5.541292724609375,-0.19085000455379486,-0.36629998683929443,0.013749999925494194
1772402094845349000,5.56134912109375,-0.42844998836517334,-0.14464999735355377,-0.018149999901652336
1772402094865405700,5.58140576171875,-0.4998124837875366,0.14079999923706055,-0.02667500078678131
1772402094885462000,5.6014619140625,-0.42102500796318054,0.26647499203681946,0.14685000479221344
1772402094905518600,5.6215185546875,-0.3465000092983246,0.2718375027179718,0.4324375092983246
1772402094925575000,5.641574951171875,-0.5361124873161316,0.3772999942302704,0.5186499953269958
1772402094945631500,5.661631591796875,-0.7704125046730042,0.431612491607666,0.17352500557899475
1772402094965687800,5.681687744140625,-0.8151000142097473,0.4241875112056732,-0.06077500060200691
1772402094985744400,5.701744384765625,-0.8321499824523926,0.6265875101089478,0.14272500574588776
1772402095005801000,5.721801025390625,-0.6575250029563904,0.8119375109672546,0.33660000562667847
1772402095025857300,5.741857177734375,-0.34113749861717224,0.46777498722076416,0.3940750062465668
1772402095045913900,5.761913818359375,-0.17806249856948853,-0.08291249722242355,0.48454999923706055
1772402095065970400,5.781970458984375,-0.19511249661445618,-0.4908750057220459,0.4259749948978424
1772402095086026800,5.80202685546875,-0.19304999709129333,-0.4908750057220459,0.20019999146461487
1772402095106083300,5.822083251953125,-0.11096250265836716,-0.4408249855041504,0.03932499885559082
1772402095126140000,5.842139892578125,0.03382499888539314,-0.6528499722480774,0.10642500221729279
1772402095146196200,5.8621962890625,0.15950000286102295,-0.6198499798774719,-0.016087500378489494
1772402095166252800,5.882252685546875,0.2564375102519989,0.07150000333786011,-0.5806624889373779
1772402095186309000,5.90230908203125,0.02433750033378601,0.865149974822998,-1.1952874660491943
1772402095206365700,5.92236572265625,0.04124999791383743,0.8332499861717224,-1.0419750213623047
1772402095226422000,5.942422119140625,0.3236750066280365,0.2824249863624573,-0.26633748412132263
1772402095246478600,5.962478515625,0.4834499955177307,-0.32257500290870667,0.4558124840259552
1772402095266535000,5.982534912109375,0.683650016784668,-0.5665000081062317,0.6945124864578247
1772402095286591500,6.002591552734375,0.9127249717712402,-0.7508875131607056,0.5357000231742859
1772402095306647800,6.022647705078125,1.1438624858856201,-1.0203875303268433,0.5570124983787537
1772402095326704400,6.042704345703125,1.2205874919891357,-1.1279125213623047,0.38871249556541443
1772402095346760700,6.0627607421875,1.0448625087738037,-0.7764624953269958,-0.09281250089406967
1772402095366817300,6.0828173828125,0.8381999731063843,-0.26826250553131104,-0.3686375021934509
1772402095386873600,6.10287353515625,0.5909749865531921,-0.0658624991774559,-0.33880001306533813
1772402095406930200,6.12293017578125,0.42157500982284546,-0.14794999361038208,-0.22055000066757202
1772402095426986500,6.142986572265625,0.319412499666214,-0.25657498836517334,-0.07576250284910202
1772402095447043000,6.16304296875,0.29906249046325684,0.09391249716281891,-0.023512499406933784
1772402095467099400,6.183099365234375,0.4758875072002411,0.34952500462532043,-0.7511624693870544
1772402095487156000,6.203156005859375,0.8168874979019165,0.4049375057220459,-1.78763747215271
1772402095507212300,6.22321240234375,-0.042899999767541885,0.7383750081062317,-1.5224000215530396
1772402095527268900,6.243268798828125,-0.8960874676704407,1.363724946975708,0.9905499815940857
1772402095547325400,6.263325439453125,-0.781000018119812,1.6332249641418457,3.5600125789642334
1772402095567381800,6.2833818359375,-0.5020124912261963,1.0195624828338623,3.2117249965667725
1772402095587438300,6.303438232421875,-0.4071374833583832,0.9685499668121338,1.1556874513626099
1772402095607495000,6.323494873046875,-0.31872498989105225,0.9813374876976013,-1.0632874965667725
1772402095627551000,6.343551025390625,-0.2644124925136566,0.5083374977111816,-1.8738499879837036
1772402095647607800,6.36360791015625,-0.233474999666214,-0.2778874933719635,-1.389162540435791
1772402095667664100,6.3836640625,-0.04922499880194664,-0.8989750146865845,-0.5806624889373779
1772402095687720400,6.403720458984375,0.17338749766349792,-1.2142624855041504,-0.11838749796152115
1772402095707777000,6.423777099609375,0.4493499994277954,-1.1396000385284424,-0.11302500218153
1772402095727833300,6.443833251953125,0.6187499761581421,-0.7955750226974487,-0.4729999899864197
1772402095747890000,6.463889892578125,0.6048625111579895,-0.6155874729156494,-0.7085375189781189
1772402095767946200,6.4839462890625,0.41208750009536743,-0.6954749822616577,-0.6562874913215637
1772402095788002800,6.5040029296875,0.26496249437332153,-0.7347999811172485,-0.5699374675750732
1772402095808059100,6.52405908203125,0.2628999948501587,-0.7561125159263611,-0.6019750237464905
1772402095828115500,6.544115478515625,0.14464999735355377,-0.5740625262260437,-0.8438374996185303
1772402095848172000,6.564172119140625,-0.029012499377131462,-0.15001249313354492,-1.0844625234603882
1772402095868228400,6.584228271484375,-0.023649999871850014,-0.14891250431537628,-1.0590250492095947
1772402095888285000,6.604284912109375,0.06902500241994858,-0.49197500944137573,-0.8225250244140625
1772402095908341500,6.624341552734375,0.04881250113248825,-0.6048625111579895,-0.4624125063419342
1772402095928397800,6.644397705078125,-0.18562500178813934,-0.32903748750686646,-0.08208750188350677
1772402095948454400,6.664454345703125,-0.3624500036239624,-0.09253749996423721,0.007424999959766865
1772402095968511000,6.684510986328125,-0.4230875074863434,-0.14891250431537628,-0.1289750039577484
1772402095988567300,6.7045673828125,-0.5392749905586243,-0.20006249845027924,-0.19181250035762787
1772402096008623900,6.724623779296875,-0.5796999931335449,-0.10216250270605087,-0.006462499964982271
1772402096028680200,6.74468017578125,-0.6532624959945679,-0.043449997901916504,0.1979999989271164
1772402096048736500,6.764736572265625,-0.8864625096321106,-0.11701250076293945,-0.03629999980330467
1772402096068793000,6.78479296875,-1.0845999717712402,0.028875000774860382,-0.4081000089645386
1772402096088849400,6.804849365234375,-1.0643874406814575,0.4230875074863434,-0.42721250653266907
1772402096108906000,6.824906005859375,-0.7118374705314636,0.6851624846458435,0.032999999821186066
1772402096128962300,6.84496240234375,-0.20047499239444733,0.42198750376701355,0.7999749779701233
1772402096149019000,6.865018798828125,0.01677500084042549,0.07259999960660934,1.4134999513626099
1772402096169075200,6.8850751953125,-0.10889999568462372,0.15895000100135803,1.0885875225067139
1772402096189131500,6.905131591796875,-0.18768750131130219,0.5263500213623047,-0.016087500378489494
1772402096209188000,6.92518798828125,-0.25478750467300415,0.9609875082969666,-0.8991125226020813
1772402096229244400,6.945244384765625,-0.4636499881744385,1.121862530708313,-0.9055749773979187
1772402096249300700,6.96530078125,-0.7022125124931335,1.2412124872207642,-0.219587504863739
1772402096269357300,6.985357421875,-0.6681125164031982,1.2508374452590942,0.782925009727478
1772402096289413600,7.00541357421875,-0.48592498898506165,0.7107374668121338,1.529687523841858
1772402096309470200,7.02547021484375,-0.2303124964237213,0.24626250565052032,1.798087477684021
1772402096329526500,7.045526611328125,0.01677500084042549,0.06091250106692314,1.5604875087738037
1772402096349583000,7.0655830078125,0.1190750002861023,0.07479999959468842,0.94159996509552
1772402096369639400,7.085639404296875,0.2330625057220459,0.10023749619722366,0.3162499964237213
1772402096389695700,7.10569580078125,0.2512125074863434,-0.03396249935030937,-0.016087500378489494
1772402096409752300,7.12575244140625,0.2788499891757965,-0.22357499599456787,-0.08318749815225601
1772402096429809000,7.145808837890625,0.3746874928474426,-0.5112249851226807,-0.1396999955177307
1772402096449865200,7.165865234375,0.5803874731063843,-0.7881500124931335,-0.16307500004768372
1772402096469921800,7.185921875,0.6719624996185303,-0.8819249868392944,-0.3026374876499176
1772402096570204000,7.286203857421875,-0.010862499475479126,0.9631875157356262,-6.832650184631348
1772402096590260200,7.30626025390625,-0.11852499842643738,3.4878249168395996,-0.6872249841690063
1772402096610316500,7.326316650390625,0.09886249899864197,4.187699794769287,6.963550090789795
1772402096630373000,7.346373046875,-0.5691124796867371,0.559487521648407,9.823824882507324
1772402096650429400,7.366429443359375,-0.9290875196456909,-3.895512580871582,7.844512462615967
1772402096670485800,7.38648583984375,0.020075000822544098,-3.9935500621795654,3.4599125385284424
1772402096690542300,7.406542236328125,0.564300000667572,-0.5761250257492065,-0.2162874937057495
1772402096710598700,7.4265986328125,1.1523874998092651,1.389299988746643,-2.926412582397461
1772402096730655200,7.4466552734375,1.265275001525879,0.7959874868392944,-4.425162315368652
1772402096750711600,7.466711669921875,0.730537474155426,0.10779999941587448,-3.657087564468384
1772402096770768100,7.48676806640625,0.3704249858856201,0.506137490272522,-1.4414124488830566
1772402096790824400,7.506824462890625,0.2106499969959259,0.07369999587535858,0.5271750092506409
1772402096810880800,7.526880859375,0.1574375033378601,0.1652749925851822,1.8012499809265137
1772402096830937000,7.54693701171875,0.2139499932527542,0.08744999766349792,1.9089125394821167
1772402096850993700,7.56699365234375,0.3683624863624573,-0.009487500414252281,1.1673749685287476
1772402096871050000,7.587050048828125,0.38321250677108765,-0.008387500420212746,0.16183750331401825
1772402096891106600,7.6071064453125,0.5196124911308289,0.14190000295639038,-0.4399999976158142
1772402096911163000,7.627162841796875,0.6144874691963196,0.20143750309944153,-0.7628499865531921
1772402096931219200,7.64721923828125,0.6495500206947327,-0.16499999165534973,-0.7222874760627747
1772402096951275800,7.66727587890625,0.5665000081062317,-1.0278124809265137,-0.2642749845981598
1772402096971332000,7.68733203125,0.4801499843597412,-1.624424934387207,0.3801875114440918
1772402096991388400,7.707388427734375,-0.20473749935626984,-0.9553499817848206,0.3909125030040741
1772402097011445000,7.727445068359375,-0.48496249318122864,-0.3950375020503998,0.2480500042438507
1772402097031501300,7.747501220703125,-0.17806249856948853,0.0012374999932944775,-0.20143750309944153
1772402097051557600,7.7675576171875,0.4152500033378601,1.3509374856948853,-1.0664499998092651
1772402097071614200,7.7876142578125,0.5238749980926514,2.4012999534606934,-1.0898250341415405
1772402097091670500,7.80767041015625,0.2404875010251999,1.785575032234192,-0.35062500834465027
1772402097111726800,7.827726806640625,0.15427500009536743,0.7383750081062317,0.06599999964237213
1772402097131783400,7.847783447265625,0.23196250200271606,0.23127499222755432,-0.3782624900341034
1772402097151839700,7.86783984375,0.38651248812675476,0.09281250089406967,-1.1782374382019043
1772402097171896000,7.88789599609375,0.5014625191688538,0.5530250072479248,-1.6236000061035156
1772402097191952400,7.907952392578125,0.812624990940094,1.1496374607086182,-1.9494749307632446
1772402097212009000,7.928009033203125,0.564300000667572,0.04386249929666519,-1.6704875230789185
1772402097232065300,7.948065185546875,0.06159999966621399,-0.9809250235557556,-0.3760625123977661
1772402097252121600,7.96812158203125,0.07535000145435333,-1.6307499408721924,1.0885875225067139
1772402097272178200,7.98817822265625,0.006187499966472387,-1.7117375135421753,1.6425750255584717
1772402097292234500,8.008234375,-0.10889999568462372,-1.325087547302246,1.2025749683380127
1772402097312290800,8.028290771484375,0.008249999955296516,-1.0565500259399414,0.6252124905586243
1772402097332347400,8.048347412109376,0.1340624988079071,-0.4515500068664551,0.39297500252723694
1772402097352403700,8.06840380859375,0.4195125102996826,0.36024999618530273,0.03189999982714653
1772402097372460000,8.0884599609375,0.1798499971628189,0.6147624850273132,0.1905750036239624
1772402097392516600,8.1085166015625,-0.1504250019788742,0.6553249955177307,0.7562500238418579
1772402097412573000,8.128572998046875,-0.10353749990463257,0.5615500211715698,1.1130625009536743
1772402097432629200,8.148629150390626,0.05623750016093254,0.3889875113964081,1.0746999979019165
1772402097452685600,8.168685546875,0.13928750157356262,0.11522500216960907,0.8765624761581421
1772402097472742100,8.1887421875,0.10944999754428864,-0.3236750066280365,0.5900124907493591
1772402097492798500,8.208798583984375,0.05403750017285347,-0.5399624705314636,0.33660000562667847
1772402097512855000,8.22885498046875,0.2256374955177307,-0.6730625033378601,0.06599999964237213
1772402097532911400,8.248911376953124,0.3470500111579895,-0.5451874732971191,-0.27486249804496765
1772402097552967700,8.2689677734375,0.2628999948501587,-0.3353624939918518,-0.3111625015735626
1772402097573024000,8.28902392578125,0.1190750002861023,-0.5207124948501587,-0.3665750026702881
1772402097593080600,8.30908056640625,0.07961250096559525,-0.5377625226974487,-0.6338750123977661
1772402097613137000,8.329136962890624,0.2853125035762787,-0.20006249845027924,-0.56045001745224
1772402097633193200,8.349193115234375,0.6602749824523926,0.32298749685287476,-0.5497249960899353
1772402097653249500,8.36924951171875,1.3388375043869019,0.2579500079154968,-0.9684125185012817
1772402097673306000,8.38930615234375,0.032862499356269836,0.2857249975204468,1.115262508392334
1772402097693362400,8.409362548828126,-0.8610249757766724,1.0345499515533447,1.613837480545044
1772402097713418800,8.429418701171874,-1.1411124467849731,2.0465500354766846,0.9554874897003174
1772402097733475300,8.449475341796875,-1.0250624418258667,1.9857749938964844,0.6689375042915344
1772402097753531600,8.46953173828125,-0.7991499900817871,1.4158375263214111,-0.46131250262260437
1772402097773588200,8.489588134765626,-0.7214624881744385,0.652162492275238,-1.0909249782562256
1772402097793644500,8.50964453125,-0.5850625038146973,-0.10422500222921371,-1.0685124397277832
1772402097813700900,8.529700927734375,-0.4838624894618988,-0.8222500085830688,-1.0440374612808228
1772402097833757400,8.54975732421875,-0.45196250081062317,-1.181262493133545,-1.1633875370025635
1772402097853813800,8.569813720703126,0.045512501150369644,-1.034137487411499,-1.2017500400543213
1772402097873870000,8.5898701171875,0.45883750915527344,-1.0843249559402466,-0.9758374691009521
1772402097893926400,8.609926513671875,0.5696625113487244,-1.1716375350952148,-0.6573874950408936
1772402097913982700,8.629982666015625,0.42803749442100525,-1.0661749839782715,-0.6499624848365784
1772402097934039300,8.650039306640625,0.2927374839782715,-0.9916499853134155,-0.8149625062942505
1772402097954095600,8.670095703125,0.23100000619888306,-0.8882499933242798,-0.9365124702453613
1772402097974152000,8.69015185546875,0.25011250376701355,-0.8317375183105469,-0.8757374882698059
1772402097994208300,8.710208251953125,0.22343750298023224,-0.7103250026702881,-0.8672124743461609
1772402098014264800,8.730264892578125,0.24695000052452087,-0.49623748660087585,-0.8905875086784363
1772402098034321200,8.750321044921876,0.29163751006126404,-0.5900124907493591,-0.7213249802589417
1772402098054377500,8.77037744140625,0.25011250376701355,-0.7273749709129333,-0.432574987411499
1772402098074433800,8.790433837890625,0.12127500027418137,-0.6176499724388123,-0.07782500237226486
1772402098094490400,8.810490478515625,-0.016224998980760574,-0.25011250376701355,0.05321250110864639
1772402098114546400,8.83054638671875,-0.14506250619888306,-0.21931250393390656,-0.2162874937057495
1772402098134603000,8.85060302734375,-0.17173749208450317,0.05348749831318855,-0.35694998502731323
1772402098154659300,8.870659423828124,-0.24199999868869781,0.24089999496936798,-0.15991249680519104
1772402098174715600,8.890715576171875,-0.3431999981403351,0.2494249939918518,0.06173750013113022
1772402098194772000,8.91077197265625,-0.44769999384880066,0.3889875113964081,0.16926249861717224
1772402098214828500,8.93082861328125,-0.6660500168800354,0.8384749889373779,0.30992498993873596
1772402098234884900,8.950884765625,-0.854562520980835,1.048437476158142,0.27156248688697815
1772402098254941200,8.970941162109375,-0.781000018119812,0.7159624695777893,0.3003000020980835
1772402098274997500,8.99099755859375,-0.6564249992370605,0.23127499222755432,0.31735000014305115
1772402098295053800,9.0110537109375,-0.45512500405311584,-0.15001249313354492,0.5495874881744385
1772402098315110400,9.0311103515625,-0.196212500333786,-0.33329999446868896,1.022587537765503
1772402098335167000,9.0511669921875,-0.06201250106096268,0.012924999929964542,1.2494624853134155
1772402098355223300,9.071223388671875,-0.016224998980760574,0.03959999978542328,1.0279500484466553
1772402098375279600,9.091279541015625,-0.03437500074505806,-0.032862499356269836,0.4324375092983246
1772402098395336000,9.1113359375,-0.28036248683929443,0.28462499380111694,0.03726249933242798
1772402098415392300,9.131392333984374,-0.726687490940094,0.9450374841690063,0.37056249380111694
1772402098435448600,9.151448486328125,-0.8588249683380127,1.1602250337600708,0.9245499968528748
1772402098455505200,9.171505126953125,-0.7224249839782715,0.7320500016212463,1.0374374389648438
1772402098475561500,9.1915615234375,-0.40507498383522034,0.39214998483657837,0.9523249864578247
1772402098495618000,9.2116181640625,-0.09184999763965607,-0.1073874980211258,0.7999749779701233
1772402098515674000,9.231674072265625,0.14038750529289246,-0.4589749872684479,0.5964750051498413
1772402098535730700,9.251730712890625,0.4291374981403351,-0.334262490272522,0.46970000863075256
1772402098555787000,9.271787109375,0.5813499689102173,-0.47286251187324524,0.43353748321533203
1772402098575843000,9.291843017578126,0.5590749979019165,-0.5121874809265137,0.19910000264644623
1772402098595899600,9.311899658203124,0.7592750191688538,-0.4109874963760376,-0.10339999943971634
1772402098615956000,9.3319560546875,0.9351375102996826,-0.6028000116348267,-0.13007499277591705
1772402098636012300,9.35201220703125,0.8083624839782715,-0.6272749900817871,-0.17366249859333038
1772402098656068600,9.372068603515626,0.7006999850273132,-0.43656250834465027,-0.45925000309944153
1772402098676125200,9.392125244140624,0.6026625037193298,-0.18947499990463257,-0.9908249974250793
1772402098696181500,9.412181396484375,0.6154500246047974,0.1993750035762787,-1.189924955368042
1772402098716237800,9.43223779296875,0.48977500200271606,0.12911249697208405,0.08621250092983246
1772402098736294100,9.452294189453125,0.3279374837875366,0.08428750187158585,1.5849624872207642
1772402098756350500,9.4723505859375,0.02956249937415123,0.9535624980926514,1.9524999856948853
1772402098776406800,9.49240673828125,-0.3133625090122223,1.4031875133514404,1.7958874702453613
1772402098796463000,9.512463134765625,-0.0002749999985098839,-0.3162499964237213,0.7158250212669373
1772402098816519700,9.532519775390625,0.3609375059604645,-1.3782999515533447,0.06696250289678574
1772402098836576000,9.552575927734376,-0.04496249929070473,0.22605000436306,-0.43793749809265137
1772402098856632600,9.572632568359374,-0.15358750522136688,1.0579249858856201,-0.8149625062942505
1772402098876689000,9.59268896484375,-0.5062749981880188,0.5402374863624573,0.07452499866485596
1772402098896745200,9.6127451171875,-0.6873624920845032,0.20679999887943268,-0.3964124917984009
1772402098916801800,9.6328017578125,-0.45938751101493835,-0.06696250289678574,-1.79506254196167
1772402098936857900,9.65285791015625,-0.43271249532699585,-0.1297999918460846,-1.8024874925613403
1772402098956914200,9.6729140625,-0.2835249900817871,-0.021175000816583633,-1.0909249782562256
1772402098976970500,9.692970458984375,-0.06833750009536743,-0.05197500064969063,-0.5741999745368958
1772402098997027000,9.713027099609375,-0.00976249948143959,0.06833750009536743,-0.6488624811172485
1772402099017083400,9.73308349609375,-0.12168750166893005,0.23127499222755432,-0.9715750217437744
1772402099037140000,9.753139892578124,-0.2303124964237213,0.22384999692440033,-0.9204249978065491
1772402099057196000,9.773196044921875,-0.2942500114440918,0.16101250052452087,-0.7660124897956848
1772402099077252400,9.79325244140625,-0.3209249973297119,0.14822499454021454,-0.8427374958992004
1772402099097308700,9.81330859375,-0.3166624903678894,0.029975000768899918,-0.810699999332428
1772402099117365000,9.833364990234376,-0.3783999979496002,0.06833750009536743,-0.8043749928474426
1772402099137421300,9.85342138671875,-0.40603750944137573,0.1695374995470047,-0.8725749850273132
1772402099157477600,9.8734775390625,-0.3198249936103821,-0.04675000160932541,-0.5912500023841858
1772402099177534200,9.8935341796875,-0.24199999868869781,-0.055275000631809235,-0.3185875117778778
1772402099197590500,9.913590576171876,-0.2601499855518341,-0.021175000816583633,-0.2153249979019165
1772402099217646800,9.933646728515624,-0.40507498383522034,-0.09253749996423721,-0.08951249718666077
1772402099237703200,9.953703125,-0.5563250184059143,0.17489999532699585,-0.14918750524520874
1772402099257759500,9.973759521484375,-0.5413374900817871,0.27816250920295715,-0.21312500536441803
1772402099277815800,9.99381591796875,-0.44123750925064087,0.021449999883770943,0.004124999977648258
1772402099297872100,10.0138720703125,-0.3465000092983246,0.03959999978542328,0.21408750116825104
1772402099317928400,10.033928466796874,-0.467912495136261,0.12058749794960022,0.36739999055862427
1772402099337984800,10.05398486328125,-0.7309499979019165,0.23237499594688416,0.24392500519752502
1772402099358041000,10.074041015625,-0.734250009059906,0.4017750024795532,0.10436250269412994
1772402099378097400,10.094097412109376,-0.5489000082015991,0.5370749831199646,0.28971248865127563
1772402099398153700,10.11415380859375,-0.21326249837875366,0.5040749907493591,0.644462525844574
1772402099418210300,10.134210205078125,0.10202500224113464,-0.027499999850988388,0.9523249864578247
1772402099438266600,10.1542666015625,0.13186250627040863,-0.06696250289678574,0.9799624681472778
1772402099458323000,10.174322998046875,0.010449999943375587,0.4347749948501587,0.47712498903274536
1772402099478379300,10.194379150390626,-0.11742500215768814,0.5211250185966492,0.21931250393390656
1772402099498435600,10.214435546875,-0.1344749927520752,0.44866248965263367,0.2513499855995178
1772402099518492000,10.234491943359375,-0.031075000762939453,0.6499624848365784,0.41964998841285706
1772402099538548500,10.254548583984375,-0.033275000751018524,0.8481000065803528,0.8680375218391418
1772402099558604800,10.274604736328126,-0.03217500075697899,0.8640499711036682,1.0971125364303589
1772402099578661000,10.2946611328125,0.13296249508857727,0.9013124704360962,1.1226874589920044
1772402099598717400,10.314717529296875,0.11275000125169754,0.847000002861023,0.9202874898910522
1772402099618773800,10.334773681640625,0.17874999344348907,0.9301875233650208,0.5783249735832214
1772402099638830000,10.354830078125,0.4525125026702881,0.7480000257492065,0.5506874918937683
