time,seconds_elapsed,z,y,x
1772594481660851000,0.260850830078125,0.004922041669487953,0.0003990844707004726,-0.004922041669487953
1772594481680993000,0.280992919921875,-0.003325703786686063,-0.0005321126081980765,0.0015963378828018904
1772594481701287000,0.301286865234375,0.004389929119497538,-0.004123872611671686,-0.004123872611671686
1772594481721551000,0.321551025390625,-0.0037247883155941963,0.0007981689414009452,0
1772594481741814000,0.34181396484375,-0.0027935912366956472,-0.0022614786867052317,-0.00026605630409903824
1772594481762078000,0.362077880859375,0.0047890134155750275,-0.0019954221788793802,0.0007981689414009452
1772594481782342000,0.382341796875,-0.0018623941577970982,0.0013302814913913608,-0.0027935912366956472
1772594481802605000,0.40260498046875,-0.0031926757656037807,-0.0006651407456956804,0.004655985161662102
1772594481833001000,0.4330009765625,0.0011972533538937569,-0.004256900865584612,0.0017293660202994943
1772594481853265000,0.453264892578125,0.0006651407456956804,-0.0015963378828018904,0.0017293660202994943
1772594481873528000,0.473528076171875,0.14699611067771912,-0.21324412524700165,-0.46852514147758484
1772594481903924000,0.503924072265625,0.09311970323324203,-0.24769842624664307,-0.6321497559547424
1772594481924187000,0.524186767578125,0.011174364946782589,-0.11267484724521637,-0.6340121626853943
1772594481944451000,0.544451171875,-0.06997280567884445,-0.21909736096858978,-0.9852064847946167
1772594481964715000,0.564715087890625,-0.20100553333759308,-0.22960658371448517,-1.3200383186340332
1772594481995110000,0.59510986328125,-0.40214410424232483,-0.1459318846464157,-1.7648844718933105
1772594482015374000,0.6153740234375,-0.5230666995048523,-0.10735371708869934,-2.424304962158203
1772594482035638000,0.635637939453125,-0.30490052700042725,-0.07037189602851868,-3.120574474334717
1772594482055901000,0.65590087890625,0.3957587480545044,0.19528532028198242,-2.6132049560546875
1772594482076165000,0.6761650390625,0.9880000948905945,0.418639600276947,-1.2423498630523682
1772594482096429000,0.696428955078125,1.0997437238693237,0.021816616877913475,-0.6651407480239868
1772594482116692000,0.71669189453125,0.581865131855011,-0.7183520197868347,-0.9950505495071411
1772594482136956000,0.736955810546875,-0.0018623941577970982,-0.9494219422340393,-1.2319737672805786
1772594482157220000,0.75722021484375,-0.3567815124988556,-0.6725903153419495,-0.9270731806755066
1772594482197747000,0.797746826171875,-0.4457773268222809,-0.1416749805212021,-0.38325411081314087
1772594482218011000,0.818010986328125,-0.28773990273475647,-0.045096542686223984,-0.20060645043849945
1772594482238274000,0.838274169921875,-0.27257469296455383,-0.03804605081677437,-0.12198681384325027
1772594482258538000,0.8585380859375,-0.21523955464363098,-0.07422970980405807,-0.015298237092792988
1772594482278802000,0.878802001953125,-0.15351448953151703,-0.08646830171346664,0.06318837404251099
1772594482299065000,0.899065185546875,-0.2898683547973633,0.008779858238995075,0.16402371227741241
1772594482319329000,0.9193291015625,-0.31913453340530396,0.09870688617229462,0.19009722769260406
1772594482339593000,0.939593017578125,-0.2377213090658188,0.14779427647590637,0.19009722769260406
1772594482359856000,0.959856201171875,-0.11786293983459473,0.0883306935429573,0.1920926570892334
1772594482390252000,0.990251953125,-0.005321125965565443,0.004389929119497538,0.22814327478408813
1772594482410516000,1.010515869140625,0.17958800494670868,0.023146897554397583,0.22401940822601318
1772594482430779000,1.03077880859375,0.5616448521614075,0.13528962433338165,0.20925328135490417
1772594482451043000,1.05104296875,0.5922413468360901,0.1427392065525055,0.16216132044792175
1772594482471307000,1.07130712890625,0.4501672685146332,0.148193359375,0.11600054800510406
1772594482491570000,1.09156982421875,0.24596905708312988,0.12318406999111176,0.060394782572984695
1772594482511834000,1.111834228515625,0.1938220113515854,0.11679871380329132,0.056403934955596924
1772594482532098000,1.13209814453125,0.11600054800510406,0.12092258781194687,0.03525245934724808
1772594482552361000,1.15236083984375,0.043766263872385025,0.15564294159412384,0.0009311970788985491
1772594482572625000,1.172625,-0.001064225216396153,0.15763835608959198,-0.03166069835424423
1772594482592889000,1.19288916015625,-0.00026605630409903824,0.040972672402858734,-0.008247745223343372
1772594482613152000,1.213152099609375,-0.02168358862400055,-0.057867247611284256,-0.009844083338975906
1772594482633416000,1.233416015625,-0.00784866139292717,-0.26326271891593933,0.05454154312610626
1772594482653680000,1.25368017578125,0.022215701639652252,-0.3655613660812378,0.09804175049066544
1772594482673943000,1.273943115234375,0.01982119493186474,-0.36037325859069824,0.09099125862121582
1772594482694207000,1.29420703125,-0.001064225216396153,-0.22681300342082977,0.033124011009931564
1772594482714471000,1.314470947265625,-0.0039908443577587605,-0.10562435537576675,0.008513801731169224
1772594482734734000,1.334734130859375,-0.015032181516289711,-0.12491343170404434,-0.04868830367922783
1772594482754998000,1.354998046875,0.022481758147478104,-0.1761292666196823,-0.001064225216396153
1772594482775262000,1.375261962890625,0.005853238515555859,-0.04576168581843376,-0.00026605630409903824
1772594482795525000,1.395525146484375,0.05959661304950714,-0.09006005525588989,-0.04988555610179901
1772594482815789000,1.4157890625,0.045096542686223984,0.008513801731169224,-0.059463582932949066
1772594482836053000,1.436052978515625,0.026871686801314354,0.01849091239273548,-0.039110276848077774
1772594482856316000,1.45631591796875,0.047224994748830795,0.053477317094802856,-0.04562865570187569
1772594482876580000,1.476580078125,0.03285795450210571,0.038711193948984146,-0.029931334778666496
1772594482896844000,1.496843994140625,0.03285795450210571,0.12158773094415665,-0.0307295024394989
1772594482917107000,1.51710693359375,0.008513801731169224,0.031527671962976456,-0.007981688715517521
1772594482937371000,1.537370849609375,0.03538548946380615,0.10083533823490143,0.037513937801122665
1772594482957635000,1.557635009765625,0.01050922367721796,0.1367529332637787,0.013435843400657177
1772594482977898000,1.57789794921875,-0.0034587320405989885,0.15843652188777924,0.006784435827285051
1772594482998162000,1.598161865234375,-0.0005321126081980765,0.11493632197380066,0.024344151839613914
1772594483018426000,1.618426025390625,-0.0019954221788793802,0.13954652845859528,0.020220279693603516
1772594483038689000,1.63868896484375,-0.0039908443577587605,0.15298236906528473,0.005454154219478369
1772594483058953000,1.658952880859375,0.0017293660202994943,0.13981258869171143,0.021151475608348846
1772594483079217000,1.679216796875,0.0025275349617004395,0.06651407480239868,0.01569732278585434
1772594483099480000,1.69947998046875,0.04549562931060791,0.013568871654570103,0.1492575854063034
1772594483119744000,1.719743896484375,0.05906450003385544,-0.07542695850133896,0.18756969273090363
1772594483140008000,1.740008056640625,0.04735802114009857,-0.024344151839613914,0.1696108877658844
1772594483160271000,1.76027099609375,0.017160631716251373,0.0867343544960022,0.11440420895814896
1772594483180535000,1.78053515625,0.012504646554589272,0.09139034152030945,0.09844083338975906
1772594483200799000,1.800799072265625,0.02447718009352684,0.04429837316274643,0.11786293983459473
1772594483241326000,1.841326171875,0.021284503862261772,-0.008779858238995075,0.18637244403362274
1772594483261590000,1.861590087890625,0.004922041669487953,-0.05454154312610626,0.2524874210357666
1772594483281853000,1.88185302734375,-0.0005321126081980765,-0.04842224717140198,0.19821195304393768
1772594483302117000,1.9021171875,-0.014633096754550934,0.022481758147478104,0.22348730266094208
1772594483322381000,1.922381103515625,-0.04416534677147865,0.09298668056726456,0.270712286233902
1772594483342644000,1.94264404296875,-0.013568871654570103,-0.08527104556560516,0.30662989616394043
1772594483362908000,1.962907958984375,0.009977111592888832,-0.23905159533023834,0.3578457236289978
1772594483383172000,1.983172119140625,-0.013302815146744251,-0.19728074967861176,0.3231253921985626
1772594483403435000,2.00343505859375,-0.04589471220970154,-0.0521470345556736,0.20832209289073944
1772594483423699000,2.023698974609375,-0.06305534392595291,-0.009578026831150055,0.19169357419013977
1772594483443963000,2.043962890625,-0.06997280567884445,-0.0055871824733912945,0.18291370570659637
1772594483464226000,2.06422607421875,-0.09431695938110352,0.05587182566523552,0.14792729914188385
1772594483484490000,2.084489990234375,-0.11107850819826126,0.10841794312000275,0.11480329185724258
1772594483504754000,2.10475390625,-0.10828491300344467,0.11533540487289429,0.09804175049066544
1772594483525018000,2.12501806640625,-0.08274351060390472,0.05733513459563255,0.10575737804174423
1772594483545281000,2.145281005859375,-0.04895436018705368,-0.03990844637155533,0.12118864804506302
1772594483565545000,2.165544921875,-0.01915605366230011,-0.03817908093333244,0.06411956995725632
1772594483606072000,2.206072021484375,-0.021816616877913475,-0.034986402839422226,0.027669856324791908
1772594483626336000,2.2263359375,-0.02168358862400055,-0.11214273422956467,0.01636246219277382
1772594483646600000,2.246599853515625,-0.0055871824733912945,-0.029133165255188942,0.004256900865584612
1772594483666863000,2.266863037109375,-0.0014633096288889647,-0.007582604885101318,0.001064225216396153
1772594483687127000,2.287126953125,-0.0003990844707004726,-0.0019954221788793802,0.00026605630409903824
1772594483707391000,2.307390869140625,-0.00013302815204951912,-0.0005321126081980765,0.00013302815204951912
1772594483727654000,2.32765380859375,0.01556429360061884,-0.08700041472911835,0.0691746398806572
1772594483747918000,2.34791796875,0.055738795548677444,-0.15271632373332977,0.12345012277364731
1772594483768182000,2.36818212890625,0.07861963659524918,-0.20180371403694153,0.15843652188777924
1772594483788445000,2.38844482421875,0.08473893254995346,-0.18424399197101593,0.1580374389886856
1772594483808709000,2.408709228515625,0.1081518903374672,-0.18145039677619934,0.13795019686222076
1772594483828973000,2.42897314453125,0.028068939223885536,-0.04709196463227272,0.03578457236289978
1772594483849237000,2.449237060546875,0.1987440586090088,-0.14912456274032593,0.05839935690164566
1772594483869501000,2.4695009765625,0.18411096930503845,-0.1388813853263855,0.008114716969430447
1772594483889764000,2.48976416015625,0.1680145561695099,-0.12198681384325027,-0.04842224717140198
1772594483910028000,2.510028076171875,0.1229180097579956,-0.06438562273979187,-0.1125418171286583
1772594483930292000,2.5302919921875,0.10695463418960571,-0.09777569025754929,-0.1223858967423439
1772594483950555000,2.550554931640625,0.14340434968471527,-0.30051058530807495,-0.10682160407304764
1772594483970819000,2.570819091796875,0.16867969930171967,-0.28348299860954285,-0.15338145196437836
1772594483991083000,2.5910830078125,0.29625368118286133,-0.30024453997612,-0.240913987159729
1772594484011347000,2.611346923828125,0.2519553303718567,-0.35864388942718506,-0.40041473507881165
1772594484031610000,2.631610107421875,-0.03259189799427986,-0.6046129465103149,-0.7794119715690613
1772594484051874000,2.6518740234375,-0.24796447157859802,-0.8813115358352661,-1.0916290283203125
1772594484072138000,2.672137939453125,-0.2606021463871002,-0.8790500164031982,-1.0679500102996826
1772594484092401000,2.69240087890625,-0.22907447814941406,-0.7384392619132996,-0.8987382054328918
1772594484112665000,2.7126650390625,-0.19328990578651428,-0.604080855846405,-0.7240722179412842
1772594484132929000,2.732928955078125,-0.16934484243392944,-0.5659017562866211,-0.6215075254440308
1772594484153192000,2.75319189453125,-0.15058787167072296,-0.8161277174949646,-0.8391416072845459
1772594484173456000,2.773455810546875,-0.1322299838066101,-1.0148717164993286,-0.9939863681793213
1772594484193720000,2.793719970703125,-0.12451434880495071,-1.0248489379882812,-0.8146644234657288
1772594484213983000,2.81398291015625,-0.12850520014762878,-0.8843711614608765,-0.6501085758209229
1772594484234247000,2.834246826171875,-0.1311657577753067,-0.7288612723350525,-0.5318465232849121
1772594484254511000,2.854510986328125,-0.1394135057926178,-0.5754798054695129,-0.4435158669948578
1772594484274774000,2.87477392578125,-0.1503218114376068,-0.38179078698158264,-0.39655691385269165
1772594484295038000,2.895037841796875,-0.15790441632270813,-0.19475321471691132,-0.36742374300956726
1772594484315302000,2.915302001953125,-0.15923470258712769,-0.15630808472633362,-0.2914646863937378
1772594484335565000,2.93556494140625,-0.1553768813610077,-0.19142751395702362,-0.20379912853240967
1772594484355829000,2.9558291015625,-0.1487254798412323,-0.2986482083797455,-0.09790872037410736
1772594484376093000,2.976093017578125,-0.13648688793182373,-0.2951894700527191,-0.06225717440247536
1772594484396356000,2.996356201171875,-0.12012442201375961,-0.25341862440109253,-0.05241309106349945
1772594484416620000,3.0166201171875,-0.08912885934114456,-0.3462722897529602,0.01755971647799015
1772594484436884000,3.036884033203125,-0.03538548946380615,-0.39376333355903625,0.033789150416851044
1772594484457147000,3.05714697265625,0.0065183793194592,-0.4050707221031189,0.0070504918694496155
1772594484477411000,3.0774111328125,0.023013871163129807,-0.37407517433166504,-0.042169924825429916
1772594484497675000,3.097675048828125,0.0219496451318264,-0.17812469601631165,-0.13089969754219055
1772594484517938000,3.11793798828125,-0.029665278270840645,-0.040307529270648956,-0.23359742760658264
1772594484538202000,3.1382021484375,-0.37633663415908813,0.03432126343250275,-0.28946927189826965
1772594484558466000,3.158466064453125,-0.6273607611656189,-0.018756968900561333,-0.18836785852909088
1772594484578729000,3.17872900390625,-0.5722870826721191,-0.07369759678840637,-0.10828491300344467
1772594484598993000,3.198992919921875,-0.36569440364837646,-0.05374337360262871,-0.05999569594860077
1772594484619257000,3.219257080078125,-0.33443278074264526,0.11533540487289429,-0.14367040991783142
1772594484639520000,3.23952001953125,-0.2705792486667633,0.17745955288410187,-0.1427392065525055
1772594484659784000,3.259783935546875,-0.19954222440719604,0.16335856914520264,-0.09644541144371033
1772594484680048000,3.280048095703125,-0.1701430082321167,0.20353306829929352,-0.10083533823490143
1772594484700311000,3.30031103515625,-0.07090400159358978,0.10442709922790527,-0.04935344308614731
1772594484720575000,3.320574951171875,-0.08606921136379242,0.01662851870059967,0.03711485490202904
1772594484740839000,3.3408388671875,-0.03285795450210571,-0.09631238132715225,0.12704189121723175
1772594484761102000,3.36110205078125,0.04310112074017525,-0.012504646554589272,0.11187667399644852
1772594484781366000,3.381365966796875,0.037513937801122665,0.003059647511690855,0.06930766999721527
1772594484801630000,3.4016298828125,0.14473463594913483,-0.024078095331788063,0.19940920174121857
1772594484821893000,3.42189306640625,0.1438034325838089,-0.08952794969081879,0.23293229937553406
1772594484842157000,3.442156982421875,0.1706751137971878,-0.17187237739562988,0.3067629039287567
1772594484862421000,3.4624208984375,0.17466595768928528,-0.12065653502941132,0.2562122344970703
1772594484882684000,3.482683837890625,0.1849091351032257,-0.025541406124830246,0.18570730090141296
1772594484902948000,3.502947998046875,0.1861063838005066,-0.01476612500846386,0.17134025692939758
1772594484923212000,3.5232119140625,0.18331278860569,-0.015298237092792988,0.16721639037132263
1772594484943475000,3.543474853515625,0.17772561311721802,-0.010642251931130886,0.1575053334236145
1772594484963739000,3.56373876953125,0.08939491957426071,-0.005454154219478369,0.07875266671180725
1772594484984003000,3.584003173828125,0.1641567349433899,-0.07622513175010681,0.19195961952209473
1772594485004266000,3.604265869140625,0.1602989286184311,-0.02540837787091732,0.198078915476799
1772594485024530000,3.624530029296875,0.1053582951426506,0.2660562992095947,0.04709196463227272
1772594485044794000,3.644794189453125,0.06239020451903343,0.5403603315353394,-0.11945927888154984
1772594485065057000,3.66505712890625,0.03272492438554764,0.5319795608520508,-0.11812900006771088
1772594485085321000,3.685321044921875,0.015165209770202637,0.4419195353984833,-0.07183520495891571
1772594485105585000,3.7055849609375,0.009977111592888832,0.39110276103019714,-0.04669288173317909
1772594485125848000,3.72584814453125,0.01569732278585434,0.24743236601352692,0.008114716969430447
1772594485146112000,3.746112060546875,0.028334995731711388,0.16508793830871582,0.06066083908081055
1772594485166376000,3.7663759765625,0.04456442967057228,0.11028033494949341,0.07808752357959747
1772594485186639000,3.78663916015625,0.06265626102685928,0.1229180097579956,0.05148189514875412
1772594485206903000,3.806903076171875,0.07609210163354874,0.11972533911466599,0.04070661589503288
1772594485227167000,3.8271669921875,0.08700041472911835,0.1015004813671112,0.04083964228630066
1772594485247430000,3.847429931640625,0.04616076871752739,0.04895436018705368,0.020486336201429367
1772594485267694000,3.867694091796875,0.12531252205371857,0.022747814655303955,0.07156914472579956
1772594485287958000,3.8879580078125,0.03259189799427986,0.005853238515555859,0.018623940646648407
1772594485308222000,3.908221923828125,0.14673005044460297,-0.1646888554096222,0.1734687089920044
1772594485328485000,3.928485107421875,0.03804605081677437,-0.04270203784108162,0.045096542686223984
1772594485348749000,3.9487490234375,0.1471291333436966,-0.020885419100522995,0.08433984965085983
1772594485369013000,3.969012939453125,0.11613357812166214,0.006252323277294636,0.04363323375582695
1772594485389276000,3.98927587890625,0.06983978301286697,0.007582604885101318,0.022348729893565178
1772594485409540000,4.0095400390625,0.12744097411632538,-0.13196392357349396,0.10855097323656082
1772594485429804000,4.029803955078125,0.08886280655860901,-0.10256470739841461,0.08061505854129791
1772594485450067000,4.05006689453125,0.10083533823490143,-0.13954652845859528,0.10176653414964676
1772594485470331000,4.070330810546875,0.08420681953430176,-0.40852946043014526,0.25488194823265076
1772594485490595000,4.090594970703125,0.03631668537855148,-0.5182777047157288,0.3122170865535736
1772594485510858000,4.11085791015625,0.01569732278585434,-0.400015652179718,0.24876263737678528
1772594485531122000,4.131121826171875,-0.003325703786686063,-0.3606393337249756,0.22521665692329407
1772594485551386000,4.15138623046875,-0.003325703786686063,-0.13103273510932922,0.08221139758825302
1772594485571649000,4.17164892578125,-0.0009311970788985491,-0.034055206924676895,0.021284503862261772
1772594485591913000,4.191912841796875,-0.027536828070878983,0.1646888554096222,-0.00944499857723713
1772594485612177000,4.212177001953125,-0.009045914746820927,0.15072089433670044,-0.005853238515555859
1772594485632440000,4.232440185546875,-0.01982119493186474,0.2047303318977356,-0.012504646554589272
1772594485652704000,4.2527041015625,-0.03777999430894852,0.23891855776309967,-0.02288084290921688
1772594485672968000,4.272968017578125,-0.022215701639652252,0.12797307968139648,-0.013568871654570103
1772594485693231000,4.293231201171875,-0.03179372847080231,0.0872664675116539,0.03485337644815445
1772594485713495000,4.3134951171875,-0.021550560370087624,0.05015161260962486,0.02860105223953724
1772594485733759000,4.333759033203125,-0.0055871824733912945,0.0130367586389184,0.007449576631188393
1772594485754022000,4.35402197265625,-0.0014633096288889647,0.003325703786686063,0.0019954221788793802
1772594485774286000,4.3742861328125,-0.0003990844707004726,0.0009311970788985491,0.0005321126081980765
1772594485794550000,4.394550048828125,0.04749105125665665,0.012770703062415123,-0.04403231665492058
1772594485814813000,4.41481298828125,0.036582741886377335,0.00971105508506298,-0.03392218053340912
1772594485835077000,4.4350771484375,0.00944499857723713,0.0025275349617004395,-0.008779858238995075
1772594485855341000,4.455341064453125,-0.024078095331788063,-0.2848132848739624,0.08899583667516708
1772594485875604000,4.47560400390625,-0.06212414801120758,-0.3401529788970947,0.16894575953483582
1772594485895868000,4.495867919921875,-0.052945204079151154,-0.21617074310779572,0.12012442201375961
1772594485916132000,4.516132080078125,-0.05188097804784775,-0.166817307472229,0.10562435537576675
1772594485936395000,4.53639501953125,-0.03046344593167305,-0.14500068128108978,0.09524815529584885
1772594485956659000,4.556658935546875,-0.00784866139292717,-0.03764696791768074,0.02474323660135269
1772594485976923000,4.5769228515625,-0.0019954221788793802,-0.00971105508506298,0.0063853515312075615
1772594485997186000,4.59718603515625,-0.0005321126081980765,-0.0025275349617004395,0.0017293660202994943
1772594486017450000,4.617449951171875,-0.00013302815204951912,-0.0006651407456956804,0.0003990844707004726
1772594486037714000,4.6377138671875,0,-0.00013302815204951912,0.00013302815204951912
1772594486057977000,4.65797705078125,0,0,0
1772594486078241000,4.678240966796875,0.04948647320270538,-0.08686738461256027,0.0389772467315197
1772594486098505000,4.6985048828125,0.014633096754550934,0.04682590812444687,-0.06239020451903343
1772594486118768000,4.71876806640625,0.004655985161662102,0.04749105125665665,-0.05307823419570923
1772594486139032000,4.739031982421875,0.0011972533538937569,0.012371618300676346,-0.013834928162395954
1772594486159296000,4.7592958984375,-0.053876399993896484,-0.022747814655303955,-0.11866111308336258
1772594486179559000,4.779558837890625,-0.041637811809778214,-0.01915605366230011,-0.08939491957426071
1772594486199823000,4.799822998046875,-0.06358745694160461,-0.07689027488231659,-0.0702388659119606
1772594486220087000,4.820087158203125,-0.042169924825429916,-0.08008294552564621,0.003325703786686063
1772594486240350000,4.840349853515625,-0.04589471220970154,-0.12278498709201813,0.05281217768788338
1772594486260614000,4.86061376953125,-0.023146897554397583,-0.06824344396591187,0.0345873199403286
1772594486280878000,4.880878173828125,-0.005986266769468784,-0.017692744731903076,0.009045914746820927
1772594486321405000,4.921405029296875,0.12531252205371857,0.029399221763014793,0.05959661304950714
1772594486341669000,4.941669189453125,0.38498347997665405,0.08912885934114456,0.033789150416851044
1772594486361932000,4.96193212890625,0.22920750081539154,0.18623940646648407,-0.045362599194049835
1772594486382196000,4.982196044921875,0.09205548465251923,0.1877027153968811,-0.07223428785800934
1772594486402460000,5.0024599609375,-0.2085881382226944,0.24836355447769165,-0.11094547808170319
1772594486422723000,5.02272314453125,-0.37633663415908813,0.012770703062415123,0.011573448777198792
1772594486442987000,5.042987060546875,-0.3535888195037842,-0.05374337360262871,0.0433671772480011
1772594486463251000,5.0632509765625,-0.26432693004608154,-0.01476612500846386,0.01556429360061884
1772594486483514000,5.08351416015625,-0.2542167901992798,0.00026605630409903824,0.012504646554589272
1772594486503778000,5.103778076171875,-0.2212258130311966,0.011972533538937569,0.012903730385005474
1772594486524042000,5.1240419921875,-0.17745955288410187,-0.02447718009352684,0.029399221763014793
1772594486544305000,5.144304931640625,-0.13701899349689484,-0.09019308537244797,0.0609268918633461
1772594486564569000,5.164569091796875,-0.09910597652196884,-0.10456012934446335,0.06571590900421143
1772594486584833000,5.1848330078125,-0.061059921979904175,-0.1509869545698166,0.09099125862121582
1772594486605097000,5.205096923828125,-0.021550560370087624,-0.17918892204761505,0.10456012934446335
1772594486625360000,5.22535986328125,-0.004123872611671686,-0.09192245453596115,0.052945204079151154
1772594486645624000,5.2456240234375,0.08939491957426071,-0.03884422034025192,-0.03884422034025192
1772594486665888000,5.265887939453125,0.14513371884822845,0.0730324536561966,-0.13489054143428802
1772594486686151000,5.28615087890625,0.11094547808170319,0.27483615279197693,-0.20619364082813263
1772594486706415000,5.3064150390625,0.06212414801120758,0.4243597984313965,-0.2447717934846878
1772594486726679000,5.326678955078125,0.01476612500846386,0.29452434182167053,-0.133427232503891
1772594486746942000,5.34694189453125,-0.22840933501720428,0.25288650393486023,-0.08460590243339539
1772594486767206000,5.367205810546875,-0.7070446014404297,0.17320264875888824,-0.02860105223953724
1772594486787470000,5.387469970703125,-0.4566856324672699,0.06398653984069824,0.007316548377275467
1772594486807733000,5.40773291015625,-0.29997849464416504,0.07489485293626785,0.0031926757656037807
1772594486827997000,5.427996826171875,-0.14074379205703735,0.01942211017012596,0.03139464557170868
1772594486848261000,5.44826123046875,-0.06850949674844742,0.005055069923400879,0.023679010570049286
1772594486868524000,5.46852392578125,-0.017825772985816002,0.0013302814913913608,0.00611929502338171
1772594486888788000,5.4887880859375,-0.004655985161662102,0.0003990844707004726,0.0015963378828018904
1772594486909052000,5.509052001953125,0.0691746398806572,0.05188097804784775,0.05188097804784775
1772594486929315000,5.529315185546875,0.012770703062415123,0.10495921224355698,0.018091829493641853
1772594486949579000,5.5495791015625,-0.04203689470887184,0.14034469425678253,0.042169924825429916
1772594486969843000,5.569843017578125,0.058266330510377884,0.13249604403972626,0.06425260007381439
1772594486990106000,5.590106201171875,0.1575053334236145,0.11719780415296555,0.05467456951737404
1772594487010370000,5.6103701171875,0.15817047655582428,0.12438131868839264,0.005853238515555859
1772594487030634000,5.630634033203125,0.07582604885101318,0.06691315770149231,-0.00784866139292717
1772594487050897000,5.65089697265625,0.13542266190052032,0.011307393200695515,-0.007449576631188393
1772594487071161000,5.6711611328125,0.09405090659856796,-0.00013302815204951912,-0.0047890134155750275
1772594487091425000,5.691425048828125,0.19728074967861176,-0.06744527071714401,-0.021284503862261772
1772594487111688000,5.71168798828125,0.1553768813610077,-0.024078095331788063,-0.05440851300954819
1772594487131952000,5.7319521484375,0.11533540487289429,0.05813330411911011,-0.11520238220691681
1772594487152216000,5.752216064453125,0.08021597564220428,0.10855097323656082,-0.15444567799568176
1772594487172479000,5.77247900390625,0.04522957280278206,0.026206545531749725,-0.1037619560956955
1772594487192743000,5.792742919921875,0.02421112358570099,0.00572021072730422,-0.059463582932949066
1772594487213007000,5.813007080078125,0.006252323277294636,0.0014633096288889647,-0.015431265346705914
1772594487233270000,5.83327001953125,-0.06292231380939484,-0.004655985161662102,-0.10416104644536972
1772594487253534000,5.853533935546875,-0.11280786991119385,-0.052945204079151154,-0.07383062690496445
1772594487273798000,5.8737978515625,-0.12278498709201813,-0.09072519838809967,-0.01396795641630888
1772594487294061000,5.89406103515625,-0.06292231380939484,-0.050018586218357086,-0.0019954221788793802
1772594487314325000,5.914324951171875,-0.10549132525920868,-0.12797307968139648,-0.005321125965565443
1772594487334589000,5.9345888671875,-0.027403799816966057,-0.03325703740119934,-0.0013302814913913608
1772594487354852000,5.95485205078125,-0.1179959699511528,-0.10602343827486038,-0.020619364455342293
1772594487375116000,5.975115966796875,-0.08899583667516708,-0.1553768813610077,0.04070661589503288
1772594487395380000,5.9953798828125,-0.06079386547207832,-0.17546413838863373,0.05879844352602959
1772594487415643000,6.015642822265625,-0.03205978497862816,-0.1817164570093155,0.06451865285634995
1772594487435907000,6.035906982421875,-0.008380773477256298,-0.047224994748830795,0.016761546954512596
1772594487456171000,6.0561708984375,-0.002128450432792306,-0.01223859004676342,0.004389929119497538
1772594487476434000,6.076433837890625,-0.0005321126081980765,-0.0031926757656037807,0.001064225216396153
1772594487496698000,6.096697998046875,-0.00013302815204951912,-0.0007981689414009452,0.00026605630409903824
1772594487516962000,6.116962158203125,-0.020885419100522995,-0.014367040246725082,-0.12105561792850494
1772594487537225000,6.137224853515625,-0.02474323660135269,0.0686425268650055,-0.10136745125055313
1772594487557489000,6.157489013671875,-0.01636246219277382,0.05467456951737404,-0.061991117894649506
1772594487577753000,6.177753173828125,-0.004256900865584612,0.014234011992812157,-0.016096405684947968
1772594487598016000,6.19801611328125,-0.050018586218357086,0.12331710010766983,-0.10562435537576675
1772594487618280000,6.218280029296875,-0.05693604797124863,0.211381733417511,-0.1636246293783188
1772594487638544000,6.2385439453125,-0.02447718009352684,0.11520238220691681,-0.08553709834814072
1772594487658807000,6.25880712890625,-0.5765439867973328,0.14287222921848297,-0.12438131868839264
1772594487679071000,6.279071044921875,-0.607805609703064,0.02075239084661007,-0.04243598133325577
1772594487699335000,6.2993349609375,-0.20699180662631989,0.0063853515312075615,-0.01569732278585434
1772594487719598000,6.31959814453125,-0.16482187807559967,-0.03205978497862816,-0.016096405684947968
1772594487739862000,6.339862060546875,-0.22534969449043274,-0.2288084179162979,0.12039047479629517
1772594487760126000,6.3601259765625,0.2523544132709503,-0.39057064056396484,0.24956081807613373
1772594487780389000,6.38038916015625,0.774622917175293,-0.4012129008769989,0.2591388523578644
1772594487800653000,6.400653076171875,0.8402057886123657,-0.38604769110679626,0.2578085660934448
1772594487820917000,6.4209169921875,0.6942739486694336,-0.4457773268222809,0.2870747447013855
1772594487841180000,6.441179931640625,0.6962693333625793,-0.5556585788726807,0.31913453340530396
1772594487861444000,6.461444091796875,0.870536208152771,-0.5382319092750549,0.2644599676132202
1772594487881708000,6.4817080078125,1.2515288591384888,-0.49579593539237976,0.19834497570991516
1772594487901972000,6.501971923828125,1.4642409086227417,-0.4916720390319824,0.17094117403030396
1772594487922235000,6.52223486328125,1.1639963388442993,-0.7493475675582886,0.29053348302841187
1772594487942499000,6.5424990234375,0.4419195353984833,-1.1639963388442993,0.33443278074264526
1772594487962763000,6.562762939453125,-0.5784063935279846,-1.6217461824417114,0.12371618300676346
1772594487983026000,6.58302587890625,-2.568241596221924,-1.685599684715271,0.07250034064054489
1772594488003290000,6.6032900390625,-4.2725982666015625,-1.1528220176696777,-0.15950074791908264
1772594488023554000,6.623553955078125,-5.452425003051758,-0.5083005428314209,-0.4017450213432312
1772594488043817000,6.64381689453125,-5.819981575012207,-0.07622513175010681,-0.552332878112793
1772594488064081000,6.664080810546875,-5.387773036956787,0.22255609929561615,-0.75639808177948
1772594488084345000,6.684344970703125,-4.249052047729492,0.5859889984130859,-0.8359488844871521
1772594488104608000,6.70460791015625,-2.800907850265503,1.4299196004867554,-0.6889528036117554
1772594488124872000,6.724871826171875,-1.4352407455444336,2.6267738342285156,-0.5499383807182312
1772594488145136000,6.74513623046875,-0.2266799658536911,4.671416759490967,-0.4526948034763336
1772594488165399000,6.76539892578125,0.7344484329223633,8.127222061157227,-0.8580315709114075
1772594488185663000,6.7856630859375,0.6682004332542419,12.10529613494873,-1.6687051057815552
1772594488205927000,6.805927001953125,-0.7247373461723328,13.613967895507812,-1.725641131401062
1772594488226190000,6.826190185546875,-1.8082516193389893,11.683862686157227,-1.1345970630645752
1772594488246454000,6.8464541015625,-2.3784103393554688,8.740215301513672,-0.68230140209198
1772594488266718000,6.866718017578125,-2.716301918029785,6.362603664398193,-0.4935344457626343
1772594488286981000,6.886981201171875,-2.9121193885803223,4.670352458953857,-0.3941624164581299
1772594488307245000,6.9072451171875,-2.977169990539551,3.50209903717041,-0.33722636103630066
1772594488327509000,6.927509033203125,-3.1139230728149414,2.868885040283203,-0.15178512036800385
1772594488347772000,6.94777197265625,-3.0954320430755615,2.4205801486968994,0.7824715971946716
1772594488368036000,6.9680361328125,-2.9989867210388184,1.8889997005462646,1.7674120664596558
1772594488388300000,6.988300048828125,-2.8538529872894287,1.4089012145996094,2.0268168449401855
1772594488408563000,7.00856298828125,-2.533255100250244,0.9824128746986389,2.1018447875976562
1772594488428827000,7.028826904296875,-2.069918155670166,0.6293562054634094,2.031073808670044
1772594488449091000,7.049091064453125,-1.5763835906982422,0.3946945369243622,1.7380127906799316
1772594488469354000,7.06935400390625,-1.000504732131958,0.2354598343372345,1.909087061882019
1772594488489618000,7.089617919921875,-0.47890135645866394,0.14899152517318726,2.082688808441162
1772594488509882000,7.109882080078125,-0.0905921682715416,0.11560146510601044,2.2648043632507324
1772594488530145000,7.13014501953125,0.11613357812166214,0.09125731140375137,2.3267953395843506
1772594488550409000,7.150408935546875,0.3178042471408844,0.052280064672231674,2.4358785152435303
1772594488570673000,7.1706728515625,0.41970381140708923,0.0872664675116539,2.391979217529297
1772594488590936000,7.19093603515625,0.48448851704597473,0.12451434880495071,1.9871745109558105
1772594488611200000,7.211199951171875,0.6042138934135437,0.1641567349433899,1.6676409244537354
1772594488631464000,7.2314638671875,0.7393704652786255,0.23013870418071747,1.8517519235610962
1772594488651727000,7.25172705078125,0.7614531517028809,0.2798912227153778,1.931967854499817
1772594488671991000,7.271990966796875,0.662746250629425,0.2721756100654602,1.5793101787567139
1772594488692255000,7.2922548828125,0.5233327746391296,0.25115716457366943,1.1820881366729736
1772594488712518000,7.312517822265625,0.28082242608070374,0.4231625497341156,0.8528434634208679
1772594488732782000,7.332781982421875,-0.07609210163354874,0.7839348912239075,0.6071404814720154
1772594488753046000,7.3530458984375,-0.2739049792289734,0.7764853239059448,0.4622728228569031
1772594488773309000,7.373308837890625,-0.33789151906967163,0.5837275385856628,0.3875110149383545
1772594488793573000,7.393572998046875,-0.31248313188552856,0.40693312883377075,0.34161630272865295
1772594488813837000,7.413837158203125,-0.2844142019748688,0.26698750257492065,0.28361600637435913
1772594488834100000,7.434099853515625,-0.3197996914386749,0.16894575953483582,0.20818905532360077
1772594488854364000,7.454364013671875,-0.35092827677726746,0.09963808953762054,0.11533540487289429
1772594488874628000,7.474628173828125,-0.44843789935112,0.07675724476575851,0.060128726065158844
1772594488894891000,7.49489111328125,-0.47836923599243164,0.04137175530195236,0.010110139846801758
1772594488915155000,7.515155029296875,-0.43327268958091736,0.007715632673352957,-0.016894575208425522
1772594488935419000,7.5354189453125,-0.3464052975177765,-0.00971105508506298,-0.020885419100522995
1772594488955682000,7.55568212890625,-0.16016589105129242,-0.006784435827285051,-0.009977111592888832
1772594488975946000,7.575946044921875,-0.11706477403640747,0.050417669117450714,0.025807460770010948
1772594488996210000,7.5962099609375,-0.06877555698156357,0.03964238986372948,0.021151475608348846
1772594489016473000,7.61647314453125,0.09205548465251923,0.14806033670902252,0.08567012846469879
1772594489036737000,7.636737060546875,0.17745955288410187,0.18012011051177979,0.09178942441940308
1772594489057001000,7.6570009765625,0.2814875841140747,0.23027172684669495,0.10176653414964676
1772594489077264000,7.677263916015625,0.32405656576156616,0.25873976945877075,0.11041336506605148
1772594489097528000,7.697528076171875,0.29598763585090637,0.25155624747276306,0.11586751788854599
1772594489117792000,7.7177919921875,0.3501301109790802,0.30875834822654724,0.17519807815551758
1772594489138055000,7.738054931640625,0.34228143095970154,0.26592326164245605,0.21111567318439484
1772594489158319000,7.758319091796875,0.40480467677116394,0.2572764456272125,0.40520375967025757
1772594489178583000,7.7785830078125,0.418905645608902,0.24517089128494263,0.5608466863632202
1772594489198847000,7.798846923828125,0.32073086500167847,0.19169357419013977,0.7131639122962952
1772594489219110000,7.81910986328125,0.21710194647312164,0.12557858228683472,0.9898625016212463
1772594489239374000,7.8393740234375,0.13089969754219055,0.07502787560224533,0.8338204622268677
1772594489259638000,7.859637939453125,0.004655985161662102,0.016096405684947968,0.3787311613559723
1772594489279901000,7.87990087890625,-0.17706046998500824,-0.054807599633932114,0.198078915476799
1772594489300165000,7.9001650390625,-0.24876263737678528,-0.07835358381271362,0.1515190601348877
1772594489320429000,7.920428955078125,-0.23918461799621582,-0.08633527159690857,0.15989984571933746
1772594489340692000,7.94069189453125,-0.2184322327375412,-0.12491343170404434,0.17373476922512054
1772594489360956000,7.960955810546875,-0.19501927495002747,-0.16867969930171967,0.15870258212089539
1772594489381220000,7.98122021484375,-0.22255609929561615,-0.2590058147907257,0.14287222921848297
1772594489401483000,8.00148291015625,-0.17546413838863373,-0.2580746114253998,0.0730324536561966
1772594489421747000,8.021746826171874,-0.14074379205703735,-0.2712444067001343,0.040041472762823105
1772594489442011000,8.042010986328124,-0.07888569682836533,-0.2572764456272125,0.036848798394203186
1772594489462274000,8.062274169921874,-0.05121583864092827,-0.25155624747276306,0.03777999430894852
1772594489482538000,8.0825380859375,-0.09099125862121582,-0.2693819999694824,0.028334995731711388
1772594489502802000,8.102802001953124,-0.17652836441993713,-0.29292798042297363,0.007582604885101318
1772594489523065000,8.123065185546874,-0.1959504634141922,-0.24157913029193878,-0.019555138424038887
1772594489543329000,8.1433291015625,-0.19954222440719604,-0.21909736096858978,-0.04735802114009857
1772594489563593000,8.163593017578124,-0.1415419578552246,-0.15710625052452087,-0.06784436106681824
1772594489583856000,8.183856201171874,-0.05959661304950714,-0.06811041384935379,-0.037513937801122665
1772594489604120000,8.2041201171875,0.021550560370087624,-0.01888999715447426,-0.1136060431599617
1772594489624384000,8.224384033203124,0.12145470082759857,0.08221139758825302,-0.09538118541240692
1772594489644647000,8.24464697265625,0.2414460927248001,0.17985406517982483,-0.0702388659119606
1772594489664911000,8.2649111328125,0.44418099522590637,0.32698318362236023,-0.056669991463422775
1772594489685175000,8.285175048828124,0.4759747385978699,0.3539879024028778,-0.03285795450210571
1772594489705438000,8.30543798828125,0.4483048617839813,0.37074947357177734,-0.030862530693411827
1772594489725702000,8.325701904296874,0.35478606820106506,0.34494200348854065,-0.024876264855265617
1772594489745966000,8.345966064453124,0.3099555969238281,0.33775848150253296,0.0005321126081980765
1772594489766229000,8.36622900390625,0.25820764899253845,0.3135473430156708,0.029931334778666496
1772594489786493000,8.386492919921874,0.20672574639320374,0.2619324326515198,0.052280064672231674
1772594489806757000,8.406757080078124,0.17213842272758484,0.2540837824344635,0.07635816186666489
1772594489827020000,8.42702001953125,0.08407378941774368,0.20486335456371307,0.08460590243339539
1772594489867548000,8.4675478515625,-0.09857386350631714,0.09830780327320099,0.09378484636545181
1772594489887811000,8.48781103515625,-0.2179001122713089,0.0395093597471714,0.0949821025133133
1772594489908075000,8.508074951171874,-0.2667214572429657,0.017825772985816002,0.09484907239675522
1772594489928339000,8.5283388671875,-0.2849462926387787,-0.00026605630409903824,0.08713343739509583
1772594489948602000,8.54860205078125,-0.27137744426727295,-0.011839505285024643,0.06904160976409912
1772594489968866000,8.568865966796874,-0.1327620893716812,-0.006784435827285051,0.03139464557170868
1772594489989130000,8.5891298828125,-0.29346010088920593,-0.05933055654168129,0.012903730385005474
1772594490009393000,8.609392822265624,-0.25701040029525757,-0.1097482219338417,-0.028201967477798462
1772594490029657000,8.629656982421874,-0.15883561968803406,-0.07662421464920044,-0.023412954062223434
1772594490049921000,8.649921142578124,-0.3401529788970947,-0.21696890890598297,-0.08899583667516708
1772594490070184000,8.670183837890624,-0.26312968134880066,-0.18451005220413208,-0.09484907239675522
1772594490090448000,8.69044775390625,-0.1696108877658844,-0.1344914585351944,-0.10522526502609253
1772594490110712000,8.710712158203124,-0.1213216781616211,-0.10655555129051208,-0.11187667399644852
1772594490130975000,8.73097509765625,-0.1097482219338417,-0.10189956426620483,-0.10855097323656082
1772594490151239000,8.751239013671874,-0.1185280829668045,-0.09471604228019714,-0.11959230899810791
1772594490171503000,8.771503173828124,-0.09790872037410736,-0.06292231380939484,-0.14420251548290253
1772594490191766000,8.79176611328125,-0.0862022414803505,-0.05015161260962486,-0.16176223754882812
1772594490212030000,8.812030029296874,-0.06944069266319275,-0.04616076871752739,-0.15404659509658813
1772594490232294000,8.8322939453125,-0.009178942069411278,-0.025807460770010948,-0.13209696114063263
1772594490262689000,8.86268896484375,0.058532387018203735,-0.016096405684947968,-0.12863822281360626
1772594490282953000,8.882952880859374,-0.03618365898728371,-0.05986266955733299,-0.14792729914188385
1772594490303217000,8.903216796875,-0.15138603746891022,-0.10336287319660187,-0.17626230418682098
