time,seconds_elapsed,z,y,x
1772594481680993000,0.280992919921875,5.771821975708008,-7.5016326904296875,4.120720386505127
1772594481701287000,0.301286865234375,5.732017993927002,-7.48726749420166,4.104559421539307
1772594481721551000,0.321551025390625,5.685331344604492,-7.4764933586120605,4.06894588470459
1772594481741814000,0.34181396484375,5.654505729675293,-7.4752960205078125,4.0638580322265625
1772594481762078000,0.362077880859375,5.623082160949707,-7.45913553237915,4.02465295791626
1772594481782342000,0.382341796875,5.586271286010742,-7.451354026794434,3.9974191188812256
1772594481802605000,0.40260498046875,5.536890506744385,-7.445967197418213,3.9701850414276123
1772594481843133000,0.4431328125,4.632481098175049,-7.368454933166504,3.8821980953216553
1772594481863396000,0.46339599609375,4.646546840667725,-7.325658798217773,3.8331170082092285
1772594481883660000,0.483659912109375,4.632780075073242,-7.301417350769043,3.775057554244995
1772594481903924000,0.503924072265625,4.54688835144043,-7.248744964599609,3.7642836570739746
1772594481924187000,0.524186767578125,3.504213571548462,-7.204751491546631,3.7624878883361816
1772594481944451000,0.544451171875,3.47039532661438,-7.203554153442383,3.809474229812622
1772594481964715000,0.564715087890625,2.4525604248046875,-7.181407928466797,3.8325183391571045
1772594482005242000,0.6052421875,1.1914145946502686,-8.030152320861816,3.8941690921783447
1772594482025506000,0.625506103515625,1.2931681871414185,-8.059481620788574,3.0995934009552
1772594482045769000,0.64576904296875,2.484882116317749,-8.094796180725098,3.0307600498199463
1772594482066033000,0.666032958984375,2.5207951068878174,-8.878896713256836,3.0307600498199463
1772594482086297000,0.686297119140625,1.6549919843673706,-10.257658004760742,4.163815975189209
1772594482106560000,0.70656005859375,1.6546926498413086,-11.282076835632324,5.077203750610352
1772594482126824000,0.726823974609375,1.7154455184936523,-10.35522174835205,5.052962779998779
1772594482147088000,0.747087890625,1.7767969369888306,-10.36569595336914,5.087080001831055
1772594482167351000,0.76735107421875,1.820790410041809,-10.350133895874023,5.098153114318848
1772594482207879000,0.80787890625,1.9063831567764282,-10.286388397216797,5.123591423034668
1772594482228143000,0.82814306640625,1.9458874464035034,-10.24000072479248,5.111321449279785
1772594482248406000,0.848406005859375,1.9892823696136475,-10.193014144897461,5.0876784324646
1772594482268670000,0.868669921875,2.02579402923584,-9.465775489807129,5.057751178741455
1772594482288934000,0.888933837890625,2.0724809169769287,-9.444228172302246,4.999691486358643
1772594482309197000,0.909197021484375,2.115875720977783,-9.411307334899902,4.926967620849609
1772594482329461000,0.9294609375,2.160168409347534,-9.362525939941406,4.870105743408203
1772594482349725000,0.949724853515625,2.1787235736846924,-9.311649322509766,4.804265022277832
1772594482369988000,0.969988037109375,2.197577953338623,-9.273940086364746,4.73303747177124
1772594482390252000,0.990251953125,2.206855535507202,-9.23563289642334,3.965695858001709
1772594482410516000,1.010515869140625,2.214038133621216,-9.201216697692871,3.9704842567443848
1772594482430779000,1.03077880859375,2.2170307636260986,-9.176376342773438,3.9845502376556396
1772594482451043000,1.05104296875,2.2206220626831055,-9.152434349060059,4.016871929168701
1772594482471307000,1.07130712890625,2.2281038761138916,-9.133580207824707,4.041711807250977
1772594482491570000,1.09156982421875,2.2245125770568848,-9.116521835327148,4.062361717224121
1772594482511834000,1.111834228515625,2.236783027648926,-9.102156639099121,4.083011627197266
1772594482532098000,1.13209814453125,2.2131402492523193,-9.086295127868652,4.091391563415527
1772594482552361000,1.15236083984375,2.1942858695983887,-9.07103157043457,4.103362560272217
1772594482572625000,1.172625,2.1676504611968994,-9.05367374420166,4.133289813995361
1772594482592889000,1.19288916015625,2.1499931812286377,-9.039608001708984,4.151545524597168
1772594482613152000,1.213152099609375,2.135328531265259,-9.042900085449219,4.157830715179443
1772594482633416000,1.233416015625,2.1098902225494385,-9.040804862976074,4.168604373931885
1772594482653680000,1.25368017578125,2.097919225692749,-9.036615371704102,4.1862616539001465
1772594482673943000,1.273943115234375,2.075174331665039,-9.025242805480957,4.187757968902588
1772594482694207000,1.29420703125,2.0605099201202393,-9.010278701782227,4.172794342041016
1772594482714471000,1.314470947265625,2.04315185546875,-8.992920875549316,4.155735492706299
1772594482734734000,1.334734130859375,2.0428526401519775,-8.983942985534668,4.135385036468506
1772594482754998000,1.354998046875,2.029684543609619,-8.983344078063965,4.120121955871582
1772594482775262000,1.375261962890625,2.025195360183716,-8.986037254333496,4.099771022796631
1772594482795525000,1.395525146484375,2.0281882286071777,-8.97765827178955,4.090792655944824
1772594482815789000,1.4157890625,2.0281882286071777,-8.97765827178955,4.078821659088135
1772594482836053000,1.436052978515625,2.049436569213867,-8.97077465057373,4.06894588470459
1772594482856316000,1.45631591796875,2.062305450439453,-8.977059364318848,4.069244861602783
1772594482876580000,1.476580078125,2.085050344467163,-8.981847763061523,4.0743327140808105
1772594482896844000,1.496843994140625,2.099714994430542,-8.972869873046875,4.071639060974121
1772594482917107000,1.51710693359375,2.1215620040893555,-8.976161003112793,4.060565948486328
1772594482937371000,1.537370849609375,2.1422119140625,-8.967782020568848,4.0563764572143555
1772594482957635000,1.557635009765625,2.153285264968872,-8.955810546875,4.061463832855225
1772594482977898000,1.57789794921875,2.1682488918304443,-8.96149730682373,4.055179119110107
1772594482998162000,1.598161865234375,2.1733365058898926,-8.960598945617676,4.045003890991211
1772594483018426000,1.618426025390625,2.1915924549102783,-8.947132110595703,4.037521839141846
1772594483038689000,1.63868896484375,2.232593059539795,-8.945934295654297,4.024952411651611
1772594483058953000,1.658952880859375,2.2655134201049805,-8.935160636901855,4.027047157287598
1772594483079217000,1.679216796875,2.3068132400512695,-8.930671691894531,4.021061897277832
1772594483099480000,1.69947998046875,2.3460183143615723,-8.940847396850586,4.011185646057129
1772594483119744000,1.719743896484375,2.3702597618103027,-8.933364868164062,4.018368244171143
1772594483140008000,1.740008056640625,2.386420488357544,-8.936357498168945,4.01268196105957
1772594483160271000,1.76027099609375,2.403778553009033,-8.940547943115234,4.012083530426025
1772594483180535000,1.78053515625,2.4567501544952393,-8.943241119384766,4.009389877319336
1772594483200799000,1.800799072265625,2.5025393962860107,-8.919299125671387,4.006397247314453
1772594483221062000,1.821061767578125,2.5405473709106445,-8.885480880737305,4.036324977874756
1772594483241326000,1.841326171875,2.5923218727111816,-8.85794734954834,4.028543472290039
1772594483261590000,1.861590087890625,2.657863140106201,-8.833407402038574,4.018068790435791
1772594483281853000,1.88185302734375,2.7066450119018555,-8.848072052001953,4.037521839141846
1772594483302117000,1.9021171875,2.7554268836975098,-8.831911087036133,4.054879665374756
1772594483322381000,1.922381103515625,2.7880477905273438,-8.803180694580078,4.084807395935059
1772594483342644000,1.94264404296875,2.829347848892212,-8.794800758361816,4.104858875274658
1772594483362908000,1.962907958984375,2.858377456665039,-8.784924507141113,4.120121955871582
1772594483383172000,1.983172119140625,2.884713888168335,-8.785822868347168,4.140472412109375
1772594483403435000,2.00343505859375,2.918531894683838,-8.775347709655762,4.1611223220825195
1772594483423699000,2.023698974609375,2.947561502456665,-8.7576904296875,4.18416690826416
1772594483443963000,2.043962890625,2.977189779281616,-8.742427825927734,4.1967363357543945
1772594483464226000,2.06422607421875,2.9987375736236572,-8.73344898223877,4.204816818237305
1772594483484490000,2.084489990234375,3.0131027698516846,-8.730156898498535,4.2200798988342285
1772594483504754000,2.10475390625,3.0202853679656982,-8.726266860961914,4.232050895690918
1772594483525018000,2.12501806640625,3.008314371109009,-8.731653213500977,4.250007152557373
1772594483545281000,2.145281005859375,2.9909565448760986,-8.739733695983887,4.250306606292725
1772594483565545000,2.165544921875,2.978386878967285,-8.757989883422852,4.2619781494140625
1772594483585809000,2.185808837890625,2.965817451477051,-8.768763542175293,4.292205333709717
1772594483606072000,2.206072021484375,2.9700071811676025,-8.787917137145996,4.2993879318237305
1772594483626336000,2.2263359375,2.990058660507202,-8.803778648376465,4.30058479309082
1772594483646600000,2.246599853515625,3.0086138248443604,-8.81515121459961,4.309263706207275
1772594483666863000,2.266863037109375,3.018190622329712,-8.819341659545898,4.2975921630859375
1772594483687127000,2.287126953125,3.037344217300415,-8.798990249633789,4.297891139984131
1772594483707391000,2.307390869140625,3.0541036128997803,-8.793004989624023,4.292803764343262
1772594483727654000,2.32765380859375,3.0615854263305664,-8.782829284667969,4.290110111236572
1772594483747918000,2.34791796875,3.0783448219299316,-8.7576904296875,4.2724528312683105
1772594483768182000,2.36818212890625,3.0639796257019043,-8.756793022155762,4.23893404006958
1772594483788445000,2.38844482421875,3.041533946990967,-8.761581420898438,4.210503101348877
1772594483808709000,2.408709228515625,3.034351348876953,-8.798990249633789,4.186860084533691
1772594483828973000,2.42897314453125,2.9975404739379883,-8.847772598266602,4.158129692077637
1772594483849237000,2.449237060546875,2.9577369689941406,-8.892065048217773,4.1425676345825195
1772594483869501000,2.4695009765625,2.9257144927978516,-8.932467460632324,4.168305397033691
1772594483889764000,2.48976416015625,2.8930935859680176,-8.961197853088379,4.167407512664795
1772594483910028000,2.510028076171875,2.8622682094573975,-9.012373924255371,4.206612586975098
1772594483930292000,2.5302919921875,2.803011655807495,-9.059659004211426,4.233547210693359
1772594483950555000,2.550554931640625,2.790142774581909,-9.851541519165039,4.288015365600586
1772594483970819000,2.570819091796875,2.7682957649230957,-9.857826232910156,4.318541526794434
1772594483991083000,2.5910830078125,1.9434932470321655,-9.799168586730957,4.338592529296875
1772594484011347000,2.611346923828125,1.0558429956436157,-8.65863037109375,4.334103584289551
1772594484031610000,2.631610107421875,1.0345944166183472,-8.576628684997559,4.298190593719482
1772594484051874000,2.6518740234375,0.978330671787262,-8.555081367492676,4.296993732452393
1772594484072138000,2.672137939453125,0.9600749015808105,-8.585607528686523,4.32991361618042
1772594484092401000,2.69240087890625,0.9139865040779114,-8.620023727416992,4.358345031738281
1772594484112665000,2.7126650390625,0.8394669890403748,-8.6182279586792,4.416703701019287
1772594484132929000,2.732928955078125,-0.030226796865463257,-8.645761489868164,4.449624061584473
1772594484153192000,2.75319189453125,-0.076015904545784,-8.675090789794922,4.488529682159424
1772594484173456000,2.773455810546875,-0.12060791254043579,-8.700828552246094,4.53761100769043
1772594484193720000,2.793719970703125,-0.19213469326496124,-8.727763175964355,4.572027206420898
1772594484213983000,2.81398291015625,-0.2513911724090576,-8.718485832214355,4.600159168243408
1772594484234247000,2.834246826171875,-0.2795230448246002,-8.705317497253418,4.631882667541504
1772594484254511000,2.854510986328125,-0.29897594451904297,-8.680477142333984,4.6612114906311035
1772594484274774000,2.87477392578125,-0.3199251890182495,-8.63558578491211,4.685452938079834
1772594484295038000,2.895037841796875,-0.3396773636341095,-8.566154479980469,4.6704888343811035
1772594484315302000,2.915302001953125,-0.35823243856430054,-8.506897926330566,4.665700435638428
1772594484335565000,2.93556494140625,-0.38067805767059326,-8.459013938903809,4.658218860626221
1772594484355829000,2.9558291015625,-0.39624038338661194,-8.41232681274414,4.649539470672607
1772594484376093000,2.976093017578125,-0.4034229815006256,-8.400056838989258,4.651036262512207
1772594484396356000,2.996356201171875,-0.4420294761657715,-8.40544319152832,4.615123271942139
1772594484416620000,3.0166201171875,-0.4935048222541809,-8.442852973937988,4.5935750007629395
1772594484436884000,3.036884033203125,-0.5653308629989624,-8.480561256408691,4.5947723388671875
1772594484457147000,3.05714697265625,-0.613214910030365,-8.518868446350098,4.619013786315918
1772594484477411000,3.0774111328125,-0.662894606590271,-8.555380821228027,4.659715175628662
1772594484497675000,3.097675048828125,-0.7140706777572632,-8.587103843688965,4.727052211761475
1772594484517938000,3.11793798828125,-0.734122097492218,-8.620023727416992,5.447706699371338
1772594484538202000,3.1382021484375,-0.7422025203704834,-8.651148796081543,5.477933406829834
1772594484558466000,3.158466064453125,-0.7502829432487488,-8.656535148620605,5.4985833168029785
1772594484578729000,3.17872900390625,-0.7374141216278076,-8.638877868652344,5.503970623016357
1772594484598993000,3.198992919921875,-0.7161656022071838,-8.611943244934082,5.509057998657227
1772594484619257000,3.219257080078125,-0.6988075971603394,-8.581417083740234,5.506065368652344
1772594484639520000,3.23952001953125,-0.6796540021896362,-8.558672904968262,5.488707542419434
1772594484659784000,3.259783935546875,-0.667982280254364,-8.520963668823242,5.463269233703613
1772594484680048000,3.280048095703125,-0.6593033075332642,-8.50749683380127,5.434239387512207
1772594484700311000,3.30031103515625,-0.6254851818084717,-8.484152793884277,5.391442775726318
1772594484720575000,3.320574951171875,-0.5835866928100586,-8.482955932617188,5.344756126403809
1772594484740839000,3.3408388671875,-0.5509656667709351,-8.501510620117188,5.289090633392334
1772594484761102000,3.36110205078125,-0.5120598673820496,-8.513482093811035,5.262156009674072
1772594484781366000,3.381365966796875,-0.47644615173339844,-8.545804023742676,5.233126163482666
1772594484801630000,3.4016298828125,-0.441430926322937,-8.589797019958496,5.208585739135742
1772594484821893000,3.42189306640625,-0.41270050406455994,-8.619126319885254,5.171475887298584
1772594484842157000,3.442156982421875,-0.3908534348011017,-8.654440879821777,5.142745018005371
1772594484862421000,3.4624208984375,-0.3621230125427246,-8.677484512329102,5.117606163024902
1772594484882684000,3.482683837890625,-0.3372831642627716,-8.703821182250977,5.097255229949951
1772594484902948000,3.502947998046875,-0.3109469413757324,-8.733149528503418,5.076006889343262
1772594484923212000,3.5232119140625,-0.2959831953048706,-8.762478828430176,5.058948040008545
1772594484943475000,3.543474853515625,-0.2890998423099518,-8.774150848388672,5.041889667510986
1772594484963739000,3.56373876953125,-0.24660277366638184,-8.790311813354492,5.054159641265869
1772594484984003000,3.584003173828125,-0.19572599232196808,-8.793304443359375,5.0610432624816895
1772594485004266000,3.604265869140625,-0.15801730751991272,-8.80737018585205,5.077503204345703
1772594485024530000,3.624530029296875,-0.12030863761901855,-8.822334289550781,5.099050998687744
1772594485044794000,3.644794189453125,-0.09367313981056213,-8.827122688293457,5.107131481170654
1772594485065057000,3.66505712890625,-0.0661398246884346,-8.836400032043457,5.118204593658447
1772594485085321000,3.685321044921875,-0.0347159244120121,-8.852560997009277,5.1256866455078125
1772594485105585000,3.7055849609375,-0.01107318326830864,-8.856152534484863,5.11072301864624
1772594485125848000,3.72584814453125,0.007481880486011505,-8.851962089538574,5.092167854309082
1772594485146112000,3.746112060546875,0.010773907415568829,-8.863933563232422,5.065532207489014
1772594485166376000,3.7663759765625,0.027234043926000595,-8.869918823242188,5.043385982513428
1772594485186639000,3.78663916015625,0.04668693244457245,-8.876802444458008,5.027524471282959
1772594485206903000,3.806903076171875,0.04908113554120064,-8.885480880737305,4.994903087615967
1772594485227167000,3.8271669921875,0.05267243832349777,-8.89445972442627,4.984428882598877
1772594485247430000,3.847429931640625,0.054767362773418427,-8.894758224487305,4.96737003326416
1772594485267694000,3.867694091796875,0.06673837453126907,-8.898649215698242,4.962581634521484
1772594485287958000,3.8879580078125,0.07212532311677933,-8.891167640686035,4.936544418334961
1772594485308222000,3.908221923828125,0.08529343456029892,-8.895057678222656,4.912303447723389
1772594485328485000,3.928485107421875,0.08230068534612656,-8.892364501953125,4.8901567459106445
1772594485348749000,3.9487490234375,0.09546878933906555,-8.90254020690918,4.855441093444824
1772594485369013000,3.969012939453125,0.08858546614646912,-8.90762710571289,4.8500542640686035
1772594485389276000,3.98927587890625,0.0942716896533966,-8.929474830627441,4.821024417877197
1772594485409540000,4.0095400390625,0.0966658964753151,-8.860342025756836,4.799776077270508
1772594485429804000,4.029803955078125,0.10235211998224258,-8.839093208312988,4.799776077270508
1772594485450067000,4.05006689453125,0.10594342648983002,-8.848969459533691,4.814141273498535
1772594485470331000,4.070330810546875,0.11971008777618408,-8.86602783203125,4.8267107009887695
1772594485490595000,4.090594970703125,0.12090718746185303,-8.859443664550781,4.829104900360107
1772594485510858000,4.11085791015625,0.11971008777618408,-8.83939266204834,4.842272758483887
1772594485531122000,4.131121826171875,0.1379658728837967,-8.825027465820312,4.845564842224121
1772594485551386000,4.15138623046875,0.1586158573627472,-8.83250904083252,4.845864295959473
1772594485571649000,4.17164892578125,0.1735796183347702,-8.84747314453125,4.842272758483887
1772594485591913000,4.191912841796875,0.2050035148859024,-8.826224327087402,4.852448463439941
1772594485612177000,4.212177001953125,0.23612813651561737,-8.805274963378906,4.869806289672852
1772594485632440000,4.232440185546875,0.25348609685897827,-8.7977933883667,4.876988887786865
1772594485652704000,4.2527041015625,0.24899697303771973,-8.806771278381348,4.883573055267334
1772594485672968000,4.272968017578125,0.23253683745861053,-8.818443298339844,4.887463569641113
1772594485693231000,4.293231201171875,0.2322375625371933,-8.827422142028809,4.889259338378906
1772594485713495000,4.3134951171875,0.2223614901304245,-8.819939613342285,4.886565685272217
1772594485733759000,4.333759033203125,0.20141221582889557,-8.820239067077637,4.869207859039307
1772594485754022000,4.35402197265625,0.18914192914962769,-8.82442855834961,4.843769550323486
1772594485774286000,4.3742861328125,0.18405425548553467,-8.819939613342285,4.841674327850342
1772594485794550000,4.394550048828125,0.17417816817760468,-8.820239067077637,4.863820552825928
1772594485814813000,4.41481298828125,0.1834557056427002,-8.825326919555664,4.913201332092285
1772594485835077000,4.4350771484375,0.18824410438537598,-8.827720642089844,4.951508522033691
1772594485855341000,4.455341064453125,0.19542671740055084,-8.812158584594727,4.962282180786133
1772594485875604000,4.47560400390625,0.2064998894929886,-8.805274963378906,4.964377403259277
1772594485895868000,4.495867919921875,0.20769700407981873,-8.816049575805664,4.954800605773926
1772594485916132000,4.516132080078125,0.22026655077934265,-8.830713272094727,4.961683750152588
1772594485936395000,4.53639501953125,0.23732523620128632,-8.84867000579834,4.9706621170043945
1772594485956659000,4.556658935546875,0.23074118793010712,-8.868721961975098,4.966472148895264
1772594485976923000,4.5769228515625,0.22505496442317963,-8.860042572021484,4.9601874351501465
1772594485997186000,4.59718603515625,0.2091933786869049,-8.827422142028809,4.961683750152588
1772594486017450000,4.617449951171875,0.19452889263629913,-8.804377555847168,4.94312858581543
1772594486037714000,4.6377138671875,0.17088614404201508,-8.782829284667969,4.928164958953857
1772594486057977000,4.65797705078125,0.17148469388484955,-8.77265453338623,4.917690277099609
1772594486078241000,4.678240966796875,0.16549919545650482,-8.720580101013184,4.905120849609375
1772594486098505000,4.6985048828125,0.1388636976480484,-8.716390609741211,4.940734386444092
1772594486118768000,4.71876806640625,0.1008557453751564,-8.728660583496094,4.967968463897705
1772594486139032000,4.739031982421875,0.07571662962436676,-8.778040885925293,4.9928083419799805
1772594486159296000,4.7592958984375,0.08469488471746445,-8.754398345947266,5.017348766326904
1772594486179559000,4.779558837890625,0.11641805619001389,-8.746018409729004,5.004180908203125
1772594486199823000,4.799822998046875,0.11761515587568283,-8.726266860961914,4.99550199508667
1772594486220087000,4.820087158203125,0.12090718746185303,-8.705916404724121,5.023035049438477
1772594486240350000,4.840349853515625,0.157119482755661,-8.70801067352295,5.039495468139648
1772594486260614000,4.86061376953125,0.17148469388484955,-8.731354713439941,5.033210754394531
1772594486280878000,4.880878173828125,0.1933317929506302,-8.816049575805664,5.03021764755249
1772594486301141000,4.90114111328125,0.21936872601509094,-9.529820442199707,5.044283866882324
1772594486321405000,4.921405029296875,0.21547815203666687,-9.47654914855957,5.090671539306641
1772594486341669000,4.941669189453125,0.21637597680091858,-9.428665161132812,5.135263442993164
1772594486361932000,4.96193212890625,0.20260931551456451,-9.361029624938965,5.171176433563232
1772594486382196000,4.982196044921875,0.1975216418504715,-8.514678955078125,5.163095951080322
1772594486402460000,5.0024599609375,0.19482816755771637,-8.533533096313477,5.163095951080322
1772594486422723000,5.02272314453125,0.19692309200763702,-8.505701065063477,5.17357063293457
1772594486442987000,5.042987060546875,0.19243396818637848,-8.497620582580566,5.205593109130859
1772594486463251000,5.0632509765625,0.22086510062217712,-8.473379135131836,5.240009784698486
1772594486483514000,5.08351416015625,0.2139817774295807,-8.496124267578125,5.236717700958252
1772594486503778000,5.103778076171875,0.1966238170862198,-8.52724838256836,5.27263069152832
1772594486524042000,5.1240419921875,0.2115875780582428,-8.510489463806152,5.264849662780762
1772594486544305000,5.144304931640625,0.19812019169330597,-8.51677417755127,5.254973411560059
1772594486564569000,5.164569091796875,0.20560206472873688,-8.529643058776855,5.258265495300293
1772594486584833000,5.1848330078125,0.19632454216480255,-8.54221248626709,5.2229509353637695
1772594486605097000,5.205096923828125,0.15801730751991272,-8.560467720031738,5.172373294830322
1772594486625360000,5.22535986328125,0.12958616018295288,-8.555081367492676,5.111021995544434
1772594486645624000,5.2456240234375,0.14604631066322327,-8.513482093811035,5.054758548736572
1772594486665888000,5.265887939453125,0.17178396880626678,-8.452130317687988,5.0382981300354
1772594486686151000,5.28615087890625,0.20141221582889557,-8.436568260192871,5.056553840637207
1772594486706415000,5.3064150390625,0.2298433631658554,-8.418312072753906,5.099649429321289
1772594486726679000,5.326678955078125,0.2472013235092163,-8.447641372680664,6.175843238830566
1772594486746942000,5.34694189453125,0.2630629241466522,-9.194931983947754,6.206668853759766
1772594486767206000,5.367205810546875,0.2786252200603485,-9.200617790222168,6.170755386352539
1772594486787470000,5.387469970703125,0.2834136188030243,-9.209595680236816,6.121674537658691
1772594486807733000,5.40773291015625,0.2768295705318451,-9.206603050231934,6.068403720855713
1772594486827997000,5.427996826171875,0.28042086958885193,-9.193136215209961,6.030993938446045
1772594486848261000,5.44826123046875,0.2935889959335327,-9.15961742401123,5.9864020347595215
1772594486868524000,5.46852392578125,0.30196869373321533,-9.126996040344238,5.9642558097839355
1772594486888788000,5.4887880859375,0.3247136175632477,-9.103952407836914,5.9525837898254395
1772594486909052000,5.509052001953125,0.3842693865299225,-9.044695854187012,5.907991886138916
1772594486929315000,5.529315185546875,0.40192660689353943,-8.178892135620117,5.172074317932129
1772594486949579000,5.5495791015625,0.40132805705070496,-8.165425300598145,5.153818607330322
1772594486969843000,5.569843017578125,0.3869628608226776,-8.128314971923828,5.145139217376709
1772594486990106000,5.590106201171875,0.3627215623855591,-8.127716064453125,5.146336555480957
1772594487010370000,5.6103701171875,0.34596213698387146,-8.161234855651855,5.161300182342529
1772594487030634000,5.630634033203125,0.3378817141056061,-8.216899871826172,5.1490302085876465
1772594487050897000,5.65089697265625,0.3058592677116394,-8.254908561706543,5.11072301864624
1772594487071161000,5.6711611328125,0.29897594451904297,-8.296208381652832,5.12000036239624
1772594487091425000,5.691425048828125,0.27982231974601746,-8.352472305297852,5.164592266082764
1772594487111688000,5.71168798828125,0.2663549482822418,-8.412925720214844,5.203797340393066
1772594487131952000,5.7319521484375,0.2522889971733093,-8.45242977142334,5.2450971603393555
1772594487152216000,5.752216064453125,0.2397194504737854,-8.466196060180664,5.264849662780762
1772594487172479000,5.77247900390625,0.23074118793010712,-8.465897560119629,5.286098003387451
1772594487192743000,5.792742919921875,0.22625206410884857,-8.44554615020752,5.3360772132873535
1772594487213007000,5.813007080078125,0.22086510062217712,-8.43626880645752,5.39293909072876
1772594487233270000,5.83327001953125,0.21757307648658752,-8.432079315185547,5.43723201751709
1772594487253534000,5.853533935546875,0.19812019169330597,-8.454225540161133,5.467458724975586
1772594487273798000,5.8737978515625,0.18315643072128296,-8.47906494140625,5.4659624099731445
1772594487294061000,5.89406103515625,0.18076223134994507,-8.502408981323242,5.503072738647461
1772594487314325000,5.914324951171875,0.17986440658569336,-8.506598472595215,5.542876243591309
1772594487334589000,5.9345888671875,0.1702875941991806,-8.517073631286621,5.571307182312012
1772594487354852000,5.95485205078125,0.15891513228416443,-8.55837345123291,5.599140167236328
1772594487375116000,5.975115966796875,0.1487397849559784,-8.565855026245117,5.585971832275391
1772594487395380000,5.9953798828125,0.14694413542747498,-8.576030731201172,5.578489780426025
1772594487415643000,6.015642822265625,0.14993688464164734,-8.594585418701172,5.576395034790039
1772594487435907000,6.035906982421875,0.13587094843387604,-8.56645393371582,5.600337028503418
1772594487456171000,6.0561708984375,0.14574703574180603,-8.55148983001709,5.591358661651611
1772594487476434000,6.076433837890625,0.13407529890537262,-8.536825180053711,5.584475517272949
1772594487496698000,6.096697998046875,0.12988543510437012,-8.516175270080566,5.575497150421143
1772594487516962000,6.116962158203125,0.12180501222610474,-8.492532730102539,5.595848083496094
1772594487537225000,6.137224853515625,0.13198037445545197,-8.474276542663574,5.61799430847168
1772594487557489000,6.157489013671875,0.13766659796237946,-8.500014305114746,5.599738597869873
1772594487577753000,6.177753173828125,0.12779051065444946,-8.523956298828125,5.615899562835693
1772594487598016000,6.19801611328125,0.12330138683319092,-8.533533096313477,5.677549839019775
1772594487618280000,6.218280029296875,0.12389993667602539,-8.56076717376709,5.754763126373291
1772594487638544000,6.2385439453125,0.12749123573303223,-8.627206802368164,6.785167694091797
1772594487658807000,6.25880712890625,0.11851298063993454,-9.43135929107666,6.842628479003906
1772594487679071000,6.279071044921875,0.12000936269760132,-10.334871292114258,6.914155006408691
1772594487699335000,6.2993349609375,0.11611878126859665,-10.375272750854492,7.684788703918457
1772594487719598000,6.31959814453125,0.1289876103401184,-10.437521934509277,7.715614318847656
1772594487739862000,6.339862060546875,0.1215057373046875,-12.216713905334473,7.76828670501709
1772594487760126000,6.3601259765625,0.15352818369865417,-13.144166946411133,7.795520782470703
1772594487780389000,6.38038916015625,0.1604115068912506,-13.157934188842773,7.798214435577393
1772594487800653000,6.400653076171875,0.12689268589019775,-13.113042831420898,7.741052627563477
1772594487820917000,6.4209169921875,0.076015904545784,-12.085331916809082,6.875548839569092
1772594487841180000,6.441179931640625,0.020350715145468712,-11.30990982055664,5.138555526733398
1772594487861444000,6.461444091796875,-0.010474632494151592,-11.2374849319458,4.183568000793457
1772594487881708000,6.4817080078125,-0.016759412363171577,-10.31242561340332,4.1611223220825195
1772594487901972000,6.501971923828125,-0.02513911761343479,-10.243592262268066,4.201824188232422
1772594487922235000,6.52223486328125,-0.09786299616098404,-9.457395553588867,5.6640825271606445
1772594487942499000,6.5424990234375,-0.9136872291564941,-8.177395820617676,7.0446391105651855
1772594487962763000,6.562762939453125,-0.9642647504806519,-6.9811930656433105,8.649053573608398
1772594487983026000,6.58302587890625,-0.9699509739875793,-5.772120952606201,10.261548042297363
1772594488003290000,6.6032900390625,-0.9501988291740417,-4.5265374183654785,11.052533149719238
1772594488023554000,6.623553955078125,-0.8843582272529602,-3.2911295890808105,11.033679008483887
1772594488043817000,6.64381689453125,-0.823006808757782,-2.436399459838867,9.572318077087402
1772594488064081000,6.664080810546875,0.322618693113327,-2.404975652694702,8.122030258178711
1772594488084345000,6.684344970703125,1.1773487329483032,-2.4142532348632812,6.677428722381592
1772594488104608000,6.70460791015625,2.607285737991333,-2.433706045150757,4.908412933349609
1772594488124872000,6.724871826171875,4.372710227966309,-2.4705169200897217,3.192368745803833
1772594488145136000,6.74513623046875,6.2650275230407715,-3.2866404056549072,2.1646575927734375
1772594488165399000,6.76539892578125,7.647678852081299,-3.3306338787078857,2.0814590454101562
1772594488185663000,6.7856630859375,7.700650691986084,-3.360860586166382,1.3491326570510864
1772594488205927000,6.805927001953125,7.714118003845215,-3.4072482585906982,1.3539210557937622
1772594488226190000,6.826190185546875,7.689876556396484,-3.4186208248138428,1.3838485479354858
1772594488246454000,6.8464541015625,7.666234016418457,-3.3767223358154297,1.4386159181594849
1772594488266718000,6.866718017578125,7.647977828979492,-3.311779499053955,1.5098434686660767
1772594488286981000,6.886981201171875,7.647678852081299,-3.279757022857666,1.5702970027923584
1772594488307245000,6.9072451171875,8.650250434875488,-3.231873035430908,1.559523105621338
1772594488327509000,6.927509033203125,8.742128372192383,-2.130540132522583,1.5568296909332275
1772594488347772000,6.94777197265625,8.794501304626465,-1.2458827495574951,1.5864578485488892
1772594488368036000,6.9680361328125,8.848072052001953,-1.1632827520370483,1.612195611000061
1772594488388300000,6.988300048828125,8.834304809570312,-0.4189853072166443,1.63613760471344
1772594488408563000,7.00856298828125,8.855254173278809,-0.38307225704193115,1.6573861837387085
1772594488428827000,7.028826904296875,8.93156909942627,-0.2983773946762085,1.6490063667297363
1772594488449091000,7.049091064453125,8.958803176879883,0.5707178115844727,1.633743405342102
1772594488469354000,7.06935400390625,9.004891395568848,0.6341641545295715,1.6211738586425781
1772594488489618000,7.089617919921875,9.005789756774902,1.4841058254241943,1.612195611000061
1772594488509882000,7.109882080078125,8.97077465057373,1.5400702953338623,1.6430208683013916
1772594488530145000,7.13014501953125,8.939949035644531,2.4118590354919434,1.655590534210205
1772594488550409000,7.150408935546875,8.956110000610352,2.44747257232666,1.646312952041626
1772594488570673000,7.1706728515625,8.905831336975098,2.499546527862549,1.6385318040847778
1772594488590936000,7.19093603515625,8.862735748291016,2.5761611461639404,1.6319477558135986
1772594488611200000,7.211199951171875,8.821435928344727,3.490147590637207,1.622370958328247
1772594488631464000,7.2314638671875,8.847173690795898,3.5009214878082275,1.6184803247451782
1772594488651727000,7.25172705078125,8.934861183166504,3.5167829990386963,1.643619418144226
1772594488671991000,7.271990966796875,9.001300811767578,3.536834478378296,1.6077064275741577
1772594488692255000,7.2922548828125,9.035717010498047,3.5464112758636475,0.81672203540802
1772594488712518000,7.312517822265625,9.033023834228516,3.576937437057495,0.7993640899658203
1772594488732782000,7.332781982421875,9.03511905670166,3.645172119140625,0.806546688079834
1772594488753046000,7.3530458984375,9.032724380493164,3.7044286727905273,0.8113350868225098
1772594488773309000,7.373308837890625,9.061454772949219,3.756502389907837,0.8313865661621094
1772594488793573000,7.393572998046875,9.086893081665039,3.7672762870788574,0.8400655388832092
1772594488813837000,7.413837158203125,9.105149269104004,3.7816414833068848,0.7867945432662964
1772594488834100000,7.434099853515625,9.16201114654541,3.765779972076416,0.735319197177887
1772594488854364000,7.454364013671875,9.195829391479492,3.754108190536499,0.7038952708244324
1772594488874628000,7.474628173828125,9.21139144897461,3.742436647415161,0.7056909799575806
1772594488894891000,7.49489111328125,9.229348182678223,3.746626377105713,0.7203554511070251
1772594488915155000,7.515155029296875,9.243114471435547,3.75829815864563,0.7215525507926941
1772594488935419000,7.5354189453125,9.233837127685547,3.7816414833068848,0.7018003463745117
1772594488955682000,7.55568212890625,9.220070838928223,3.78912353515625,0.6955155730247498
1772594488975946000,7.575946044921875,9.195829391479492,3.80378794670105,0.6763619780540466
1772594488996210000,7.5962099609375,9.177872657775879,3.8232407569885254,0.6407482028007507
1772594489016473000,7.61647314453125,9.17428207397461,3.8331170082092285,0.6168062090873718
1772594489036737000,7.636737060546875,9.155726432800293,3.8510735034942627,0.579995334148407
1772594489057001000,7.6570009765625,9.128192901611328,3.8657379150390625,0.5629366636276245
1772594489077264000,7.677263916015625,9.098864555358887,3.8914756774902344,0.5336077213287354
1772594489097528000,7.697528076171875,9.039608001708984,3.9228994846343994,0.5150526165962219
1772594489117792000,7.7177919921875,8.965387344360352,3.9746739864349365,0.5000888705253601
1772594489138055000,7.738054931640625,8.175899505615234,4.0201640129089355,0.4833294749259949
1772594489158319000,7.758319091796875,8.166921615600586,4.0779242515563965,0.47225627303123474
1772594489178583000,7.7785830078125,8.186972618103027,4.804265022277832,0.497395396232605
1772594489198847000,7.798846923828125,8.245929718017578,4.815338134765625,0.5162497162818909
1772594489219110000,7.81910986328125,8.9959135055542,4.800673484802246,0.5321113467216492
1772594489239374000,7.8393740234375,8.958205223083496,4.7910966873168945,0.5204395651817322
1772594489259638000,7.859637939453125,8.90254020690918,4.798878192901611,0.4958990216255188
1772594489279901000,7.87990087890625,8.83011531829834,4.817432880401611,0.4967968463897705
1772594489300165000,7.9001650390625,8.781632423400879,4.8494553565979,0.5348048210144043
1772594489320429000,7.920428955078125,8.764873504638672,4.860827922821045,0.5790975093841553
1772594489340692000,7.94069189453125,8.757091522216797,4.863820552825928,0.6123170852661133
1772594489360956000,7.960955810546875,8.776246070861816,4.857835292816162,0.6575076580047607
1772594489381220000,7.98122021484375,8.787019729614258,4.853645324707031,0.718859076499939
1772594489401483000,8.00148291015625,8.785223960876465,4.863820552825928,0.7637503147125244
1772594489421747000,8.021746826171874,8.744522094726562,4.8629231452941895,0.8101379871368408
1772594489442011000,8.042010986328124,8.743325233459473,4.8629231452941895,0.8439561128616333
1772594489462274000,8.062274169921874,8.734047889709473,4.864718437194824,0.8804676532745361
1772594489482538000,8.0825380859375,8.731354713439941,4.853346347808838,0.8762778043746948
1772594489502802000,8.102802001953124,8.762179374694824,4.824914932250977,0.8732850551605225
1772594489523065000,8.123065185546874,8.778939247131348,4.804863452911377,0.8720879554748535
1772594489543329000,8.1433291015625,8.797493934631348,4.789001941680908,0.871489405632019
1772594489563593000,8.163593017578124,8.831012725830078,4.760869979858398,0.8622118830680847
1772594489583856000,8.183856201171874,8.860641479492188,4.746804237365723,0.8316858410835266
1772594489604120000,8.2041201171875,8.84867000579834,4.736329555511475,0.8107365369796753
1772594489624384000,8.224384033203124,8.833107948303223,4.709693908691406,0.7814075946807861
1772594489644647000,8.24464697265625,8.818742752075195,4.697423934936523,0.7697358727455139
1772594489664911000,8.2649111328125,8.851364135742188,4.688146114349365,0.7134721279144287
1772594489685175000,8.285175048828124,8.856451034545898,4.680065631866455,0.6727706789970398
1772594489705438000,8.30543798828125,8.843582153320312,4.684854030609131,0.6353612542152405
1772594489725702000,8.325701904296874,8.811859130859375,4.697124481201172,0.5979518890380859
1772594489745966000,8.345966064453124,8.773551940917969,4.7031097412109375,0.568622887134552
1772594489766229000,8.36622900390625,8.743924140930176,4.727052211761475,0.5431845188140869
1772594489786493000,8.386492919921874,8.729558944702148,4.737825870513916,0.5222352743148804
1772594489806757000,8.406757080078124,8.690652847290039,4.73573112487793,0.49320554733276367
1772594489827020000,8.42702001953125,8.648754119873047,4.745307922363281,0.4728548228740692
1772594489847284000,8.447283935546874,8.62630844116211,4.764162063598633,0.43754035234451294
1772594489867548000,8.4675478515625,8.601768493652344,4.777629375457764,0.4034229815006256
1772594489887811000,8.48781103515625,8.581417083740234,4.782118797302246,0.375291109085083
1772594489908075000,8.508074951171874,8.567950248718262,4.7854108810424805,0.37469255924224854
1772594489928339000,8.5283388671875,8.582315444946289,4.772242546081543,0.35344403982162476
1772594489948602000,8.54860205078125,8.598775863647461,4.753687381744385,0.37559038400650024
1772594489968866000,8.568865966796874,8.61044692993164,4.737825870513916,0.3911527097225189
1772594489989130000,8.5891298828125,8.62780475616455,4.721066474914551,0.41868603229522705
1772594490009393000,8.609392822265624,8.640673637390137,4.702810764312744,0.4258686304092407
1772594490029657000,8.629656982421874,8.655937194824219,4.681262969970703,0.44322657585144043
1772594490049921000,8.649921142578124,8.678682327270508,4.655824661254883,0.449810653924942
1772594490070184000,8.670183837890624,8.704120635986328,4.6396636962890625,0.45759180188179016
1772594490090448000,8.69044775390625,8.726266860961914,4.636072158813477,0.47225627303123474
1772594490110712000,8.710712158203124,8.760683059692383,4.617517471313477,0.47135844826698303
1772594490130975000,8.73097509765625,8.794800758361816,4.5825018882751465,0.45579615235328674
1772594490151239000,8.751239013671874,8.825027465820312,4.549282550811768,0.4569932520389557
1772594490171503000,8.771503173828124,8.838793754577637,4.52803373336792,0.4677671492099762
1772594490191766000,8.79176611328125,8.833107948303223,4.516362190246582,0.47405192255973816
1772594490212030000,8.812030029296874,8.837596893310547,4.48942756652832,0.49709612131118774
1772594490232294000,8.8322939453125,8.871415138244629,4.467879772186279,0.5093663930892944
1772594490252557000,8.85255712890625,8.927379608154297,4.443638324737549,0.513855516910553
1772594490272821000,8.872821044921874,8.974366188049316,4.407425880432129,0.49889177083969116
1772594490293085000,8.8930849609375,8.999804496765137,4.363731861114502,0.5186439156532288
