time,seconds_elapsed,z,y,x
1772594270554930000,0.272929931640625,-1.026693344116211,1.345444679260254,-0.5925579071044922
1772594270575071000,0.293071044921875,-1.894606113433838,2.074552059173584,-1.048356056213379
1772594270595366000,0.313365966796875,-1.9040865898132324,2.0900678634643555,-1.0616579055786133
1772594270615629000,0.333629150390625,-1.8146281242370605,2.9708681106567383,-1.486684799194336
1772594270635893000,0.35389306640625,-1.1779491901397705,3.7094855308532715,-1.775200605392456
1772594270656157000,0.374156982421875,-0.36184489727020264,3.6859817504882812,-1.0036557912826538
1772594270676420000,0.394420166015625,-0.35593318939208984,3.6567769050598145,-0.9778422117233276
1772594270696684000,0.41468408203125,-0.40657687187194824,1.8863558769226074,-0.3930013179779053
1772594270716948000,0.434947998046875,0.7111539840698242,-2.688857078552246,0.3614473342895508
1772594270737211000,0.4552109375,1.3298242092132568,-6.855058670043945,0.6935617923736572
1772594270757475000,0.47547509765625,-0.24827337265014648,0.9176874160766602,-0.210313081741333
1772594270777739000,0.495739013671875,-0.026598215103149414,0.14037418365478516,-0.027758121490478516
1772594270798002000,0.516001953125,0.061037421226501465,-0.5122060775756836,0.09006726741790771
1772594270818266000,0.53626611328125,0.09799909591674805,-1.1135149002075195,0.1765822172164917
1772594270838530000,0.556530029296875,0.13295012712478638,-1.6554288864135742,0.22746312618255615
1772594270858793000,0.57679296875,0.17504042387008667,-2.113311767578125,0.25059235095977783
1772594270879057000,0.597056884765625,0.23700904846191406,-2.5707321166992188,0.2610670328140259
1772594270899321000,0.617321044921875,0.26735496520996094,-2.8521289825439453,0.26732659339904785
1772594270919584000,0.637583984375,0.20369470119476318,-2.6036109924316406,0.25063419342041016
1772594270939848000,0.657847900390625,0.12448298931121826,-1.931391716003418,0.19878733158111572
1772594270960112000,0.678112060546875,0.09375399351119995,-1.2510223388671875,0.1459493637084961
1772594270980375000,0.698375,0.07504189014434814,-0.7923507690429688,0.10208070278167725
1772594271000639000,0.718638916015625,0.06643950939178467,-0.5480613708496094,0.0759737491607666
1772594271020903000,0.73890283203125,0.053677916526794434,-0.41168975830078125,0.060843825340270996
1772594271041166000,0.759166015625,0.04164433479309082,-0.3425617218017578,0.056662678718566895
1772594271061430000,0.779429931640625,0.045186400413513184,-0.4123067855834961,0.08181560039520264
1772594271081694000,0.79969384765625,0.03548461198806763,-0.4738340377807617,0.1092531681060791
1772594271101957000,0.81995703125,0.01299259066581726,-0.5281248092651367,0.13383913040161133
1772594271122221000,0.840220947265625,-0.00974932312965393,-0.6249237060546875,0.16128754615783691
1772594271142485000,0.860485107421875,-0.027758508920669556,-0.5859756469726562,0.14860939979553223
1772594271162748000,0.880747802734375,-0.031982481479644775,-0.3979530334472656,0.09784173965454102
1772594271183012000,0.90101220703125,-0.014827728271484375,-0.14548969268798828,0.03506731986999512
1772594271203276000,0.921276123046875,0.001729726791381836,0.015570640563964844,-0.0037908554077148438
1772594271223539000,0.9415390625,0.017321348190307617,0.15663909912109375,-0.0399932861328125
1772594271243803000,0.961802978515625,0.019757449626922607,0.19998741149902344,-0.05253434181213379
1772594271264067000,0.982067138671875,0.022524654865264893,0.2587423324584961,-0.06715750694274902
1772594271284330000,1.002330078125,0.013032138347625732,0.17316150665283203,-0.04391622543334961
1772594271304594000,1.022593994140625,-0.013389408588409424,-0.24553585052490234,0.06090855598449707
1772594271324858000,1.042858154296875,-0.029553472995758057,-0.8431215286254883,0.20873665809631348
1772594271345121000,1.06312109375,-0.04322904348373413,-1.7324028015136719,0.4357450008392334
1772594271365385000,1.083385009765625,-0.04840552806854248,-2.837921142578125,0.6904544830322266
1772594271385649000,1.10364892578125,-0.11837974190711975,-4.013160705566406,0.9398131370544434
1772594271405912000,1.123912109375,-0.2684735655784607,-5.006043434143066,1.1175458431243896
1772594271426176000,1.144176025390625,-0.47401928901672363,-5.822304725646973,1.2226476669311523
1772594271446440000,1.16443994140625,-0.6836974620819092,-6.222602844238281,1.267753005027771
1772594271466703000,1.184703125,-0.8736152648925781,-6.256824493408203,1.2684317827224731
1772594271486967000,1.204967041015625,-0.9632649421691895,-5.8756866455078125,1.178140640258789
1772594271507231000,1.22523095703125,-0.9402143955230713,-4.933565139770508,0.9510029554367065
1772594271527494000,1.245493896484375,-0.8439040184020996,-3.742255210876465,0.6777331829071045
1772594271547758000,1.265758056640625,-0.6368546485900879,-2.333798408508301,0.3970961570739746
1772594271568022000,1.28602197265625,-0.2708616256713867,-0.8485679626464844,0.14049971103668213
1772594271588285000,1.306284912109375,0.25713467597961426,0.7274913787841797,-0.11693787574768066
1772594271608549000,1.326549072265625,0.8479785919189453,2.2474451065063477,-0.31775492429733276
1772594271628813000,1.34681298828125,1.486586093902588,3.6486659049987793,-0.4031229615211487
1772594271649076000,1.367075927734375,2.0298969745635986,4.761368751525879,-0.35556164383888245
1772594271669340000,1.38733984375,2.40340256690979,5.662245273590088,-0.23587045073509216
1772594271689604000,1.40760400390625,2.5896832942962646,6.322193145751953,-0.3038756847381592
1772594271709867000,1.427866943359375,2.407539129257202,6.852986812591553,-0.695088267326355
1772594271730131000,1.448130859375,2.7526257038116455,6.746482849121094,-1.7493969202041626
1772594271750395000,1.468394775390625,2.686300754547119,5.9485578536987305,-2.8315863609313965
1772594271770659000,1.4886591796875,2.3711118698120117,4.942173957824707,-2.943204402923584
1772594271790922000,1.508921875,1.8355326652526855,4.109860420227051,-2.167370557785034
1772594271811186000,1.52918603515625,1.1467833518981934,2.930018424987793,-1.3030540943145752
1772594271831450000,1.5494501953125,0.4455904960632324,1.3131542205810547,-0.4819478988647461
1772594271851713000,1.569713134765625,-0.14597082138061523,-0.4943351745605469,0.15274906158447266
1772594271871977000,1.58997705078125,-0.6707019805908203,-2.4676694869995117,0.6463096141815186
1772594271892241000,1.610240966796875,-1.126009464263916,-4.5071916580200195,1.059877634048462
1772594271912504000,1.630504150390625,-1.5723953247070312,-6.590435028076172,1.420910120010376
1772594271932768000,1.65076806640625,-1.8160839080810547,-8.431270599365234,1.6936979293823242
1772594271953032000,1.671031982421875,-1.9290952682495117,-9.662567138671875,1.7327337265014648
1772594271973295000,1.691295166015625,-1.9607195854187012,-10.175251960754395,1.6018106937408447
1772594271993559000,1.71155908203125,-1.9810802936553955,-9.994538307189941,1.5366706848144531
1772594272013823000,1.731822998046875,-1.969085693359375,-9.1210298538208,1.4328055381774902
1772594272034086000,1.7520859375,-1.8761897087097168,-7.706125259399414,1.2654564380645752
1772594272054350000,1.77235009765625,-1.74114990234375,-6.06998348236084,1.0631152391433716
1772594272074614000,1.792614013671875,-1.4001576900482178,-4.28944206237793,0.8158332109451294
1772594272094877000,1.812876953125,-0.8956596851348877,-2.4790964126586914,0.4880692958831787
1772594272115141000,1.83314111328125,-0.22243881225585938,-0.5715675354003906,0.11858928203582764
1772594272135405000,1.853405029296875,0.47019290924072266,1.1237154006958008,-0.23386693000793457
1772594272155668000,1.87366796875,1.160123586654663,2.6392316818237305,-0.5647603273391724
1772594272175932000,1.893931884765625,1.7838571071624756,3.9309043884277344,-0.9043245315551758
1772594272196196000,1.914196044921875,2.212470769882202,5.015158653259277,-1.196960687637329
1772594272216459000,1.934458984375,2.2604451179504395,5.931305408477783,-1.521899938583374
1772594272236723000,1.954722900390625,1.7036714553833008,6.673858642578125,-2.0185132026672363
1772594272256987000,1.97498681640625,0.6989198923110962,7.139204978942871,-2.490699529647827
1772594272277250000,1.99525,0.40889033675193787,7.12448263168335,-3.2174763679504395
1772594272297514000,2.015513916015625,2.9921185970306396,5.903651237487793,-3.8300633430480957
1772594272317778000,2.03577783203125,3.125702142715454,5.273506164550781,-3.2798686027526855
1772594272338041000,2.056041015625,2.900502920150757,4.7204413414001465,-1.9099390506744385
1772594272358305000,2.076304931640625,1.7512681484222412,3.758296012878418,-1.0914697647094727
1772594272378569000,2.09656884765625,0.7129137516021729,1.8890385627746582,-0.46365606784820557
1772594272398832000,2.11683203125,-0.06360411643981934,-0.19441604614257812,0.03933155536651611
1772594272419096000,2.137095947265625,-0.7002537250518799,-2.3654327392578125,0.3945658206939697
1772594272439360000,2.157360107421875,-1.260993480682373,-4.588417053222656,0.6561495065689087
1772594272459623000,2.177622802734375,-1.7214953899383545,-6.701568603515625,0.8889222145080566
1772594272479887000,2.19788720703125,-2.066647529602051,-8.486595153808594,1.0321733951568604
1772594272500151000,2.218151123046875,-2.0014796257019043,-9.72986125946045,1.0336313247680664
1772594272520414000,2.2384140625,-2.071357250213623,-10.15272045135498,0.9896882772445679
1772594272540678000,2.258677978515625,-1.9486656188964844,-9.76824951171875,1.0752744674682617
1772594272560942000,2.278942138671875,-1.9436302185058594,-8.74343490600586,1.0735526084899902
1772594272581205000,2.299205078125,-1.7789280414581299,-7.102014541625977,0.9247426986694336
1772594272601469000,2.319468994140625,-1.4987537860870361,-5.296138763427734,0.7778052091598511
1772594272621733000,2.339733154296875,-1.1281194686889648,-3.450760841369629,0.5890860557556152
1772594272641996000,2.35999609375,-0.5948526859283447,-1.568629264831543,0.3075125217437744
1772594272662260000,2.380260009765625,0.06439900398254395,0.14628028869628906,-0.03201746940612793
1772594272682524000,2.40052392578125,0.8070058822631836,1.5915946960449219,-0.3941537141799927
1772594272702787000,2.420787109375,1.5798029899597168,2.7520675659179688,-0.7740796804428101
1772594272723051000,2.441051025390625,2.2716898918151855,3.5983643531799316,-1.110479474067688
1772594272743315000,2.46131494140625,2.8823604583740234,4.273009300231934,-1.4008492231369019
1772594272763578000,2.481578125,3.3824782371520996,5.011501789093018,-1.5861482620239258
1772594272804106000,2.52210595703125,4.604889869689941,5.189391136169434,-1.5873692035675049
1772594272824369000,2.542368896484375,4.721445083618164,4.8484649658203125,-1.4085259437561035
1772594272844633000,2.562633056640625,4.000324726104736,4.496948719024658,-1.1294119358062744
1772594272864897000,2.58289697265625,2.7925665378570557,3.7641396522521973,-1.0316096544265747
1772594272885160000,2.603159912109375,1.4853672981262207,2.4611010551452637,-0.7343902587890625
1772594272905424000,2.623423828125,0.42926812171936035,0.8452844619750977,-0.24417638778686523
1772594272925688000,2.64368798828125,-0.42161035537719727,-0.9441432952880859,0.24581432342529297
1772594272945951000,2.663950927734375,-1.1678211688995361,-2.889354705810547,0.6926476955413818
1772594272966215000,2.68421484375,-1.8716223239898682,-4.90622615814209,1.1051459312438965
1772594272986479000,2.70447900390625,-2.4679999351501465,-6.914032936096191,1.4543914794921875
1772594273006742000,2.724741943359375,-2.7486653327941895,-8.591436386108398,1.7384175062179565
1772594273027006000,2.745005859375,-2.883101463317871,-9.77136516571045,1.9641566276550293
1772594273047270000,2.765269775390625,-2.8567841053009033,-10.179544448852539,2.1133155822753906
1772594273067534000,2.7855341796875,-2.718964099884033,-9.741878509521484,2.0178334712982178
1772594273087797000,2.805796875,-2.4916975498199463,-8.621012687683105,1.7063453197479248
1772594273108061000,2.82606103515625,-2.2745063304901123,-7.226706504821777,1.4261667728424072
1772594273128325000,2.8463251953125,-1.9882938861846924,-5.669954299926758,1.207829236984253
1772594273148588000,2.866588134765625,-1.5294005870819092,-4.016476631164551,0.920952558517456
1772594273168852000,2.88685205078125,-0.9646809101104736,-2.361912727355957,0.5913369655609131
1772594273189116000,2.907115966796875,-0.30805420875549316,-0.6857433319091797,0.19262099266052246
1772594273209379000,2.927379150390625,0.42675161361694336,0.8636846542358398,-0.27854132652282715
1772594273229643000,2.94764306640625,1.206233024597168,2.185452461242676,-0.8287618160247803
1772594273249907000,2.967906982421875,1.9747605323791504,3.2200560569763184,-1.394327998161316
1772594273270170000,2.988170166015625,2.6287920475006104,3.9928736686706543,-1.934643030166626
1772594273290434000,3.00843408203125,3.111814498901367,4.575400352478027,-2.562845230102539
1772594273310698000,3.028697998046875,3.2942028045654297,5.094730854034424,-3.222938060760498
1772594273330961000,3.0489609375,3.035343885421753,5.626805305480957,-3.9404168128967285
1772594273351225000,3.06922509765625,3.1606030464172363,5.66471004486084,-4.375101089477539
1772594273371489000,3.089489013671875,5.027191638946533,4.504962921142578,-3.6659674644470215
1772594273391752000,3.109751953125,4.722175598144531,4.707049369812012,-3.1407642364501953
1772594273412016000,3.13001611328125,3.9270825386047363,4.883806228637695,-1.9339274168014526
1772594273432280000,3.150280029296875,2.606599807739258,4.081928253173828,-1.1928666830062866
1772594273452543000,3.17054296875,1.3399858474731445,2.499452590942383,-0.6525723934173584
1772594273472807000,3.190806884765625,0.3126394748687744,0.6773977279663086,-0.14788341522216797
1772594273493071000,3.211071044921875,-0.5272853374481201,-1.296579360961914,0.2211618423461914
1772594273513334000,3.231333984375,-1.251518726348877,-3.3677167892456055,0.4721568822860718
1772594273533598000,3.251597900390625,-1.9114282131195068,-5.492550849914551,0.7143445014953613
1772594273553862000,3.27186181640625,-2.442558526992798,-7.457487106323242,0.9632401466369629
1772594273574125000,3.292125,-2.5931594371795654,-9.090010643005371,1.184248685836792
1772594273594389000,3.312388916015625,-2.8371362686157227,-10.060589790344238,1.307605266571045
1772594273614653000,3.33265283203125,-2.9091854095458984,-10.308393478393555,1.3939964771270752
1772594273634916000,3.352916015625,-2.717818021774292,-9.658707618713379,1.279350996017456
1772594273655180000,3.373179931640625,-2.383962869644165,-8.315479278564453,1.0603420734405518
1772594273675444000,3.39344384765625,-2.055666446685791,-6.744815826416016,0.9110298156738281
1772594273695707000,3.413706787109375,-1.7085270881652832,-5.075165748596191,0.8176548480987549
1772594273715971000,3.43397119140625,-1.279886245727539,-3.364500045776367,0.6587514877319336
1772594273736235000,3.454235107421875,-0.7217268943786621,-1.63128662109375,0.3747103214263916
1772594273756498000,3.474497802734375,-0.021344661712646484,-0.04160785675048828,0.011070966720581055
1772594273776762000,3.49476220703125,0.8046650886535645,1.3439998626708984,-0.42559266090393066
1772594273797026000,3.515026123046875,1.6349291801452637,2.4101061820983887,-0.8725031614303589
1772594273817289000,3.5352890625,2.430137872695923,3.2127885818481445,-1.4090931415557861
1772594273837553000,3.555552978515625,3.0714333057403564,3.770414352416992,-1.973769187927246
1772594273857817000,3.575817138671875,3.486515522003174,4.197513580322266,-2.5584206581115723
1772594273878080000,3.596080078125,3.691089391708374,4.545681953430176,-3.2360973358154297
1772594273898344000,3.616343994140625,3.738760471343994,4.747483253479004,-3.831690549850464
1772594273918608000,3.63660791015625,3.4183778762817383,4.95704460144043,-4.084109306335449
1772594273938871000,3.65687109375,2.6762208938598633,5.407405853271484,-3.441004753112793
1772594273959135000,3.677135009765625,2.014235019683838,5.19032096862793,-2.234278440475464
1772594273979399000,3.69739892578125,1.3362739086151123,3.9539403915405273,-1.348921537399292
1772594273999662000,3.717662109375,0.6974260807037354,2.2214150428771973,-0.6596055030822754
1772594274019926000,3.737926025390625,0.07500815391540527,0.24707317352294922,-0.06588268280029297
1772594274040190000,3.75818994140625,-0.5400419235229492,-1.7735223770141602,0.42220616340637207
1772594274060453000,3.778453125,-1.16176176071167,-3.809833526611328,0.8058249950408936
1772594274080717000,3.798717041015625,-1.7884392738342285,-5.865401268005371,1.1572799682617188
1772594274100981000,3.81898095703125,-2.3168373107910156,-7.698980331420898,1.4543275833129883
1772594274121244000,3.839243896484375,-2.6568384170532227,-9.055639266967773,1.6467525959014893
1772594274141508000,3.859508056640625,-2.7975709438323975,-9.698394775390625,1.768547773361206
1772594274161772000,3.87977197265625,-2.746281147003174,-9.489147186279297,1.7744572162628174
1772594274182035000,3.900034912109375,-2.5376884937286377,-8.555928230285645,1.5891385078430176
1772594274202299000,3.920298828125,-2.2762081623077393,-7.139249801635742,1.351121187210083
1772594274222563000,3.94056298828125,-1.9320764541625977,-5.500482559204102,1.0562286376953125
1772594274242826000,3.960825927734375,-1.504896640777588,-3.807997703552246,0.7847309112548828
1772594274263090000,3.98108984375,-0.9590871334075928,-2.1536636352539062,0.5031421184539795
1772594274283354000,4.00135400390625,-0.24283981323242188,-0.4775667190551758,0.12712979316711426
1772594274303617000,4.021616943359375,0.5473957061767578,0.9549212455749512,-0.2931029796600342
1772594274323881000,4.041880859375,1.3582515716552734,2.0456910133361816,-0.7299914360046387
1772594274344145000,4.062144775390625,2.232758045196533,2.8766374588012695,-1.1515116691589355
1772594274364409000,4.0824091796875,3.0191586017608643,3.391752243041992,-1.5469661951065063
1772594274384672000,4.102672119140625,3.6721153259277344,3.7429604530334473,-1.8817468881607056
1772594274404936000,4.12293603515625,4.105252265930176,4.150991439819336,-2.19382905960083
1772594274425200000,4.1432001953125,4.2405500411987305,4.597044467926025,-2.5875155925750732
1772594274445463000,4.163463134765625,4.255326271057129,4.96907377243042,-2.8560235500335693
1772594274465727000,4.18372705078125,4.391327857971191,5.041421890258789,-2.6940677165985107
1772594274485991000,4.203990966796875,4.156674385070801,5.065371990203857,-2.0410892963409424
1772594274506254000,4.224254150390625,3.2365400791168213,4.804685115814209,-1.3515667915344238
1772594274526518000,4.24451806640625,1.9716911315917969,3.8210911750793457,-0.9752914905548096
1772594274546782000,4.264781982421875,0.8603146076202393,2.051569938659668,-0.525625467300415
1772594274567045000,4.285045166015625,-0.0056231021881103516,-0.01507568359375,0.0038187503814697266
1772594274587309000,4.30530908203125,-0.7363471984863281,-2.137979507446289,0.5200538635253906
1772594274607573000,4.325572998046875,-1.399216651916504,-4.300620079040527,1.0133693218231201
1772594274627836000,4.3458359375,-2.022294282913208,-6.477046012878418,1.4887182712554932
1772594274648100000,4.36610009765625,-2.526388168334961,-8.460994720458984,1.8932554721832275
1772594274668364000,4.386364013671875,-2.829345703125,-9.956949234008789,2.197277545928955
1772594274688627000,4.406626953125,-2.943307638168335,-10.827820777893066,2.4309334754943848
1772594274708891000,4.426890869140625,-2.939458131790161,-10.790367126464844,2.4789764881134033
1772594274729155000,4.447155029296875,-2.8187918663024902,-9.843741416931152,2.2619643211364746
1772594274749418000,4.46741796875,-2.533127784729004,-8.253164291381836,1.9086849689483643
1772594274769682000,4.487681884765625,-2.132939100265503,-6.450258255004883,1.5247609615325928
1772594274789946000,4.507946044921875,-1.6660566329956055,-4.5743255615234375,1.1519982814788818
1772594274810209000,4.528208984375,-1.0886030197143555,-2.7152090072631836,0.7435729503631592
1772594274830473000,4.548472900390625,-0.3722398281097412,-0.8354082107543945,0.25693273544311523
1772594274850737000,4.56873681640625,0.39148569107055664,0.7795977592468262,-0.28129148483276367
1772594274871000000,4.589,1.1658644676208496,2.03959321975708,-0.9021522998809814
1772594274891264000,4.609263916015625,1.924712896347046,2.9157767295837402,-1.5245332717895508
1772594274911528000,4.62952783203125,2.5003507137298584,3.498748779296875,-2.18613338470459
1772594274931791000,4.649791015625,2.8318381309509277,3.9149351119995117,-2.80991792678833
1772594274952055000,4.670054931640625,2.9686803817749023,4.242676734924316,-3.4356329441070557
1772594274972319000,4.690319091796875,2.883453130722046,4.5280961990356445,-4.090503215789795
1772594274992582000,4.710581787109375,2.6701712608337402,4.764119625091553,-4.62888240814209
1772594275012846000,4.73084619140625,2.8478024005889893,4.922806262969971,-4.947334289550781
1772594275033110000,4.751110107421875,4.436131000518799,4.619291305541992,-4.211784362792969
1772594275053373000,4.771373046875,4.947697162628174,4.650520324707031,-2.9038896560668945
1772594275073637000,4.79163720703125,3.452512741088867,4.905001163482666,-2.008514642715454
1772594275093901000,4.811901123046875,1.8829350471496582,3.8883209228515625,-1.4144693613052368
1772594275114164000,4.8321640625,0.7864656448364258,2.058615207672119,-0.6959848403930664
1772594275134428000,4.852427978515625,0.0019466876983642578,0.005953788757324219,-0.0018069744110107422
1772594275154692000,4.872692138671875,-0.660743236541748,-2.2122621536254883,0.6019413471221924
1772594275174955000,4.892955078125,-1.2539851665496826,-4.478784561157227,1.1258776187896729
1772594275195219000,4.913218994140625,-1.7403638362884521,-6.557792663574219,1.5746440887451172
1772594275215483000,4.93348291015625,-2.1262736320495605,-8.384899139404297,1.953507423400879
1772594275235746000,4.95374609375,-2.2381649017333984,-9.85424518585205,2.3217666149139404
1772594275256010000,4.974010009765625,-2.2490854263305664,-10.579898834228516,2.5230329036712646
1772594275276274000,4.99427392578125,-2.200756072998047,-10.155294418334961,2.4015920162200928
1772594275296537000,5.014537109375,-2.0531556606292725,-8.847099304199219,2.0006346702575684
1772594275316801000,5.034801025390625,-1.815460205078125,-7.02231502532959,1.5176022052764893
1772594275337065000,5.05506494140625,-1.4985606670379639,-5.064207077026367,1.104255199432373
1772594275357328000,5.075327880859375,-1.0956189632415771,-3.1692581176757812,0.7526803016662598
1772594275377592000,5.095592041015625,-0.5037980079650879,-1.255314826965332,0.3355066776275635
1772594275397856000,5.11585595703125,0.1845104694366455,0.39994335174560547,-0.12201571464538574
1772594275418119000,5.136118896484375,0.9482126235961914,1.750938892364502,-0.653475284576416
1772594275438383000,5.156383056640625,1.7233855724334717,2.7160820960998535,-1.2067079544067383
1772594275458647000,5.17664697265625,2.4555840492248535,3.4140543937683105,-1.8000082969665527
1772594275478910000,5.196909912109375,3.0691328048706055,3.929328441619873,-2.2923169136047363
1772594275499174000,5.217173828125,3.3627161979675293,4.386787414550781,-2.829620838165283
1772594275519438000,5.23743798828125,3.3451056480407715,4.8764238357543945,-3.3527231216430664
1772594275539701000,5.257700927734375,3.1276443004608154,5.153866291046143,-3.926358222961426
1772594275559965000,5.27796484375,3.3141427040100098,5.286853313446045,-4.22744083404541
1772594275580229000,5.29822900390625,3.8493361473083496,5.298041343688965,-3.899813175201416
1772594275600492000,5.318491943359375,4.0009765625,5.592520236968994,-2.7334442138671875
1772594275620756000,5.338755859375,2.862025260925293,5.646929740905762,-1.6926404237747192
1772594275641020000,5.35902001953125,1.7428888082504272,4.377684593200684,-1.3177111148834229
1772594275661284000,5.3792841796875,0.7816627025604248,2.3440914154052734,-0.7418689727783203
1772594275681547000,5.399547119140625,0.05752992630004883,0.20142555236816406,-0.05711984634399414
1772594275701811000,5.41981103515625,-0.5336356163024902,-2.021853446960449,0.5061593055725098
1772594275722075000,5.440074951171875,-1.070580005645752,-4.279521942138672,0.9453659057617188
1772594275742338000,5.460338134765625,-1.5099828243255615,-6.433899879455566,1.2571465969085693
1772594275762602000,5.48060205078125,-1.7979252338409424,-8.383672714233398,1.4969220161437988
1772594275782866000,5.500865966796875,-1.974010705947876,-9.86623477935791,1.724081039428711
1772594275803129000,5.521129150390625,-2.138756036758423,-10.641691207885742,1.9349167346954346
1772594275823393000,5.54139306640625,-2.2681775093078613,-10.495826721191406,2.0326218605041504
1772594275843657000,5.561656982421875,-2.192929983139038,-9.473918914794922,1.8115941286087036
1772594275863920000,5.581920166015625,-2.009721040725708,-7.844627380371094,1.4153265953063965
1772594275884184000,5.60218408203125,-1.7133491039276123,-5.988112449645996,1.1416102647781372
1772594275904448000,5.622447998046875,-1.299558162689209,-4.0778303146362305,0.8813732862472534
1772594275924711000,5.6427109375,-0.7611126899719238,-2.125643730163574,0.5347661972045898
1772594275944975000,5.66297509765625,-0.1463451385498047,-0.3559894561767578,0.10644721984863281
1772594275965239000,5.683239013671875,0.5835423469543457,1.2006635665893555,-0.42023468017578125
1772594275985502000,5.703501953125,1.4020919799804688,2.4108481407165527,-0.9527738094329834
1772594276005766000,5.723765869140625,2.160295009613037,3.359511375427246,-1.4528034925460815
1772594276026030000,5.744030029296875,2.7337639331817627,4.2317962646484375,-1.769463062286377
1772594276046293000,5.76429296875,2.9530510902404785,5.19386100769043,-1.8868536949157715
1772594276066557000,5.784556884765625,2.7077536582946777,6.215829372406006,-1.8898600339889526
1772594276086821000,5.804821044921875,2.414121627807617,6.887357711791992,-1.9006016254425049
1772594276107084000,5.825083984375,2.520966053009033,7.282493591308594,-1.6769258975982666
1772594276127348000,5.845347900390625,4.073648929595947,6.530787944793701,-1.835694670677185
1772594276147612000,5.86561181640625,5.022931098937988,5.626713275909424,-1.830295205116272
1772594276167875000,5.885875,4.464576244354248,5.471699237823486,-1.8819061517715454
1772594276188139000,5.906138916015625,3.007662534713745,5.3442840576171875,-1.8103721141815186
1772594276208403000,5.92640283203125,1.896697998046875,3.536055088043213,-1.6291835308074951
1772594276228666000,5.946666015625,0.8879141807556152,2.0879268646240234,-0.8848879337310791
1772594276248930000,5.966929931640625,0.20686745643615723,0.5317850112915039,-0.18265104293823242
1772594276269194000,5.987194091796875,-0.438539981842041,-1.2131614685058594,0.3516123294830322
1772594276289457000,6.007456787109375,-1.007021427154541,-3.1391639709472656,0.8006782531738281
1772594276309721000,6.02772119140625,-1.4494743347167969,-5.116039276123047,1.1805553436279297
1772594276329985000,6.047985107421875,-1.6393663883209229,-7.075242042541504,1.4681439399719238
1772594276350248000,6.068248046875,-1.7529857158660889,-8.76108169555664,1.6858190298080444
1772594276370512000,6.088511962890625,-1.8459699153900146,-9.820207595825195,1.79147207736969
1772594276390776000,6.108776123046875,-1.9742813110351562,-10.078012466430664,1.7834608554840088
1772594276411161000,6.1291611328125,-1.7477145195007324,-9.262454986572266,1.3007482290267944
1772594276431425000,6.149425048828125,-1.8139312267303467,-8.042896270751953,1.055483102798462
1772594276451689000,6.16968896484375,-1.7629592418670654,-6.711006164550781,1.0213994979858398
1772594276471952000,6.189951904296875,-1.5577366352081299,-5.238231658935547,0.9377973079681396
1772594276492216000,6.210216064453125,-1.2479393482208252,-3.63922119140625,0.7437989711761475
1772594276512480000,6.23047998046875,-0.773496150970459,-1.9389333724975586,0.4348483085632324
1772594276532743000,6.250742919921875,-0.14006519317626953,-0.29753971099853516,0.07262110710144043
1772594276553007000,6.271007080078125,0.6508455276489258,1.1887426376342773,-0.32135510444641113
1772594276573271000,6.29127099609375,1.4756886959075928,2.311404228210449,-0.7150130271911621
1772594276593534000,6.311533935546875,2.3328099250793457,3.207249641418457,-1.0799927711486816
1772594276613798000,6.3317978515625,3.002870559692383,3.9919636249542236,-1.3723870515823364
1772594276634062000,6.35206201171875,3.393805980682373,4.861207962036133,-1.5860565900802612
1772594276654325000,6.372324951171875,3.2170605659484863,5.984950065612793,-1.6495141983032227
1772594276674589000,6.3925888671875,2.8049185276031494,7.0536322593688965,-1.3812817335128784
1772594276694853000,6.41285302734375,2.1383297443389893,8.036151885986328,-0.5108347535133362
1772594276715117000,6.433116943359375,3.4323196411132812,7.733534812927246,-0.3986949324607849
1772594276735380000,6.4533798828125,4.4822916984558105,6.744450092315674,-1.2012333869934082
1772594276755644000,6.473643798828125,2.928506851196289,6.67817497253418,-1.885925054550171
1772594276775908000,6.493908203125,1.5071735382080078,5.820458889007568,-1.7784289121627808
1772594276796171000,6.5141708984375,0.7047430872917175,4.015508651733398,-1.3284108638763428
1772594276816435000,6.53443505859375,0.21315181255340576,2.138904571533203,-0.6246142387390137
1772594276836699000,6.554698974609375,0.01855286955833435,0.38909053802490234,-0.08624458312988281
1772594276856962000,6.574962158203125,-0.026566892862319946,-1.2026729583740234,0.20341253280639648
1772594276877226000,6.59522607421875,-0.010639406740665436,-2.863419532775879,0.42942821979522705
1772594276897490000,6.615489990234375,0.02417079359292984,-4.551961898803711,0.703892707824707
1772594276917753000,6.635753173828125,0.24014043807983398,-5.975190162658691,0.9331605434417725
1772594276938017000,6.65601708984375,0.5035696029663086,-6.977453231811523,1.0764317512512207
1772594276958281000,6.676281005859375,0.535973072052002,-7.237582206726074,1.0870192050933838
1772594276978544000,6.696544189453125,0.5162608623504639,-6.6901140213012695,0.988540768623352
1772594276998808000,6.71680810546875,0.4899759292602539,-5.445677757263184,0.7288658618927002
1772594277019072000,6.737072021484375,0.3371955156326294,-3.7092275619506836,0.537628173828125
1772594277039335000,6.7573349609375,0.19142413139343262,-2.1548709869384766,0.42982912063598633
1772594277059599000,6.77759912109375,0.0683698058128357,-0.9456396102905273,0.26862025260925293
1772594277079863000,6.797863037109375,0.005722224712371826,-0.18966102600097656,0.06639623641967773
1772594277100126000,6.8181259765625,0.007580138742923737,0.5832386016845703,-0.23169875144958496
1772594277120390000,6.838389892578125,0.061737895011901855,1.214461326599121,-0.5436701774597168
1772594277140654000,6.858654052734375,0.11002451181411743,1.6131377220153809,-0.7949972152709961
1772594277160917000,6.8789169921875,0.08604249358177185,1.4964194297790527,-0.7430932521820068
1772594277181181000,6.899180908203125,0.0521201491355896,1.1409435272216797,-0.5462353229522705
1772594277201445000,6.919445068359375,0.03093475103378296,0.6890850067138672,-0.3063371181488037
1772594277221708000,6.9397080078125,0.0014282166957855225,0.02720165252685547,-0.011007308959960938
1772594277241972000,6.959971923828125,-0.05523514747619629,-0.7417669296264648,0.2731599807739258
1772594277262236000,6.98023583984375,-0.12309110164642334,-1.4935808181762695,0.4941518306732178
1772594277282499000,7.0004990234375,-0.14180243015289307,-1.8216190338134766,0.5670919418334961
1772594277302763000,7.020762939453125,-0.15284931659698486,-2.0658340454101562,0.611480712890625
1772594277323027000,7.04102685546875,-0.15838897228240967,-2.2291860580444336,0.6336112022399902
1772594277343290000,7.0612900390625,-0.15552634000778198,-2.214442253112793,0.6335053443908691
1772594277363554000,7.081553955078125,-0.13255804777145386,-1.8406906127929688,0.5653254985809326
1772594277383818000,7.10181787109375,-0.10420489311218262,-1.4080085754394531,0.46947169303894043
1772594277404081000,7.122080810546875,-0.0687340497970581,-1.0161199569702148,0.37628650665283203
1772594277424345000,7.142344970703125,-0.038372933864593506,-0.7465496063232422,0.3022341728210449
1772594277444609000,7.162609130859375,-0.01209297776222229,-0.4676809310913086,0.20221519470214844
1772594277464872000,7.182871826171875,-0.0013844594359397888,-0.21197032928466797,0.09764766693115234
1772594277485136000,7.203135986328125,0.00002720952033996582,-0.0019512176513671875,0.0009317398071289062
1772594277505400000,7.223400146484375,-0.0068822503089904785,0.18865394592285156,-0.09322118759155273
1772594277525663000,7.2436630859375,-0.014160245656967163,0.30306053161621094,-0.15376949310302734
1772594277545927000,7.263927001953125,-0.018364787101745605,0.3922138214111328,-0.1979665756225586
1772594277566191000,7.284191162109375,-0.01611614227294922,0.45612621307373047,-0.2211451530456543
1772594277586454000,7.3044541015625,-0.006430782377719879,0.5176887512207031,-0.24021291732788086
1772594277606718000,7.324718017578125,0.005561135709285736,0.5121946334838867,-0.2249743938446045
1772594277626982000,7.34498193359375,0.014355897903442383,0.41872692108154297,-0.17261362075805664
1772594277647245000,7.3652451171875,0.015990376472473145,0.251556396484375,-0.10199189186096191
1772594277667509000,7.385509033203125,0.006603062152862549,0.09493732452392578,-0.037952423095703125
1772594277687773000,7.40577294921875,-0.0038356781005859375,-0.0516510009765625,0.020226478576660156
1772594277708036000,7.4260361328125,-0.02090632915496826,-0.27131175994873047,0.10305500030517578
1772594277728300000,7.446300048828125,-0.03593641519546509,-0.44764232635498047,0.17237234115600586
1772594277748564000,7.46656396484375,-0.05427682399749756,-0.6519670486450195,0.26108527183532715
1772594277768827000,7.486826904296875,-0.059911131858825684,-0.7703371047973633,0.32245731353759766
1772594277789091000,7.507091064453125,-0.05450713634490967,-0.8719606399536133,0.38077735900878906
1772594277809355000,7.52735498046875,-0.04070568084716797,-0.8526506423950195,0.3940567970275879
1772594277829618000,7.547617919921875,-0.024164259433746338,-0.7622213363647461,0.37601423263549805
1772594277849882000,7.567882080078125,-0.004552625119686127,-0.6460485458374023,0.3336467742919922
1772594277870146000,7.58814599609375,0.0031103864312171936,-0.5084152221679688,0.26987600326538086
1772594277890409000,7.608408935546875,0.008712679147720337,-0.45442771911621094,0.2478351593017578
1772594277910673000,7.6286728515625,0.01270216703414917,-0.40631580352783203,0.22718381881713867
1772594277930937000,7.64893701171875,0.011748075485229492,-0.34830760955810547,0.1897273063659668
1772594277951200000,7.669199951171875,0.006667435169219971,-0.187896728515625,0.09828615188598633
1772594277971464000,7.6894638671875,0.0008231401443481445,-0.030137062072753906,0.01511240005493164
1772594277991728000,7.70972802734375,-0.0015938729047775269,0.08619213104248047,-0.042156219482421875
1772594278011992000,7.729991943359375,0.00007479172199964523,0.14786434173583984,-0.06992912292480469
1772594278032255000,7.7502548828125,0.004216581583023071,0.208740234375,-0.09532046318054199
1772594278052519000,7.770518798828125,0.010862916707992554,0.2697257995605469,-0.11893677711486816
1772594278072783000,7.790783203125,0.0179864764213562,0.2988271713256836,-0.130279541015625
1772594278093046000,7.8110458984375,0.018761038780212402,0.2681541442871094,-0.11742997169494629
1772594278113310000,7.83131005859375,0.01313561201095581,0.1682720184326172,-0.07356524467468262
1772594278133574000,7.851573974609375,0.0033493638038635254,0.044170379638671875,-0.019628524780273438
1772594278153837000,7.871837158203125,-0.010870099067687988,-0.15137481689453125,0.06774330139160156
1772594278174101000,7.89210107421875,-0.029695212841033936,-0.4450569152832031,0.20230340957641602
1772594278194365000,7.912364990234375,-0.047175049781799316,-0.7744636535644531,0.3477640151977539
1772594278214628000,7.932628173828125,-0.054021209478378296,-1.1734600067138672,0.5160603523254395
1772594278234892000,7.95289208984375,-0.050136566162109375,-1.5832061767578125,0.6818242073059082
1772594278255156000,7.973156005859375,-0.01958775520324707,-2.0073537826538086,0.8477492332458496
1772594278275419000,7.9934189453125,0.025754377245903015,-2.514389991760254,1.0358924865722656
1772594278295683000,8.01368310546875,0.0820278525352478,-2.924966812133789,1.1894614696502686
1772594278315947000,8.033947021484375,0.14672893285751343,-3.2664146423339844,1.32196044921875
1772594278336210000,8.0542099609375,0.21693956851959229,-3.6039552688598633,1.45379638671875
1772594278356474000,8.07447412109375,0.2607365846633911,-3.8284854888916016,1.552295207977295
1772594278376738000,8.094738037109375,0.2953866124153137,-3.8758420944213867,1.5768873691558838
1772594278397001000,8.1150009765625,0.3265664577484131,-3.8441810607910156,1.5789566040039062
1772594278417265000,8.135264892578125,0.34681248664855957,-3.6532669067382812,1.5334014892578125
1772594278437529000,8.155529052734375,0.35708653926849365,-3.3701581954956055,1.4310624599456787
1772594278457792000,8.1757919921875,0.33635413646698,-3.066622734069824,1.315877914428711
1772594278478056000,8.196055908203125,0.30236542224884033,-2.6603641510009766,1.1440858840942383
1772594278498320000,8.21631982421875,0.22496914863586426,-2.1519384384155273,0.935481071472168
1772594278518583000,8.2365830078125,0.1366826295852661,-1.5769500732421875,0.6987502574920654
1772594278538847000,8.256846923828125,0.07096880674362183,-1.0506114959716797,0.5119566917419434
1772594278559111000,8.27711083984375,0.04006528854370117,-0.7267398834228516,0.40265893936157227
1772594278579374000,8.2973740234375,0.02387183904647827,-0.4774789810180664,0.30507993698120117
1772594278599638000,8.317637939453125,0.012606501579284668,-0.2817692756652832,0.20746946334838867
1772594278619902000,8.33790185546875,0.00847896933555603,-0.14807558059692383,0.12584829330444336
1772594278640165000,8.3581650390625,0.012670040130615234,-0.14454889297485352,0.14220905303955078
1772594278660429000,8.378428955078125,0.014224708080291748,-0.10530567169189453,0.11979103088378906
1772594278680693000,8.39869287109375,0.016726970672607422,-0.08664512634277344,0.11362600326538086
1772594278700956000,8.418955810546874,0.026627421379089355,-0.08928585052490234,0.13122272491455078
1772594278721220000,8.43922021484375,0.03233504295349121,-0.07106447219848633,0.1130075454711914
1772594278741484000,8.459484130859375,-0.030318021774291992,0.048375606536865234,-0.07834005355834961
1772594278761747000,8.479746826171874,-0.1727159023284912,0.21091985702514648,-0.3383173942565918
1772594278782011000,8.500010986328125,-0.4077482223510742,0.40157079696655273,-0.6190776824951172
1772594278802275000,8.520275146484375,-0.6913862228393555,0.5494136810302734,-0.8212885856628418
1772594278822538000,8.5405380859375,-1.0496859550476074,0.7079811096191406,-1.0171256065368652
1772594278842802000,8.560802001953125,-1.555434226989746,0.8634185791015625,-1.2159953117370605
1772594278863066000,8.581066162109375,-2.065028667449951,0.9236412048339844,-1.3067479133605957
1772594278883329000,8.6013291015625,-2.4945669174194336,0.8592467308044434,-1.2781059741973877
1772594278903593000,8.621593017578125,-2.808825969696045,0.6940504312515259,-1.1811704635620117
1772594278923857000,8.64185693359375,-2.9528088569641113,0.45504599809646606,-1.0810000896453857
1772594278944120000,8.6621201171875,-2.916172981262207,0.18914794921875,-0.9386589527130127
1772594278964384000,8.682384033203125,-2.7932348251342773,-0.04743587225675583,-0.7844738960266113
1772594278984648000,8.70264794921875,-2.601501941680908,-0.21241962909698486,-0.6319159269332886
1772594279004911000,8.7229111328125,-2.356228828430176,-0.335304856300354,-0.4883725643157959
1772594279025175000,8.743175048828125,-2.0064902305603027,-0.36947667598724365,-0.34526801109313965
1772594279045454000,8.7634541015625,-1.6588592529296875,-0.3360379934310913,-0.24966204166412354
1772594279065718000,8.783718017578124,-1.331934928894043,-0.2766073942184448,-0.17592763900756836
1772594279085981000,8.80398095703125,-1.0067863464355469,-0.21386682987213135,-0.1168784499168396
1772594279106245000,8.8242451171875,-0.8036584854125977,-0.1770569086074829,-0.08283346891403198
1772594279126509000,8.844509033203124,-0.6916818618774414,-0.165574312210083,-0.06350892782211304
1772594279146772000,8.86477197265625,-0.6584300994873047,-0.17197012901306152,-0.05379003286361694
1772594279167036000,8.885035888671876,-0.618067741394043,-0.17538166046142578,-0.04452615976333618
1772594279187300000,8.905300048828124,-0.5638093948364258,-0.17297625541687012,-0.04045140743255615
1772594279207563000,8.92556298828125,-0.5264568328857422,-0.16895747184753418,-0.03775942325592041
1772594279227827000,8.945826904296876,-0.4872264862060547,-0.16327667236328125,-0.03480172157287598
1772594279248091000,8.9660908203125,-0.44824790954589844,-0.1566452980041504,-0.031490325927734375
1772594279268354000,8.98635400390625,-0.4084739685058594,-0.1485123634338379,-0.027945399284362793
1772594279288618000,9.006617919921876,-0.3642587661743164,-0.1373136043548584,-0.024151146411895752
1772594279308882000,9.0268818359375,-0.24993896484375,-0.0964968204498291,-0.015944361686706543
1772594279329146000,9.04714599609375,-0.15545082092285156,-0.0599970817565918,-0.009597539901733398
1772594279349409000,9.067408935546876,-0.05965709686279297,-0.022979736328125,-0.003564894199371338
1772594279369673000,9.0876728515625,0.029802322387695312,0.011438846588134766,0.0017191767692565918
1772594279389937000,9.10793701171875,0.10898208618164062,0.041608572006225586,0.006052494049072266
1772594279410200000,9.128199951171876,0.18033123016357422,0.06838870048522949,0.009570389986038208
1772594279430464000,9.148464111328124,0.2484121322631836,0.09344172477722168,0.012540251016616821
1772594279450728000,9.16872802734375,0.31458377838134766,0.11719226837158203,0.014954328536987305
1772594279470991000,9.1889912109375,0.3771705627441406,0.13901066780090332,0.016764342784881592
1772594279491255000,9.209255126953124,0.4330730438232422,0.1577892303466797,0.018030941486358643
1772594279511519000,9.22951904296875,0.4157419204711914,0.15094637870788574,0.016288787126541138
1772594279531782000,9.249781982421876,0.39397430419921875,0.14267659187316895,0.014576524496078491
1772594279552046000,9.270046142578124,0.37080955505371094,0.13399267196655273,0.013136118650436401
1772594279572310000,9.29031005859375,0.3499279022216797,0.12619566917419434,0.012055456638336182
1772594279592573000,9.310572998046876,0.33325862884521484,0.11994171142578125,0.011285662651062012
1772594279612837000,9.330837158203124,0.3241157531738281,0.11632275581359863,0.010935217142105103
1772594279633101000,9.35110107421875,0.3183107376098633,0.11389708518981934,0.010913252830505371
1772594279653364000,9.371364013671876,0.3166513442993164,0.11304402351379395,0.011398851871490479
1772594279673628000,9.3916279296875,0.3166341781616211,0.11287283897399902,0.012243330478668213
1772594279693892000,9.41189208984375,0.3146991729736328,0.11218452453613281,0.013009309768676758
1772594279714155000,9.432155029296876,0.3119325637817383,0.11132240295410156,0.013856589794158936
1772594279734419000,9.4524189453125,0.3067941665649414,0.10975265502929688,0.01461094617843628
1772594279754683000,9.472682861328124,0.29841136932373047,0.10715937614440918,0.015066742897033691
1772594279774946000,9.492946044921876,0.28794288635253906,0.10392403602600098,0.015249401330947876
1772594279795210000,9.5132099609375,0.27796459197998047,0.100921630859375,0.015437006950378418
1772594279815474000,9.533473876953124,0.26300716400146484,0.09631586074829102,0.015167295932769775
1772594279835737000,9.553737060546876,0.2450695037841797,0.09057927131652832,0.014539062976837158
1772594279856001000,9.5740009765625,0.2227029800415039,0.08306097984313965,0.013353466987609863
1772594279876265000,9.594264892578124,0.1992349624633789,0.07493400573730469,0.011868119239807129
1772594279896528000,9.61452783203125,0.18023967742919922,0.06837630271911621,0.01058816909790039
1772594279916792000,9.6347919921875,0.16080856323242188,0.061560869216918945,0.009224653244018555
1772594279937056000,9.655055908203124,0.14326095581054688,0.055328369140625,0.007932662963867188
1772594279957319000,9.67531884765625,0.12837600708007812,0.050005435943603516,0.006868213415145874
1772594279977583000,9.6955830078125,0.11389923095703125,0.04476785659790039,0.005907833576202393
1772594279997847000,9.715846923828124,0.09969902038574219,0.03954672813415527,0.004994988441467285
1772594280018110000,9.73610986328125,0.08584976196289062,0.034310102462768555,0.0042008161544799805
1772594280038374000,9.756373779296876,0.07494449615478516,0.030150413513183594,0.0035986900329589844
1772594280058638000,9.77663818359375,0.06816673278808594,0.027570247650146484,0.0032448172569274902
1772594280078901000,9.79690087890625,0.06368160247802734,0.02586531639099121,0.0030315518379211426
1772594280099165000,9.8171650390625,0.06038188934326172,0.024593830108642578,0.002894580364227295
1772594280119429000,9.83742919921875,0.05981636047363281,0.024387359619140625,0.0028984546661376953
1772594280139692000,9.857692138671876,0.059617042541503906,0.02430558204650879,0.0029400885105133057
1772594280159956000,9.8779560546875,0.05946826934814453,0.024231672286987305,0.002978593111038208
1772594280180220000,9.898219970703124,0.05838203430175781,0.02375483512878418,0.002954840660095215
1772594280200483000,9.918483154296876,0.05571937561035156,0.022625207901000977,0.0028409063816070557
1772594280220747000,9.9387470703125,0.052168846130371094,0.021135330200195312,0.0026686787605285645
1772594280241011000,9.959010986328124,0.05014991760253906,0.02027606964111328,0.0025555193424224854
1772594280261274000,9.979274169921876,0.050556182861328125,0.020395755767822266,0.0025479495525360107
1772594280281538000,9.9995380859375,0.053488731384277344,0.021539926528930664,0.002642393112182617
1772594280301802000,10.019802001953124,0.0538787841796875,0.02166891098022461,0.0025862455368041992
