time,seconds_elapsed,z,y,x
1772594270554930000,0.272929931640625,0.0007981689414009452,-0.0039908443577587605,0.0017293660202994943
1772594270575071000,0.293071044921875,0.0009311970788985491,-0.0006651407456956804,-0.004123872611671686
1772594270595366000,0.313365966796875,0.0007981689414009452,-0.003325703786686063,-0.0009311970788985491
1772594270615629000,0.333629150390625,0.0034587320405989885,0.0039908443577587605,-0.003325703786686063
1772594270635893000,0.35389306640625,0.25554707646369934,-0.9873349666595459,0.6852279901504517
1772594270656157000,0.374156982421875,0.3606393337249756,-2.0377252101898193,-0.45242875814437866
1772594270676420000,0.394420166015625,1.4635757207870483,-3.023463726043701,-2.054752826690674
1772594270696684000,0.41468408203125,2.455965757369995,-2.073908805847168,-3.32197904586792
1772594270716948000,0.434947998046875,2.7558112144470215,-2.8398849964141846,-3.089977979660034
1772594270737211000,0.4552109375,3.268767833709717,-2.496406316757202,-1.9070916175842285
1772594270757475000,0.47547509765625,3.9045093059539795,-1.8098479509353638,-0.9699082374572754
1772594270777739000,0.495739013671875,2.0697851181030273,-2.9227614402770996,-1.5978010892868042
1772594270798002000,0.516001953125,1.856008768081665,-3.6067922115325928,-2.6331591606140137
1772594270818266000,0.53626611328125,0.9647201299667358,-3.0017802715301514,-2.655508041381836
1772594270838530000,0.556530029296875,0.36635953187942505,-1.7906919717788696,-1.8046599626541138
1772594270858793000,0.57679296875,0.39256608486175537,-0.6055441498756409,-0.5170804262161255
1772594270879057000,0.597056884765625,0.7353796362876892,0.11719780415296555,0.4056028425693512
1772594270899321000,0.617321044921875,1.0720739364624023,0.470919668674469,1.037353515625
1772594270919584000,0.637583984375,0.8539077043533325,0.3639650344848633,1.314717173576355
1772594270939848000,0.657847900390625,0.03924330323934555,-0.2701801657676697,0.9784220457077026
1772594270960112000,0.678112060546875,-0.7625173926353455,-0.6060762405395508,0.2514232099056244
1772594270980375000,0.698375,-1.300882339477539,-0.3933642506599426,-0.08806463330984116
1772594271000639000,0.718638916015625,-1.4321811199188232,-0.17080815136432648,-0.11759688705205917
1772594271020903000,0.73890283203125,-1.1505604982376099,-0.1048261821269989,-0.09365181624889374
1772594271041166000,0.759166015625,-0.8402057886123657,-0.09378484636545181,-0.1081518903374672
1772594271061430000,0.779429931640625,-0.6904160976409912,-0.12531252205371857,-0.34999707341194153
1772594271081694000,0.79969384765625,-0.9193575382232666,-0.25275349617004395,-0.941839337348938
1772594271101957000,0.81995703125,-0.396822988986969,-0.35052919387817383,-1.8254122734069824
1772594271122221000,0.840220947265625,-0.474378377199173,-0.4725160002708435,-2.8851146697998047
1772594271142485000,0.860485107421875,-0.23732222616672516,-0.45242875814437866,-3.1258955001831055
1772594271162748000,0.880747802734375,0.4121212065219879,-0.23200109601020813,-2.4962732791900635
1772594271183012000,0.90101220703125,0.9201557040214539,0.0065183793194592,-1.607911229133606
1772594271203276000,0.921276123046875,0.7802101373672485,0.37394213676452637,-0.4951307773590088
1772594271223539000,0.9415390625,0.11081244796514511,0.6552966833114624,0.977756917476654
1772594271243803000,0.961802978515625,-0.7730265855789185,0.7965725660324097,2.1974921226501465
1772594271264067000,0.982067138671875,-0.7329851388931274,0.35930904746055603,2.538975238800049
1772594271284330000,1.002330078125,-0.2717765271663666,0.2830839157104492,2.0313398838043213
1772594271304594000,1.022593994140625,0.13382631540298462,-0.38950642943382263,0.6619480848312378
1772594271324858000,1.042858154296875,0.3095565140247345,-0.9475595355033875,-0.6736545562744141
1772594271345121000,1.06312109375,0.4576168358325958,-0.9669816493988037,-0.9723027348518372
1772594271365385000,1.083385009765625,0.5951679348945618,-0.8022927641868591,-0.6861591935157776
1772594271385649000,1.10364892578125,0.7361778020858765,-0.7712972164154053,-0.4215662181377411
1772594271405912000,1.123912109375,0.870935320854187,-0.8594948649406433,-0.6203102469444275
1772594271426176000,1.144176025390625,0.6836316585540771,-0.8842381238937378,-1.0207250118255615
1772594271446440000,1.16443994140625,0.37061643600463867,-0.7019895315170288,-1.1681201457977295
1772594271466703000,1.184703125,0.03525245934724808,-0.45535537600517273,-1.1985836029052734
1772594271486967000,1.204967041015625,-0.28507933020591736,-0.23479469120502472,-1.330946683883667
1772594271507231000,1.22523095703125,-0.16455581784248352,-0.08513801544904709,-1.6001956462860107
1772594271527494000,1.245493896484375,0.13183090090751648,-0.23692314326763153,-2.0036699771881104
1772594271547758000,1.265758056640625,0.6233699321746826,-0.5935716032981873,-2.5070486068725586
1772594271568022000,1.28602197265625,0.9252107739448547,-0.8347516655921936,-2.9107890129089355
1772594271588285000,1.306284912109375,1.046000361442566,-0.5938376784324646,-2.10556960105896
1772594271608549000,1.326549072265625,1.2480701208114624,-0.050018586218357086,-0.0735645666718483
1772594271628813000,1.34681298828125,1.822751760482788,0.6066083908081055,1.9830507040023804
1772594271649076000,1.367075927734375,2.9320735931396484,0.8610912561416626,3.064303398132324
1772594271669340000,1.38733984375,2.878862142562866,1.185147762298584,3.2728915214538574
1772594271689604000,1.40760400390625,0.2168358862400055,1.6317232847213745,3.1936068534851074
1772594271709867000,1.427866943359375,-4.039931774139404,1.521975040435791,2.1021108627319336
1772594271730131000,1.448130859375,-7.342488765716553,0.637337863445282,-0.06850949674844742
1772594271750395000,1.468394775390625,-8.615302085876465,-0.48701605200767517,-5.852307319641113
1772594271770659000,1.4886591796875,-6.132331848144531,-1.2438132762908936,-10.972294807434082
1772594271790922000,1.508921875,-2.094661235809326,-0.16149617731571198,-2.7534167766571045
1772594271811186000,1.52918603515625,1.8525500297546387,-0.5365025401115417,2.886976957321167
1772594271831450000,1.5494501953125,5.219359397888184,-1.1166383028030396,5.119322299957275
1772594271851713000,1.569713134765625,5.725930690765381,-0.5708237886428833,4.9062113761901855
1772594271871977000,1.58997705078125,4.334855556488037,0.21098265051841736,3.774939775466919
1772594271892241000,1.610240966796875,2.7041962146759033,0.2804233431816101,1.6700353622436523
1772594271912504000,1.630504150390625,1.3211026191711426,0.49380049109458923,1.0590370893478394
1772594271932768000,1.65076806640625,0.3253868520259857,0.4808967709541321,0.477970153093338
1772594271953032000,1.671031982421875,-0.24051490426063538,0.1525832861661911,-0.0055871824733912945
1772594271973295000,1.691295166015625,-0.47996556758880615,-0.3009096682071686,-0.39256608486175537
1772594271993559000,1.71155908203125,-0.466396689414978,-0.6326819062232971,-0.827302098274231
1772594272013823000,1.731822998046875,-0.38325411081314087,-0.508167564868927,-1.1976524591445923
1772594272034086000,1.7520859375,-0.26525813341140747,-0.13196392357349396,-1.5815716981887817
1772594272054350000,1.77235009765625,0.02953225001692772,-0.31966665387153625,-2.05302357673645
1772594272074614000,1.792614013671875,0.18983116745948792,-0.46400219202041626,-2.5723652839660645
1772594272094877000,1.812876953125,0.09245456755161285,-0.4049376845359802,-2.7522194385528564
1772594272115141000,1.83314111328125,0.06757830083370209,0.04522957280278206,-1.6853336095809937
1772594272135405000,1.853405029296875,0.15378054976463318,0.8982060551643372,0.3695521950721741
1772594272155668000,1.87366796875,0.044697459787130356,1.6012598276138306,2.1831250190734863
1772594272175932000,1.893931884765625,-0.2986482083797455,1.2525930404663086,2.8410823345184326
1772594272196196000,1.914196044921875,-0.6430580615997314,0.6732555031776428,2.7044622898101807
1772594272216459000,1.934458984375,-1.0620967149734497,1.1247529983520508,2.434282064437866
1772594272236723000,1.954722900390625,-1.3675293922424316,1.1624000072479248,2.3984975814819336
1772594272256987000,1.97498681640625,-1.6181544065475464,0.981880784034729,2.189244270324707
1772594272277250000,1.99525,-2.176872730255127,-0.16814757883548737,-0.26592326164245605
1772594272297514000,2.015513916015625,-4.724894046783447,-2.613737106323242,-6.850683689117432
1772594272317778000,2.03577783203125,-5.8398027420043945,-4.988156795501709,-13.184952735900879
1772594272338041000,2.056041015625,-0.9402430057525635,-3.149707555770874,-3.7803940773010254
1772594272358305000,2.076304931640625,4.587874889373779,-2.0592758655548096,4.069996356964111
1772594272378569000,2.09656884765625,5.839669704437256,-0.32365748286247253,6.874629020690918
1772594272398832000,2.11683203125,3.610783100128174,1.3421210050582886,6.188469409942627
1772594272419096000,2.137095947265625,2.1405560970306396,0.8255727291107178,4.06294584274292
1772594272439360000,2.157360107421875,1.9358257055282593,0.755998969078064,2.354332208633423
1772594272459623000,2.177622802734375,1.5751863718032837,0.5001858472824097,1.355157732963562
1772594272479887000,2.19788720703125,0.8541737794876099,-0.02035330794751644,0.7456228137016296
1772594272500151000,2.218151123046875,0.06930766999721527,-0.656360924243927,0.13528962433338165
1772594272520414000,2.2384140625,-0.3605062961578369,-0.9112428426742554,-0.4161120653152466
1772594272540678000,2.258677978515625,-0.5716219544410706,-0.6820353269577026,-0.8733298182487488
1772594272560942000,2.278942138671875,-0.7505448460578918,-0.22588180005550385,-1.3846900463104248
1772594272581205000,2.299205078125,-1.0764638185501099,0.005986266769468784,-1.8725042343139648
1772594272601469000,2.319468994140625,-1.6180213689804077,0.13914744555950165,-2.264937400817871
1772594272621733000,2.339733154296875,-1.7503844499588013,0.15684019029140472,-2.4285619258880615
1772594272641996000,2.35999609375,-1.0098166465759277,-0.05334429070353508,-2.162904739379883
1772594272662260000,2.380260009765625,-0.00013302815204951912,-0.4302130341529846,-1.4960346221923828
1772594272682524000,2.40052392578125,0.5742825269699097,-0.492736279964447,-0.6493104100227356
1772594272702787000,2.420787109375,0.49034178256988525,-0.42302951216697693,-0.34001997113227844
1772594272723051000,2.441051025390625,0.16149617731571198,-0.15484477579593658,-0.12464737892150879
1772594272743315000,2.46131494140625,-0.0867343544960022,-0.09950505942106247,-0.08300956338644028
1772594272783842000,2.501842041015625,-0.8032239675521851,0.10123442113399506,0.4082633852958679
1772594272814238000,2.532238037109375,-2.9788994789123535,0.8202515840530396,-1.4317820072174072
1772594272834501000,2.552501220703125,-3.1846940517425537,-2.878995180130005,-9.461627006530762
1772594272854765000,2.57276513671875,0.14114287495613098,-3.775338888168335,-5.185038089752197
1772594272875029000,2.593029052734375,2.6281042098999023,-1.368194580078125,3.3036210536956787
1772594272895292000,2.6132919921875,1.3906762599945068,1.4655711650848389,6.307929039001465
1772594272915556000,2.63355615234375,-0.25115716457366943,2.4701998233795166,5.6075358390808105
1772594272935820000,2.653820068359375,0.1970146894454956,1.9190641641616821,4.147551536560059
1772594272956083000,2.6740830078125,1.1792945861816406,1.164528489112854,2.8571786880493164
1772594272976347000,2.694346923828125,1.3975937366485596,0.633613109588623,1.5167869329452515
1772594272996611000,2.714611083984375,1.112248420715332,0.6175166964530945,0.8835729956626892
1772594273016874000,2.7348740234375,0.7321869730949402,0.5394291281700134,0.6046129465103149
1772594273037138000,2.755137939453125,0.32804742455482483,0.22707904875278473,0.28414812684059143
1772594273067534000,2.7855341796875,-0.11214273422956467,0.024078095331788063,-0.3195336163043976
1772594273087797000,2.805796875,-0.39988261461257935,0.07582604885101318,-0.8133341073989868
1772594273108061000,2.82606103515625,-0.5329107642173767,0.02633957378566265,-1.3937360048294067
1772594273128325000,2.8463251953125,-0.6576911807060242,-0.02101844735443592,-2.010986566543579
1772594273148588000,2.866588134765625,-0.8887611031532288,-0.07329851388931274,-2.49560809135437
1772594273168852000,2.88685205078125,-0.9454310536384583,0.10761977732181549,-2.266533613204956
1772594273189116000,2.907115966796875,-0.7151593565940857,0.4296809434890747,-1.1943267583847046
1772594273209379000,2.927379150390625,-0.7238062024116516,0.7808752655982971,-0.12172076106071472
1772594273229643000,2.94764306640625,-1.0284405946731567,1.0574407577514648,0.5648375153541565
1772594273249907000,2.967906982421875,-1.6353150606155396,1.0207250118255615,0.7066455483436584
1772594273270170000,2.988170166015625,-1.5652092695236206,0.7763522863388062,0.24384060502052307
1772594273290434000,3.00843408203125,-1.0328305959701538,0.5180116295814514,-0.07728935778141022
1772594273310698000,3.028697998046875,-1.194991946220398,0.3194005787372589,-0.31740516424179077
1772594273330961000,3.0489609375,-2.0733768939971924,0.266854465007782,-0.8633527159690857
1772594273351225000,3.06922509765625,-2.7415771484375,0.18623940646648407,-1.3203043937683105
1772594273371489000,3.089489013671875,-2.0467710494995117,-1.9073576927185059,-3.8825595378875732
1772594273391752000,3.109751953125,0.36250171065330505,-6.965886116027832,-7.536576747894287
1772594273412016000,3.13001611328125,1.7308292388916016,-4.7864861488342285,-1.1996479034423828
1772594273432280000,3.150280029296875,3.093170642852783,-1.1330007314682007,6.077524185180664
1772594273452543000,3.17054296875,2.782416820526123,0.11719780415296555,6.923849105834961
1772594273472807000,3.190806884765625,1.448277473449707,0.785531222820282,5.016225337982178
1772594273493071000,3.211071044921875,0.5674980878829956,1.0142066478729248,3.5668838024139404
1772594273513334000,3.231333984375,1.759297251701355,1.071807861328125,0.901398777961731
1772594273533598000,3.251597900390625,2.2002856731414795,1.1392531394958496,1.3467769622802734
1772594273553862000,3.27186181640625,1.309529185295105,1.0914959907531738,1.0248489379882812
1772594273574125000,3.292125,0.240913987159729,0.9105777144432068,0.6026175022125244
1772594273594389000,3.312388916015625,-0.32086390256881714,0.5637733340263367,0.19036328792572021
1772594273614653000,3.33265283203125,-0.5504704713821411,0.1179959699511528,-0.21164779365062714
1772594273634916000,3.352916015625,-0.5146859288215637,-0.25168925523757935,-0.603681743144989
1772594273655180000,3.373179931640625,-0.47504353523254395,-0.38019445538520813,-0.8415361046791077
1772594273675444000,3.39344384765625,-0.6063423156738281,-0.22654694318771362,-1.1679872274398804
1772594273695707000,3.413706787109375,-0.8133341073989868,-0.1541796326637268,-1.6538059711456299
1772594273715971000,3.43397119140625,-1.000903844833374,-0.056669991463422775,-2.1703543663024902
1772594273736235000,3.454235107421875,-1.250065565109253,-0.0746287927031517,-2.6669483184814453
1772594273756498000,3.474497802734375,-1.48193359375,-0.011174364946782589,-2.9677250385284424
1772594273776762000,3.49476220703125,-1.6342508792877197,0.3497309982776642,-2.6873016357421875
1772594273797026000,3.515026123046875,-1.8762290477752686,0.8058845400810242,-1.8176966905593872
1772594273817289000,3.5352890625,-1.7944167852401733,1.1389870643615723,-0.6059432029724121
1772594273837553000,3.555552978515625,-1.1839505434036255,1.2548545598983765,0.7244713306427002
1772594273857817000,3.575817138671875,-1.28225839138031,1.582901954650879,1.692384123802185
1772594273878080000,3.596080078125,-1.6107048988342285,2.251368522644043,3.235776662826538
1772594273898344000,3.616343994140625,-1.9529863595962524,2.4144608974456787,4.058423042297363
1772594273918608000,3.63660791015625,-2.1122210025787354,0.9330594539642334,1.7902928590774536
1772594273938871000,3.65687109375,-1.0956199169158936,-1.3536944389343262,-1.1871432065963745
1772594273959135000,3.677135009765625,2.798513174057007,-3.1940059661865234,-0.42901578545570374
1772594273979399000,3.69739892578125,5.6523661613464355,-3.4778881072998047,1.932766079902649
1772594273999662000,3.717662109375,3.5585031509399414,-2.2299509048461914,2.2050745487213135
1772594274019926000,3.737926025390625,0.9241465926170349,-0.9257429242134094,1.675622582435608
1772594274040190000,3.75818994140625,0.7731596231460571,-0.2858774960041046,1.2535243034362793
1772594274060453000,3.778453125,0.9362521171569824,-0.127840057015419,0.8142653107643127
1772594274080717000,3.798717041015625,1.2056341171264648,-0.019688166677951813,0.4565526247024536
1772594274100981000,3.81898095703125,1.185945987701416,0.6384021043777466,0.16921180486679077
1772594274121244000,3.839243896484375,0.7666412591934204,1.230377435684204,-0.0905921682715416
1772594274141508000,3.859508056640625,0.3035702407360077,1.0670188665390015,-0.14406949281692505
1772594274161772000,3.87977197265625,-0.0960463285446167,0.7170217633247375,-0.19023025035858154
1772594274182035000,3.900034912109375,-0.27297377586364746,0.47052058577537537,-0.3324373662471771
1772594274202299000,3.920298828125,-0.463204026222229,0.35970813035964966,-0.9116419553756714
1772594274222563000,3.94056298828125,-0.7220768332481384,0.019555138424038887,-1.7167283296585083
1772594274242826000,3.960825927734375,-0.8269029855728149,-0.470254510641098,-2.5574662685394287
1772594274263090000,3.98108984375,-0.837279200553894,-0.6747187972068787,-3.195735216140747
1772594274283354000,4.00135400390625,-1.0058258771896362,-0.5426218509674072,-3.168464422225952
1772594274303617000,4.021616943359375,-1.1903358697891235,-0.22960658371448517,-2.370295524597168
1772594274323881000,4.041880859375,-1.4603830575942993,0.10881702601909637,-1.601925015449524
1772594274344145000,4.062144775390625,-1.5698652267456055,0.5470117330551147,-0.6799069046974182
1772594274364409000,4.0824091796875,-1.4103645086288452,0.6517049074172974,-0.27736368775367737
1772594274384672000,4.102672119140625,-0.5810669660568237,0.5016491413116455,0.2655241787433624
1772594274404936000,4.12293603515625,-0.014367040246725082,0.5144198536872864,0.6284250020980835
1772594274425200000,4.1432001953125,0.07542695850133896,0.6270946860313416,0.7337833046913147
1772594274445463000,4.163463134765625,-0.08101414144039154,0.7649118900299072,0.7907193303108215
1772594274465727000,4.18372705078125,-0.31301525235176086,0.205794557929039,-0.2414460927248001
1772594274485991000,4.203990966796875,0.021417532116174698,-2.2226343154907227,-3.257859468460083
1772594274506254000,4.224254150390625,1.658195972442627,-3.593489408493042,-2.5799479484558105
1772594274526518000,4.24451806640625,3.1591525077819824,-0.9556742310523987,3.341933250427246
1772594274546782000,4.264781982421875,1.852816104888916,1.9126787185668945,6.241281986236572
1772594274567045000,4.285045166015625,0.26379483938217163,0.5096308588981628,5.2522172927856445
1772594274587309000,4.30530908203125,0.12118864804506302,0.7944441437721252,3.1133909225463867
1772594274607573000,4.325572998046875,0.4528278410434723,0.8608251810073853,1.5298237800598145
1772594274627836000,4.3458359375,0.5871862769126892,0.6727233529090881,0.7740908265113831
1772594274648100000,4.36610009765625,0.47876831889152527,0.4489700198173523,0.41305240988731384
1772594274668364000,4.386364013671875,0.3780660033226013,0.12584462761878967,0.13848230242729187
1772594274688627000,4.406626953125,0.30170783400535583,-0.18623940646648407,-0.18198251724243164
1772594274708891000,4.426890869140625,0.11347301304340363,-0.2288084179162979,-0.50324547290802
1772594274729155000,4.447155029296875,-0.029266193509101868,-0.10948216915130615,-0.7791458964347839
1772594274749418000,4.46741796875,-0.23013870418071747,-0.04549562931060791,-1.2234599590301514
1772594274769682000,4.487681884765625,-0.5764110088348389,0.1229180097579956,-1.5407320261001587
1772594274789946000,4.507946044921875,-0.9852064847946167,0.14845941960811615,-1.7769900560379028
1772594274810209000,4.528208984375,-1.464506983757019,-0.09139034152030945,-2.052358388900757
1772594274830473000,4.548472900390625,-1.7690083980560303,0.028468023985624313,-1.8429720401763916
1772594274850737000,4.56873681640625,-1.97280752658844,0.04310112074017525,-0.6624801754951477
1772594274871000000,4.589,-2.1843223571777344,0.6580902934074402,-0.44311678409576416
1772594274891264000,4.609263916015625,-2.4630162715911865,0.4707866311073303,-0.3555842638015747
1772594274911528000,4.62952783203125,-1.945935845375061,0.3138134181499481,-0.6755169630050659
1772594274931791000,4.649791015625,-1.0529178380966187,0.38338714838027954,0.0999041423201561
1772594274952055000,4.670054931640625,-0.7697008848190308,0.9588668942451477,1.138321876525879
1772594274972319000,4.690319091796875,-1.3775064945220947,1.7175264358520508,2.0397207736968994
1772594274992582000,4.710581787109375,-2.2540290355682373,2.3436899185180664,2.7085862159729004
1772594275012846000,4.73084619140625,-2.272120952606201,1.393203854560852,1.271882176399231
1772594275033110000,4.751110107421875,-0.5688284039497375,-1.7020951509475708,-2.111954927444458
1772594275053373000,4.771373046875,1.5847643613815308,-9.604632377624512,-9.743380546569824
1772594275073637000,4.79163720703125,3.346722364425659,-10.64118766784668,-5.934252738952637
1772594275093901000,4.811901123046875,4.366915225982666,-1.7195218801498413,5.2302680015563965
1772594275114164000,4.8321640625,2.425901412963867,4.07332181930542,9.657444953918457
1772594275134428000,4.852427978515625,0.7716963291168213,2.0622024536132812,7.253359794616699
1772594275154692000,4.872692138671875,0.7961735129356384,1.692783236503601,4.271001815795898
1772594275174955000,4.892955078125,1.1776982545852661,0.9322612881660461,2.3295888900756836
1772594275195219000,4.913218994140625,1.2426159381866455,0.6014202833175659,1.2407535314559937
1772594275215483000,4.93348291015625,0.8912886381149292,0.3429465889930725,0.634544312953949
1772594275235746000,4.95374609375,0.46506643295288086,-0.07649118453264236,0.233198344707489
1772594275256010000,4.974010009765625,0.33735939860343933,-0.5813330411911011,-0.07489485293626785
1772594275276274000,4.99427392578125,0.1618952602148056,-0.6419938802719116,-0.5061721205711365
1772594275296537000,5.014537109375,-0.09564723819494247,-0.6544985175132751,-0.963655948638916
1772594275316801000,5.034801025390625,-0.3759375512599945,-0.8481875061988831,-1.4401627779006958
1772594275337065000,5.05506494140625,-0.493002325296402,-0.9985092878341675,-1.9930278062820435
1772594275357328000,5.075327880859375,-0.7258015871047974,-1.024582862854004,-2.5207505226135254
1772594275377592000,5.095592041015625,-1.2114874124526978,-0.8193203806877136,-2.854119062423706
1772594275397856000,5.11585595703125,-1.9283760786056519,-0.07117006182670593,-2.3708276748657227
1772594275418119000,5.136118896484375,-2.345419406890869,0.7244713306427002,-1.2379599809646606
1772594275438383000,5.156383056640625,-2.471263885498047,1.300882339477539,-0.3332355320453644
1772594275458647000,5.17664697265625,-2.215317726135254,1.117835521697998,-0.33070799708366394
1772594275478910000,5.196909912109375,-1.2791987657546997,0.4078643023967743,-0.38378623127937317
1772594275499174000,5.217173828125,0.10442709922790527,-0.10988125205039978,0.3578457236289978
1772594275519438000,5.23743798828125,1.5339475870132446,-0.07422970980405807,2.1237945556640625
1772594275539701000,5.257700927734375,1.78656804561615,0.7069116234779358,3.844646692276001
1772594275559965000,5.27796484375,-0.5170804262161255,1.1287438869476318,3.239368438720703
1772594275580229000,5.29822900390625,-3.1382670402526855,-1.2269186973571777,-2.831770181655884
1772594275600492000,5.318491943359375,-2.494809865951538,-5.075955390930176,-8.869119644165039
1772594275620756000,5.338755859375,1.414621353149414,-5.143533706665039,-3.713747024536133
1772594275641020000,5.35902001953125,5.071033000946045,-1.7384119033813477,5.373405933380127
1772594275661284000,5.3792841796875,1.6663106679916382,-0.8976739645004272,7.764853000640869
1772594275681547000,5.399547119140625,-0.27523523569107056,-1.7436000108718872,4.896234035491943
1772594275701811000,5.41981103515625,0.6280258893966675,-0.6880216002464294,3.014816999435425
1772594275722075000,5.440074951171875,2.120734691619873,0.16123011708259583,1.8915272951126099
1772594275742338000,5.460338134765625,2.3216073513031006,0.18584032356739044,1.0929592847824097
1772594275762602000,5.48060205078125,1.8179627656936646,0.08114717155694962,0.58505779504776
1772594275782866000,5.500865966796875,1.1055970191955566,-0.04296809434890747,0.21750102937221527
1772594275803129000,5.521129150390625,0.2797582149505615,-0.12943638861179352,-0.15497779846191406
1772594275823393000,5.54139306640625,-0.013568871654570103,-0.37686875462532043,-0.8105405569076538
1772594275843657000,5.561656982421875,0.004655985161662102,-0.6080716848373413,-1.5243695974349976
1772594275863920000,5.581920166015625,-1.5330164432525635,-0.4703875482082367,-2.0973217487335205
1772594275884184000,5.60218408203125,-2.05102801322937,-0.28241875767707825,-2.507314682006836
1772594275904448000,5.622447998046875,-1.4070388078689575,-0.015830349177122116,-2.218510389328003
1772594275924711000,5.6427109375,-1.004495620727539,0.31913453340530396,-1.4194103479385376
1772594275944975000,5.66297509765625,-0.5575209856033325,0.2888041138648987,-0.6910812258720398
1772594275965239000,5.683239013671875,-0.12717491388320923,0.3062308132648468,-0.46134161949157715
1772594275985502000,5.703501953125,0.5670990347862244,0.02979830652475357,-0.3446759283542633
1772594276005766000,5.723765869140625,1.20097815990448,-0.6046129465103149,-0.8799812197685242
1772594276026030000,5.744030029296875,1.2962262630462646,-0.8133341073989868,-1.1532210111618042
1772594276046293000,5.76429296875,1.6049846410751343,0.02447718009352684,0.663278341293335
1772594276066557000,5.784556884765625,1.951922059059143,1.3729835748672485,3.7154762744903564
1772594276086821000,5.804821044921875,1.6871960163116455,2.3800065517425537,5.794041156768799
1772594276107084000,5.825083984375,-0.5631081461906433,1.9380871057510376,4.017317295074463
1772594276127348000,5.845347900390625,-2.873408079147339,-0.45482325553894043,-2.103574275970459
1772594276147612000,5.86561181640625,-4.809765815734863,-4.926165580749512,-12.574485778808594
1772594276167875000,5.885875,-5.072230339050293,-5.0880608558654785,-12.93698787689209
1772594276188139000,5.906138916015625,-0.7598568201065063,-1.3945341110229492,-1.3386622667312622
1772594276208403000,5.92640283203125,1.933298110961914,2.4177865982055664,7.5621185302734375
1772594276228666000,5.946666015625,0.08354167640209198,3.2571942806243896,7.046235084533691
1772594276248930000,5.966929931640625,0.2228221595287323,1.9152063131332397,4.661705493927002
1772594276269194000,5.987194091796875,2.6132049560546875,0.560048520565033,3.4153647422790527
1772594276289457000,6.007456787109375,3.627943754196167,-0.17586322128772736,2.2644052505493164
1772594276309721000,6.02772119140625,2.797183036804199,-0.03631668537855148,1.2315746545791626
1772594276329985000,6.047985107421875,1.5448559522628784,0.10256470739841461,1.5166540145874023
1772594276350248000,6.068248046875,0.8049533367156982,0.008779858238995075,1.2345012426376343
1772594276370512000,6.088511962890625,0.3857816457748413,-0.07396364957094193,0.6830995678901672
1772594276390776000,6.108776123046875,0.3562493920326233,-0.4533599317073822,0.15564294159412384
1772594276411161000,6.1291611328125,0.027536828070878983,-0.6555627584457397,-0.589580774307251
1772594276431425000,6.149425048828125,-0.578273355960846,-0.5949019193649292,-1.5253007411956787
1772594276451689000,6.16968896484375,-1.0848445892333984,-0.45429113507270813,-2.7104485034942627
1772594276471952000,6.189951904296875,-1.4394975900650024,-0.1179959699511528,-3.7858481407165527
1772594276492216000,6.210216064453125,-0.9566054344177246,0.004123872611671686,-3.835866689682007
1772594276512480000,6.23047998046875,-0.9705734252929688,0.5101629495620728,-2.8606374263763428
1772594276532743000,6.250742919921875,-0.48754817247390747,0.680971086025238,-1.5966038703918457
1772594276553007000,6.271007080078125,0.3063638210296631,0.36409804224967957,-0.6385351419448853
1772594276573271000,6.29127099609375,1.1224915981292725,0.2107165902853012,0.28574445843696594
1772594276593534000,6.311533935546875,1.4055755138397217,0.3919009268283844,1.0446701049804688
1772594276613798000,6.3317978515625,1.3361347913742065,0.43832775950431824,1.123289704322815
1772594276634062000,6.35206201171875,1.2133498191833496,0.2826848328113556,0.9252107739448547
1772594276654325000,6.372324951171875,1.120097041130066,0.03777999430894852,0.755067765712738
1772594276674589000,6.3925888671875,1.0070230960845947,0.010243168100714684,1.0941565036773682
1772594276694853000,6.41285302734375,1.2097580432891846,0.6912142634391785,3.335148811340332
1772594276715117000,6.433116943359375,1.3866854906082153,1.155482530593872,5.163620948791504
1772594276735380000,6.4533798828125,-1.0060919523239136,-1.760494589805603,-4.833445072174072
1772594276755644000,6.473643798828125,-6.361406326293945,-5.055202960968018,-16.58595085144043
1772594276775908000,6.493908203125,-3.0874502658843994,-0.0007981689414009452,-0.021816616877913475
1772594276796171000,6.5141708984375,-0.2414460927248001,3.0765421390533447,11.278260231018066
1772594276816435000,6.53443505859375,0.6235029697418213,2.0357298851013184,8.606389045715332
1772594276836699000,6.554698974609375,0.9950505495071411,2.678654909133911,4.414672374725342
1772594276856962000,6.574962158203125,2.9119863510131836,3.2860615253448486,3.081597089767456
1772594276877226000,6.59522607421875,4.086358547210693,3.276616334915161,2.2855567932128906
1772594276897490000,6.615489990234375,3.149707555770874,2.6704070568084717,1.6608564853668213
1772594276917753000,6.635753173828125,0.7187511324882507,1.4639748334884644,1.022720456123352
1772594276938017000,6.65601708984375,-0.8987382054328918,0.441387414932251,0.5144198536872864
1772594276958281000,6.676281005859375,-1.2430150508880615,-0.014367040246725082,0.07742238789796829
1772594276978544000,6.696544189453125,-1.2569830417633057,-0.21763405203819275,-0.2926619350910187
1772594276998808000,6.71680810546875,-1.3411898612976074,-0.4423186182975769,-0.5035115480422974
1772594277019072000,6.737072021484375,-1.5368742942810059,-0.6361406445503235,-0.45083239674568176
1772594277039335000,6.7573349609375,-1.9400825500488281,-0.9294676780700684,-0.20699180662631989
1772594277059599000,6.77759912109375,-2.6144022941589355,-1.3560889959335327,0.10828491300344467
1772594277079863000,6.797863037109375,-3.3713324069976807,-1.981986403465271,0.05800027400255203
1772594277100126000,6.8181259765625,-2.8299078941345215,-2.6500537395477295,-1.1109180450439453
1772594277120390000,6.838389892578125,-1.3176438808441162,-2.66029691696167,-1.9072246551513672
1772594277140654000,6.858654052734375,-0.5757458209991455,-1.9911653995513916,-1.326955795288086
1772594277160917000,6.8789169921875,0.07981689274311066,-1.1655926704406738,0.2041982114315033
1772594277181181000,6.899180908203125,1.2330379486083984,-0.3962908685207367,1.6624528169631958
1772594277201445000,6.919445068359375,1.9785276651382446,-0.012903730385005474,2.09838604927063
1772594277221708000,6.9397080078125,2.0135140419006348,-0.014500068500638008,0.7836688160896301
1772594277241972000,6.959971923828125,1.5775808095932007,-1.077794075012207,0.15138603746891022
1772594277262236000,6.98023583984375,0.9616605043411255,-1.9473991394042969,-0.35092827677726746
1772594277282499000,7.0004990234375,0.5358374118804932,-2.195629596710205,-0.5706907510757446
1772594277302763000,7.020762939453125,0.18863391876220703,-2.108762264251709,-0.5075023770332336
1772594277323027000,7.04102685546875,-0.15431265532970428,-2.0744409561157227,-0.3990844488143921
1772594277343290000,7.0612900390625,-0.43061211705207825,-1.76594877243042,-0.09883991628885269
1772594277363554000,7.081553955078125,-0.7904532551765442,-0.8668114542961121,0.759590744972229
1772594277383818000,7.10181787109375,-1.6124342679977417,-0.014100983738899231,1.5731909275054932
1772594277404081000,7.122080810546875,-2.229684829711914,0.2957215905189514,1.3776395320892334
1772594277424345000,7.142344970703125,-2.1054365634918213,0.5102959871292114,1.1580100059509277
1772594277444609000,7.162609130859375,-1.6073791980743408,0.6846958994865417,0.9753624200820923
1772594277464872000,7.182871826171875,-0.796838641166687,0.7991001009941101,0.6193791031837463
1772594277485136000,7.203135986328125,-0.1053582951426506,0.8640178442001343,0.05613787844777107
1772594277505400000,7.223400146484375,0.5144198536872864,0.5733513236045837,-0.6185808777809143
1772594277525663000,7.2436630859375,0.7635815739631653,0.8974078893661499,-0.989596426486969
1772594277545927000,7.263927001953125,0.43872684240341187,1.3560889959335327,-1.1061290502548218
1772594277566191000,7.284191162109375,0.17479899525642395,1.679214358329773,-1.1326017379760742
1772594277586454000,7.3044541015625,0.11453723907470703,1.8385820388793945,-1.101872205734253
1772594277606718000,7.324718017578125,0.30649685859680176,1.8694446086883545,-1.3604788780212402
1772594277626982000,7.34498193359375,0.5459475517272949,1.7044897079467773,-1.8671830892562866
1772594277647245000,7.3652451171875,0.7239391803741455,1.4489426612854004,-1.8240820169448853
1772594277667509000,7.385509033203125,0.6018193364143372,1.2584463357925415,-1.8206232786178589
1772594277687773000,7.40577294921875,0.1185280829668045,1.4488096237182617,-1.5249017477035522
1772594277708036000,7.4260361328125,0.251822292804718,2.155588150024414,-0.8326231837272644
1772594277728300000,7.446300048828125,0.849118709564209,2.5995030403137207,-0.5950348973274231
1772594277748564000,7.46656396484375,0.5843926668167114,2.658700704574585,-0.5705577731132507
1772594277768827000,7.486826904296875,-0.662746250629425,2.42151141166687,-0.5134886503219604
1772594277789091000,7.507091064453125,-1.5247687101364136,2.376281976699829,-0.16455581784248352
1772594277809355000,7.52735498046875,-1.5531036853790283,2.2210381031036377,0.10934913903474808
1772594277829618000,7.547617919921875,-1.441892147064209,1.6236085891723633,0.19102843105793
1772594277849882000,7.567882080078125,-1.3393274545669556,1.028174638748169,0.2624645531177521
1772594277870146000,7.58814599609375,-1.1075923442840576,0.42901578545570374,0.44537824392318726
1772594277890409000,7.608408935546875,-0.6217736005783081,-0.1460649073123932,0.6815032362937927
1772594277910673000,7.6286728515625,0.32897862792015076,-0.5761449337005615,0.8374122381210327
1772594277930937000,7.64893701171875,1.2363636493682861,-0.9499540328979492,0.9021969437599182
1772594277951200000,7.669199951171875,1.7072832584381104,-1.4037131071090698,0.7287282347679138
1772594277971464000,7.6894638671875,1.6410353183746338,-1.6712327003479004,0.1887669414281845
1772594277991728000,7.70972802734375,1.1149089336395264,-1.4433554410934448,-0.12265195697546005
1772594278011992000,7.729991943359375,0.5080345273017883,-1.1380558013916016,-0.19302384555339813
1772594278032255000,7.7502548828125,-0.21523955464363098,-1.0573077201843262,-0.3687540292739868
1772594278052519000,7.770518798828125,-0.5153510570526123,-0.9765596389770508,-0.841003954410553
1772594278072783000,7.790783203125,-0.5216034054756165,-0.617782711982727,-0.9732339382171631
1772594278093046000,7.8110458984375,-0.4346029758453369,-0.2623315155506134,-0.7772834897041321
1772594278113310000,7.83131005859375,-0.18291370570659637,0.37088248133659363,-0.24823053181171417
1772594278133574000,7.851573974609375,0.2935931384563446,0.9051235318183899,0.1722714602947235
1772594278153837000,7.871837158203125,0.5698925852775574,0.9704403877258301,0.24729932844638824
1772594278174101000,7.89210107421875,0.5206722021102905,0.7779486179351807,0.2667214572429657
1772594278194365000,7.912364990234375,0.29292798042297363,0.5576540231704712,0.2848132848739624
1772594278214628000,7.932628173828125,0.10163351148366928,0.34161630272865295,0.3063638210296631
1772594278234892000,7.95289208984375,0.1547117382287979,0.2578085660934448,0.26419392228126526
1772594278255156000,7.973156005859375,0.26978108286857605,0.30210694670677185,0.2431754618883133
1772594278275419000,7.9934189453125,0.24517089128494263,0.4205019772052765,0.5609797239303589
1772594278295683000,8.01368310546875,0.21962948143482208,0.39096975326538086,0.8237103223800659
1772594278315947000,8.033947021484375,0.2693819999694824,0.19954222440719604,0.9214860200881958
1772594278336210000,8.0542099609375,0.22867539525032043,-0.01636246219277382,1.135927438735962
1772594278356474000,8.07447412109375,0.14673005044460297,-0.3424144685268402,1.1333998441696167
1772594278376738000,8.094738037109375,-0.030064363032579422,-0.7279300689697266,0.9025959968566895
1772594278397001000,8.1150009765625,-0.22787722945213318,-1.0189956426620483,0.4945986568927765
1772594278417265000,8.135264892578125,-0.4054698050022125,-0.919091522693634,0.2830839157104492
1772594278437529000,8.155529052734375,-0.5165483355522156,-0.677778422832489,0.23293229937553406
1772594278457792000,8.1757919921875,-0.3162079155445099,-0.41185516119003296,0.23306532204151154
1772594278478056000,8.196055908203125,-0.06731224805116653,-0.2365240603685379,0.2612673044204712
1772594278498320000,8.21631982421875,0.29119861125946045,-0.42236438393592834,0.3770017921924591
1772594278518583000,8.2365830078125,0.4170432686805725,-0.9409081339836121,0.4045386016368866
1772594278538847000,8.256846923828125,-0.02447718009352684,-1.697439193725586,0.041238728910684586
1772594278559111000,8.27711083984375,-1.756902813911438,-2.4277637004852295,-0.11826203018426895
1772594278579374000,8.2973740234375,-4.074652194976807,-2.427497625350952,-0.11533540487289429
1772594278599638000,8.317637939453125,-5.301304817199707,-1.460116982460022,0.1696108877658844
1772594278619902000,8.33790185546875,-5.0647807121276855,-0.34440988302230835,0.24743236601352692
1772594278640165000,8.3581650390625,-4.355208873748779,0.7734256982803345,0.4989885985851288
1772594278660429000,8.378428955078125,-3.6617329120635986,1.9162704944610596,0.9512842893600464
1772594278680693000,8.39869287109375,-2.9264862537384033,2.706324815750122,1.0840463638305664
1772594278700956000,8.418955810546874,-2.068321704864502,3.092904567718506,0.8352837562561035
1772594278721220000,8.43922021484375,-1.22359299659729,4.062280654907227,0.32246023416519165
1772594278741484000,8.459484130859375,-0.8024258017539978,5.830491065979004,-0.44205254316329956
1772594278761747000,8.479746826171874,-0.9874679446220398,7.313887596130371,-1.5971360206604004
1772594278782011000,8.500010986328125,-1.757301926612854,7.823518753051758,-2.5840718746185303
1772594278802275000,8.520275146484375,-3.006702184677124,7.856642723083496,-3.1407947540283203
1772594278822538000,8.5405380859375,-4.210607051849365,7.62477445602417,-2.8102197647094727
1772594278842802000,8.560802001953125,-4.947583198547363,5.17240047454834,-1.5813056230545044
1772594278863066000,8.581066162109375,-4.921509742736816,3.8171098232269287,-0.01569732278585434
1772594278883329000,8.6013291015625,-4.385272979736328,3.519791841506958,2.308171510696411
1772594278903593000,8.621593017578125,-3.5545122623443604,2.86609148979187,4.217790603637695
1772594278923857000,8.64185693359375,-2.9876792430877686,2.5291311740875244,4.434626579284668
1772594278944120000,8.6621201171875,-2.733196496963501,2.606553554534912,3.594287633895874
1772594278964384000,8.682384033203125,-2.461951971054077,2.4906861782073975,2.415525197982788
1772594278984648000,8.70264794921875,-2.1053035259246826,2.06233549118042,1.4079699516296387
1772594279004911000,8.7229111328125,-1.7277696132659912,1.7587652206420898,0.8117377758026123
1772594279025175000,8.743175048828125,-1.4372361898422241,1.8279398679733276,0.789522111415863
1772594279045454000,8.7634541015625,-0.8516462445259094,1.6033883094787598,0.7124987840652466
1772594279065718000,8.783718017578124,-0.29173073172569275,1.2239919900894165,1.1411155462265015
1772594279085981000,8.80398095703125,0.03272492438554764,0.8689398765563965,1.0385507345199585
1772594279106245000,8.8242451171875,0.23346440494060516,0.6239020228385925,0.8845041990280151
1772594279126509000,8.844509033203124,0.3453410863876343,0.4798325300216675,0.7574623227119446
1772594279146772000,8.86477197265625,0.4254240393638611,0.4175753593444824,0.8552379608154297
1772594279167036000,8.885035888671876,0.5361034274101257,0.42289650440216064,1.1939276456832886
1772594279187300000,8.905300048828124,0.5448833107948303,0.4057358503341675,1.164129376411438
1772594279207563000,8.92556298828125,0.5182777047157288,0.3650292456150055,0.9637889862060547
1772594279227827000,8.945826904296876,0.4175753593444824,0.29718488454818726,0.781806468963623
1772594279248091000,8.9660908203125,0.28507933020591736,0.22920750081539154,0.6340121626853943
1772594279268354000,8.98635400390625,0.1662851870059967,0.18517518043518066,0.5254611968994141
1772594279288618000,9.006617919921876,0.0018623941577970982,0.1306336522102356,0.4417864978313446
1772594279308882000,9.0268818359375,-0.1146702691912651,0.08527104556560516,0.36689165234565735
1772594279329146000,9.04714599609375,-0.2245515137910843,0.0260735172778368,0.17812469601631165
1772594279349409000,9.067408935546876,-0.35545122623443604,-0.012903730385005474,-0.02075239084661007
1772594279369673000,9.0876728515625,-0.3578457236289978,-0.017692744731903076,-0.14965666830539703
1772594279389937000,9.10793701171875,-0.3134143352508545,-0.004655985161662102,-0.18012011051177979
1772594279410200000,9.128199951171876,-0.3013087511062622,-0.0034587320405989885,-0.1729366034269333
1772594279430464000,9.148464111328124,-0.24676722288131714,0.02008725143969059,-0.14406949281692505
1772594279450728000,9.16872802734375,-0.14899152517318726,0.0697067528963089,-0.10881702601909637
1772594279470991000,9.1889912109375,-0.12637674808502197,0.10509224236011505,-0.08008294552564621
1772594279491255000,9.209255126953124,-0.13954652845859528,0.12650977075099945,-0.057867247611284256
1772594279511519000,9.22951904296875,-0.11427118629217148,0.13356027007102966,-0.04310112074017525
1772594279531782000,9.249781982421876,-0.05361034348607063,0.12664279341697693,-0.034720346331596375
1772594279552046000,9.270046142578124,-0.015298237092792988,0.06265626102685928,-0.01662851870059967
1772594279572310000,9.29031005859375,-0.0039908443577587605,0.016229433938860893,-0.004256900865584612
1772594279592573000,9.310572998046876,-0.001064225216396153,0.004256900865584612,-0.001064225216396153
1772594279612837000,9.330837158203124,0.09617935121059418,0.041903868317604065,-0.09617935121059418
1772594279633101000,9.35110107421875,0.17386779189109802,0.011573448777198792,-0.06757830083370209
1772594279653364000,9.371364013671876,0.12092258781194687,0.003325703786686063,-0.03924330323934555
1772594279673628000,9.3916279296875,0.20991842448711395,-0.025807460770010948,-0.06983978301286697
1772594279693892000,9.41189208984375,0.21470743417739868,-0.04483048617839813,-0.01556429360061884
1772594279714155000,9.432155029296876,0.2711113691329956,-0.05121583864092827,0.026738658547401428
1772594279734419000,9.4524189453125,0.26539117097854614,-0.04416534677147865,0.06651407480239868
1772594279754683000,9.472682861328124,0.289336234331131,-0.041637811809778214,0.0993720293045044
1772594279774946000,9.492946044921876,0.3535888195037842,-0.01662851870059967,0.12597766518592834
1772594279795210000,9.5132099609375,0.36303383111953735,0.01050922367721796,0.13701899349689484
1772594279815474000,9.533473876953124,0.18078525364398956,0.009178942069411278,0.07050491869449615
1772594279835737000,9.553737060546876,0.30210694670677185,0.008247745223343372,0.16601912677288055
1772594279856001000,9.5740009765625,0.2217579334974289,0.03551851585507393,0.16056497395038605
1772594279876265000,9.594264892578124,0.1547117382287979,0.06332139670848846,0.15111997723579407
1772594279896528000,9.61452783203125,0.09511512517929077,0.09804175049066544,0.13462449610233307
1772594279916792000,9.6347919921875,0.04749105125665665,0.1267758309841156,0.12411526590585709
1772594279937056000,9.655055908203124,0.005055069923400879,0.1301015317440033,0.13409237563610077
1772594279957319000,9.67531884765625,-0.07941780984401703,0.09471604228019714,0.15284934639930725
1772594279977583000,9.6955830078125,-0.17692744731903076,0.041903868317604065,0.15550990402698517
1772594279997847000,9.715846923828124,-0.1822485625743866,0.007183520123362541,0.14952364563941956
1772594280018110000,9.73610986328125,-0.18956512212753296,-0.03671576827764511,0.14673005044460297
1772594280038374000,9.756373779296876,-0.27523523569107056,-0.10855097323656082,0.13435843586921692
1772594280058638000,9.77663818359375,-0.3546530604362488,-0.1652209609746933,0.1048261821269989
1772594280078901000,9.79690087890625,-0.33177220821380615,-0.15896864235401154,0.06491773575544357
1772594280099165000,9.8171650390625,-0.3190014958381653,-0.14433553814888,0.01662851870059967
1772594280119429000,9.83742919921875,-0.2804233431816101,-0.11772991716861725,-0.01822485774755478
1772594280139692000,9.857692138671876,-0.274570107460022,-0.10961519926786423,-0.03432126343250275
1772594280159956000,9.8779560546875,-0.31368038058280945,-0.13076667487621307,-0.04243598133325577
1772594280180220000,9.898219970703124,-0.23838645219802856,-0.11347301304340363,-0.03671576827764511
1772594280200483000,9.918483154296876,-0.17719349265098572,-0.09045914560556412,-0.025940489023923874
1772594280220747000,9.9387470703125,-0.10469315201044083,-0.05454154312610626,-0.015032181516289711
1772594280241011000,9.959010986328124,-0.027137743309140205,-0.014100983738899231,-0.0038578163366764784
1772594280261274000,9.979274169921876,0.1290373057126999,0.04762407764792442,0.0034587320405989885
1772594280281538000,9.9995380859375,0.1866385042667389,0.10456012934446335,-0.007316548377275467
1772594280301802000,10.019802001953124,0.14779427647590637,0.137285053730011,-0.027536828070878983
1772594280322065000,10.04006494140625,0.11573449522256851,0.162959486246109,-0.03205978497862816
