time,seconds_elapsed,z,y,x
1772594270575071000,0.293071044921875,4.296993732452393,-4.705204963684082,2.377741575241089
1772594270595366000,0.313365966796875,4.274548053741455,-4.6920366287231445,2.383427858352661
1772594270615629000,0.333629150390625,2.8832173347473145,-4.720468044281006,2.3621792793273926
1772594270635893000,0.35389306640625,1.5206173658370972,-4.788702487945557,2.291550397872925
1772594270656157000,0.374156982421875,0.56233811378479,-5.727529048919678,1.559523105621338
1772594270676420000,0.394420166015625,0.5614402890205383,-5.769128322601318,1.5427637100219727
1772594270696684000,0.41468408203125,1.6166846752166748,-7.501033782958984,1.5628151893615723
1772594270716948000,0.434947998046875,3.19596004486084,-12.084134101867676,1.624465823173523
1772594270737211000,0.4552109375,3.186981678009033,-16.428712844848633,1.6621745824813843
1772594270757475000,0.47547509765625,0.40701428055763245,-16.772579193115234,1.698686122894287
1772594270777739000,0.495739013671875,-0.5656301379203796,-14.631864547729492,1.725321650505066
1772594270798002000,0.516001953125,-1.3350666761398315,-12.559682846069336,1.7277158498764038
1772594270818266000,0.53626611328125,0.3157353401184082,-11.299135208129883,1.6624737977981567
1772594270838530000,0.556530029296875,1.1563993692398071,-10.562918663024902,0.8071452379226685
1772594270858793000,0.57679296875,1.2440871000289917,-10.515034675598145,-0.006284779403358698
1772594270879057000,0.597056884765625,2.099116325378418,-10.44350814819336,0.006284779403358698
1772594270899321000,0.617321044921875,2.075772762298584,-10.374075889587402,0.8711901307106018
1772594270919584000,0.637583984375,1.0615291595458984,-9.703400611877441,1.713649868965149
1772594270939848000,0.657847900390625,1.0564415454864502,-9.736919403076172,1.7947534322738647
1772594270960112000,0.678112060546875,1.104325532913208,-9.754875183105469,2.481889247894287
1772594270980375000,0.698375,1.137545108795166,-9.74470043182373,2.4292168617248535
1772594271000639000,0.718638916015625,1.0977414846420288,-9.725247383117676,2.3597850799560547
1772594271020903000,0.73890283203125,1.0408791303634644,-9.706692695617676,2.360682964324951
1772594271041166000,0.759166015625,0.16968904435634613,-9.71926212310791,2.4343044757843018
1772594271061430000,0.779429931640625,0.08379705995321274,-10.789469718933105,3.3315317630767822
1772594271081694000,0.79969384765625,-1.3398550748825073,-10.72482681274414,3.2755672931671143
1772594271101957000,0.81995703125,-2.9454667568206787,-10.645817756652832,3.224391222000122
1772594271122221000,0.840220947265625,-2.982576847076416,-10.581174850463867,2.4082677364349365
1772594271142485000,0.860485107421875,-2.138620615005493,-9.360730171203613,1.245583415031433
1772594271162748000,0.880747802734375,-2.0679917335510254,-7.85926628112793,1.235408067703247
1772594271183012000,0.90101220703125,-0.7281365990638733,-7.149983882904053,1.3260884284973145
1772594271203276000,0.921276123046875,0.4106055796146393,-7.975983619689941,2.1688475608825684
1772594271223539000,0.9415390625,1.271021842956543,-8.040627479553223,3.055300712585449
1772594271243803000,0.961802978515625,1.313219666481018,-9.226954460144043,2.9891607761383057
1772594271264067000,0.982067138671875,1.204582691192627,-10.369287490844727,2.9331963062286377
1772594271284330000,1.002330078125,-0.33668461441993713,-11.79952335357666,3.002328872680664
1772594271304594000,1.022593994140625,-1.259649395942688,-15.076288223266602,3.80648136138916
1772594271324858000,1.042858154296875,-1.2967594861984253,-16.645687103271484,3.862445831298828
1772594271345121000,1.06312109375,-1.3138182163238525,-18.192340850830078,3.875913381576538
1772594271365385000,1.083385009765625,-1.3727754354476929,-19.11171531677246,3.0487165451049805
1772594271385649000,1.10364892578125,-2.6174609661102295,-19.07221031188965,2.991854190826416
1772594271405912000,1.123912109375,-3.3994672298431396,-18.04060935974121,2.9325978755950928
1772594271426176000,1.144176025390625,-3.4455554485321045,-16.293439865112305,2.860173225402832
1772594271446440000,1.16443994140625,-3.490147590637207,-13.100173950195312,2.815281867980957
1772594271466703000,1.184703125,-3.4910452365875244,-10.39532470703125,2.779668092727661
1772594271486967000,1.204967041015625,-3.499425172805786,-7.698256492614746,1.8303672075271606
1772594271507231000,1.22523095703125,-3.501819372177124,-5.371990203857422,0.745494544506073
1772594271527494000,1.245493896484375,-3.537432909011841,-4.287416458129883,-0.05357026308774948
1772594271547758000,1.265758056640625,-3.472191095352173,-3.2609026432037354,-0.10564415156841278
1772594271568022000,1.28602197265625,-1.6903064250946045,-3.1839890480041504,-0.12240356206893921
1772594271588285000,1.306284912109375,-0.19123685359954834,-2.44747257232666,-0.166995570063591
1772594271608549000,1.326549072265625,0.5021837949752808,-2.3849241733551025,-0.9083002805709839
1772594271628813000,1.34681298828125,0.45250412821769714,-1.6675615310668945,-0.8702923059463501
1772594271649076000,1.367075927734375,0.38546648621559143,-1.625662922859192,0.032022446393966675
1772594271669340000,1.38733984375,0.32441434264183044,-1.592742681503296,1.015440821647644
1772594271689604000,1.40760400390625,-0.4842272996902466,-1.5523405075073242,1.7498621940612793
1772594271709867000,1.427866943359375,-0.5479729175567627,-1.5065513849258423,1.8142063617706299
1772594271730131000,1.448130859375,-3.7508163452148438,-1.5433622598648071,2.9466638565063477
1772594271750395000,1.468394775390625,-5.138256072998047,-4.946420669555664,5.196614742279053
1772594271770659000,1.4886591796875,-5.188534259796143,-9.156624794006348,6.117784023284912
1772594271790922000,1.508921875,-4.205714702606201,-13.546692848205566,3.7487213611602783
1772594271811186000,1.52918603515625,-3.3785178661346436,-17.876306533813477,2.7153239250183105
1772594271831450000,1.5494501953125,-3.304896116256714,-21.180604934692383,2.016216993331909
1772594271851713000,1.569713134765625,-2.394500970840454,-22.155344009399414,2.051830768585205
1772594271871977000,1.58997705078125,-3.2333693504333496,-22.89814567565918,2.11946702003479
1772594271892241000,1.610240966796875,-3.2752678394317627,-22.957700729370117,3.669712543487549
1772594271912504000,1.630504150390625,-4.112939357757568,-22.93794822692871,3.7415387630462646
1772594271932768000,1.65076806640625,-4.177582740783691,-20.66405487060547,4.444536209106445
1772594271953032000,1.671031982421875,-4.916193962097168,-17.903242111206055,3.675997495651245
1772594271973295000,1.691295166015625,-4.933551788330078,-14.732420921325684,2.806004285812378
1772594271993559000,1.71155908203125,-4.925471305847168,-11.694178581237793,2.7410616874694824
1772594272013823000,1.731822998046875,-4.857835292816162,-8.769960403442383,1.9354127645492554
1772594272034086000,1.7520859375,-4.828207015991211,-6.377554893493652,0.9100959300994873
1772594272054350000,1.77235009765625,-4.79738187789917,-4.658817291259766,0.8571242094039917
1772594272074614000,1.792614013671875,-3.101987600326538,-3.874716281890869,0.8134300112724304
1772594272094877000,1.812876953125,-1.04836106300354,-3.807080030441284,0.7981669902801514
1772594272115141000,1.83314111328125,0.4659714996814728,-2.9005753993988037,0.8083423376083374
1772594272135405000,1.853405029296875,0.4953004717826843,-2.8278515338897705,0.7933785915374756
1772594272155668000,1.87366796875,0.4321534037590027,-2.006340980529785,0.729034423828125
1772594272175932000,1.893931884765625,0.3669114112854004,-1.1189900636672974,0.6646902561187744
1772594272196196000,1.914196044921875,0.3531447649002075,-1.1052234172821045,0.6275801062583923
1772594272216459000,1.934458984375,0.32860419154167175,-1.0615291595458984,0.628477931022644
1772594272236723000,1.954722900390625,0.28042086958885193,-1.0232219696044922,0.6545149087905884
1772594272256987000,1.97498681640625,-0.6036381125450134,-1.0202292203903198,0.7197569012641907
1772594272277250000,1.99525,-2.1012113094329834,-1.0767922401428223,1.6810288429260254
1772594272297514000,2.015513916015625,-8.442852973937988,-2.481889247894287,3.476680040359497
1772594272317778000,2.03577783203125,-3.91092848777771,-7.87662410736084,3.4572272300720215
1772594272338041000,2.056041015625,-6.20188045501709,-12.963404655456543,0.1999158412218094
1772594272358305000,2.076304931640625,-2.584540843963623,-18.592472076416016,1.922244668006897
1772594272378569000,2.09656884765625,-3.71280837059021,-23.270442962646484,3.928884983062744
1772594272398832000,2.11683203125,-3.610755443572998,-24.044368743896484,2.228403329849243
1772594272419096000,2.137095947265625,-3.5832221508026123,-24.094348907470703,1.1543045043945312
1772594272439360000,2.157360107421875,-3.584120035171509,-24.074296951293945,1.1791443824768066
1772594272459623000,2.177622802734375,-3.666121244430542,-22.685659408569336,2.1487960815429688
1772594272479887000,2.19788720703125,-4.395754337310791,-19.34185791015625,2.1263504028320312
1772594272500151000,2.218151123046875,-4.403834819793701,-15.829564094543457,2.1332337856292725
1772594272520414000,2.2384140625,-4.471770286560059,-12.21731185913086,2.1930887699127197
1772594272540678000,2.258677978515625,-4.53491735458374,-9.082703590393066,2.2562358379364014
1772594272560942000,2.278942138671875,-4.587589740753174,-7.778162956237793,3.049614429473877
1772594272581205000,2.299205078125,-4.5750203132629395,-6.185120582580566,3.0585925579071045
1772594272601469000,2.319468994140625,-3.607762575149536,-5.041290760040283,2.1909937858581543
1772594272621733000,2.339733154296875,-3.5131916999816895,-4.217386245727539,1.2509703636169434
1772594272641996000,2.35999609375,-2.371756076812744,-3.437774419784546,0.3363853394985199
1772594272662260000,2.380260009765625,-1.611896276473999,-3.3512837886810303,0.33369186520576477
1772594272682524000,2.40052392578125,-1.5280991792678833,-2.292448043823242,0.39234980940818787
1772594272702787000,2.420787109375,-0.7993640899658203,-1.446696400642395,0.4222773313522339
1772594272723051000,2.441051025390625,-0.7742249965667725,-1.3664906024932861,0.34925416111946106
1772594272743315000,2.46131494140625,-0.6925228238105774,-0.5536591410636902,0.3100491166114807
1772594272763578000,2.481578125,0.267851322889328,-0.5638344883918762,0.3618237376213074
1772594272783842000,2.501842041015625,-1.0226234197616577,-0.5859808921813965,1.113303780555725
1772594272804106000,2.52210595703125,-5.312135219573975,-1.745672345161438,1.113603115081787
1772594272824369000,2.542368896484375,-5.876867294311523,-4.908711910247803,1.1510124206542969
1772594272844633000,2.562633056640625,-6.664559841156006,-10.181343078613281,1.2327146530151367
1772594272864897000,2.58289697265625,-6.696881294250488,-15.57936954498291,4.303577423095703
1772594272885160000,2.603159912109375,-6.637325763702393,-19.749469757080078,6.555922985076904
1772594272905424000,2.623423828125,-5.269338607788086,-20.92921257019043,5.509955883026123
1772594272925688000,2.64368798828125,-5.187037944793701,-21.7010440826416,3.472191095352173
1772594272945951000,2.663950927734375,-5.127781391143799,-21.643583297729492,3.3746273517608643
1772594272966215000,2.68421484375,-5.1023430824279785,-21.63849639892578,3.4075474739074707
1772594272986479000,2.70447900390625,-5.122992992401123,-21.599889755249023,3.467402696609497
1772594273006742000,2.724741943359375,-5.1238908767700195,-19.636045455932617,3.454533815383911
1772594273027006000,2.745005859375,-5.130774021148682,-17.34928321838379,3.415029525756836
1772594273047270000,2.765269775390625,-5.135562419891357,-14.493598937988281,3.380612850189209
1772594273067534000,2.7855341796875,-5.188534259796143,-11.24646282196045,3.3138744831085205
1772594273087797000,2.805796875,-5.260659694671631,-8.46170711517334,2.5737667083740234
1772594273108061000,2.82606103515625,-5.2789154052734375,-6.362590789794922,2.5312697887420654
1772594273128325000,2.8463251953125,-5.2049946784973145,-4.932953357696533,2.4729111194610596
1772594273148588000,2.866588134765625,-2.844910144805908,-3.995922565460205,1.7259202003479004
1772594273168852000,2.88685205078125,-1.4532804489135742,-3.9223008155822754,1.7049708366394043
1772594273189116000,2.907115966796875,-1.3605051040649414,-3.053205728530884,1.677138328552246
1772594273209379000,2.927379150390625,-0.5781996846199036,-1.9479823112487793,1.6388310194015503
1772594273229643000,2.94764306640625,-0.5752069354057312,-1.1569979190826416,1.5717934370040894
1772594273249907000,2.967906982421875,-0.5701192617416382,-1.091456651687622,0.7823054194450378
1772594273270170000,2.988170166015625,-0.5389946699142456,-1.0211269855499268,0.7377133965492249
1772594273290434000,3.00843408203125,-0.48572367429733276,-0.29149407148361206,0.7152677774429321
1772594273310698000,3.028697998046875,-0.4381389021873474,-0.31603461503982544,0.7191583514213562
1772594273330961000,3.0489609375,-0.4100070297718048,-0.36002808809280396,0.7416039705276489
1772594273351225000,3.06922509765625,-1.5705963373184204,-1.1426327228546143,0.7583633661270142
1772594273371489000,3.089489013671875,-7.336432456970215,-2.0422539710998535,0.7676409482955933
1772594273391752000,3.109751953125,-3.064578056335449,-6.147711277008057,1.9219454526901245
1772594273412016000,3.13001611328125,-4.41969633102417,-10.567707061767578,0.8427590131759644
1772594273432280000,3.150280029296875,-6.312612056732178,-16.399084091186523,3.521571397781372
1772594273452543000,3.17054296875,-7.148487567901611,-20.88791275024414,4.724358558654785
1772594273472807000,3.190806884765625,-5.970839977264404,-22.35256576538086,2.8634653091430664
1772594273493071000,3.211071044921875,-5.067028522491455,-22.41720962524414,0.6461352109909058
1772594273513334000,3.231333984375,-5.061641693115234,-22.438457489013672,0.7035959959030151
1772594273533598000,3.251597900390625,-5.131671905517578,-22.394763946533203,2.3418285846710205
1772594273553862000,3.27186181640625,-5.188833713531494,-21.364957809448242,3.2393548488616943
1772594273574125000,3.292125,-5.242104530334473,-19.438823699951172,3.2205004692077637
1772594273594389000,3.312388916015625,-5.22175407409668,-15.936105728149414,3.1373021602630615
1772594273614653000,3.33265283203125,-5.141548156738281,-12.981361389160156,2.1897966861724854
1772594273634916000,3.352916015625,-4.335899353027344,-9.953893661499023,2.122459888458252
1772594273655180000,3.373179931640625,-4.2853217124938965,-7.382221698760986,2.062305450439453
1772594273675444000,3.39344384765625,-4.215889930725098,-6.110900402069092,2.0045454502105713
1772594273695707000,3.413706787109375,-4.169502258300781,-4.564844608306885,1.9467852115631104
1772594273715971000,3.43397119140625,-4.1413702964782715,-3.6176388263702393,1.9635447263717651
1772594273736235000,3.454235107421875,-4.078821659088135,-2.668936252593994,2.0066401958465576
1772594273756498000,3.474497802734375,-2.9089550971984863,-2.6126725673675537,2.032677173614502
1772594273776762000,3.49476220703125,-2.033874273300171,-1.8728642463684082,1.9719244241714478
1772594273797026000,3.515026123046875,-1.0408791303634644,-1.823184609413147,1.0989385843276978
1772594273817289000,3.5352890625,-0.29209262132644653,-1.0417770147323608,1.0564415454864502
1772594273837553000,3.555552978515625,0.5297171473503113,-1.004068374633789,0.973242998123169
1772594273857817000,3.575817138671875,0.5219359993934631,-0.9645640254020691,0.9636662006378174
1772594273878080000,3.596080078125,0.4569932520389557,-0.9585785269737244,1.028010368347168
1772594273898344000,3.616343994140625,-0.8313865661621094,-0.9828197956085205,1.0672154426574707
1772594273918608000,3.63660791015625,-2.1820156574249268,-3.2677860260009766,1.9701287746429443
1772594273938871000,3.65687109375,-3.2172086238861084,-7.693168640136719,1.978508472442627
1772594273959135000,3.677135009765625,-4.673182487487793,-13.276447296142578,2.0482394695281982
1772594273979399000,3.69739892578125,-5.765237808227539,-17.78981590270996,4.46518611907959
1772594273999662000,3.717662109375,-5.816712856292725,-20.766407012939453,4.565443515777588
1772594274019926000,3.737926025390625,-5.857414245605469,-21.688175201416016,4.51067590713501
1772594274040190000,3.75818994140625,-5.870582580566406,-21.757009506225586,3.3862991333007812
1772594274060453000,3.778453125,-5.877465724945068,-21.795316696166992,2.472013235092163
1772594274080717000,3.798717041015625,-5.879560947418213,-21.750125885009766,3.283946990966797
1772594274100981000,3.81898095703125,-5.817910194396973,-19.549854278564453,3.3069911003112793
1772594274121244000,3.839243896484375,-4.971560001373291,-17.126623153686523,3.2965164184570312
1772594274141508000,3.859508056640625,-4.199728965759277,-14.232032775878906,3.263596296310425
1772594274161772000,3.87977197265625,-4.221875190734863,-11.08994197845459,2.520495891571045
1772594274182035000,3.900034912109375,-4.2993879318237305,-8.303091049194336,2.466326951980591
1772594274202299000,3.920298828125,-5.063138008117676,-5.9875993728637695,2.3948001861572266
1772594274222563000,3.94056298828125,-5.077203750610352,-4.393659591674805,1.6424223184585571
1772594274242826000,3.960825927734375,-5.015852451324463,-3.3632547855377197,1.6469115018844604
1772594274263090000,3.98108984375,-4.034529209136963,-3.292625904083252,1.6639702320098877
1772594274283354000,4.00135400390625,-2.94696307182312,-2.431910276412964,1.6956933736801147
1772594274303617000,4.021616943359375,-1.7923592329025269,-2.3885154724121094,1.6959925889968872
1772594274323881000,4.041880859375,-1.7268179655075073,-2.3184850215911865,1.635838270187378
1772594274344145000,4.062144775390625,-0.7870938181877136,-1.478718876838684,0.6703764796257019
1772594274364409000,4.0824091796875,-0.7436988949775696,-1.414673924446106,0.6209960579872131
1772594274384672000,4.102672119140625,-0.6889315247535706,-1.3449428081512451,0.6180033087730408
1772594274404936000,4.12293603515625,-0.6416460275650024,-1.2898762226104736,0.6437410116195679
1772594274425200000,4.1432001953125,-0.6165069341659546,-1.268627643585205,0.6982090473175049
1772594274445463000,4.163463134765625,-1.88782799243927,-1.2997522354125977,0.7059902548789978
1772594274465727000,4.18372705078125,-3.9579145908355713,-2.892195701599121,0.702099621295929
1772594274485991000,4.203990966796875,-4.944624900817871,-5.980715751647949,0.7431003451347351
1772594274506254000,4.224254150390625,-4.958691120147705,-11.818976402282715,1.712153434753418
1772594274526518000,4.24451806640625,-4.8808794021606445,-17.932870864868164,4.810549736022949
1772594274546782000,4.264781982421875,-4.958691120147705,-22.19574546813965,6.023212909698486
1772594274567045000,4.285045166015625,-5.846940040588379,-23.465869903564453,6.006752967834473
1772594274587309000,4.30530908203125,-5.770325183868408,-23.53619956970215,5.12000036239624
1772594274607573000,4.325572998046875,-5.755959987640381,-23.552061080932617,5.039495468139648
1772594274627836000,4.3458359375,-5.789778232574463,-23.469161987304688,5.025728702545166
1772594274648100000,4.36610009765625,-5.815814971923828,-21.58283042907715,4.294898509979248
1772594274668364000,4.386364013671875,-5.774814605712891,-18.248605728149414,3.54671049118042
1772594274688627000,4.406626953125,-5.004479885101318,-14.900314331054688,3.480271339416504
1772594274708891000,4.426890869140625,-4.944325923919678,-11.33385181427002,2.6506805419921875
1772594274729155000,4.447155029296875,-4.869806289672852,-8.14836597442627,2.571671962738037
1772594274749418000,4.46741796875,-3.835810422897339,-5.771821975708008,2.5067291259765625
1772594274769682000,4.487681884765625,-3.7888240814208984,-4.745906352996826,2.472611904144287
1772594274789946000,4.507946044921875,-3.7175967693328857,-3.5981857776641846,2.4986486434936523
1772594274810209000,4.528208984375,-2.6895864009857178,-3.511096715927124,2.530970573425293
1772594274830473000,4.548472900390625,-1.6810288429260254,-2.6925790309906006,2.5213937759399414
1772594274850737000,4.56873681640625,-1.634940505027771,-2.604891538619995,2.482487916946411
1772594274871000000,4.589,-1.5759832859039307,-1.722628116607666,2.3948001861572266
1772594274891264000,4.609263916015625,-1.4975731372833252,-1.6741455793380737,1.3189058303833008
1772594274911528000,4.62952783203125,-0.4991910457611084,-1.6178817749023438,1.250671148300171
1772594274931791000,4.649791015625,-0.4124012291431427,-1.5520412921905518,1.1899182796478271
1772594274952055000,4.670054931640625,0.3669114112854004,-0.7613561153411865,1.1635819673538208
1772594274972319000,4.690319091796875,0.3064578175544739,-0.734122097492218,1.1393407583236694
1772594274992582000,4.710581787109375,-0.5327098965644836,-0.7029974460601807,1.082478404045105
1772594275012846000,4.73084619140625,-1.3859435319900513,-0.7101801037788391,0.3025672435760498
1772594275033110000,4.751110107421875,-5.4893059730529785,-0.7841010689735413,-0.595557689666748
1772594275053373000,4.771373046875,-5.459378242492676,-4.947618007659912,0.2486976981163025
1772594275073637000,4.79163720703125,-4.360439777374268,-13.456910133361816,3.931279182434082
1772594275093901000,4.811901123046875,-4.296694278717041,-19.67375373840332,6.635230541229248
1772594275114164000,4.8321640625,-4.222174644470215,-23.387460708618164,7.456142425537109
1772594275134428000,4.852427978515625,-4.163217544555664,-24.277204513549805,5.796960830688477
1772594275154692000,4.872692138671875,-4.1425676345825195,-24.312219619750977,4.745606899261475
1772594275174955000,4.892955078125,-4.16800594329834,-24.25715446472168,4.712387561798096
1772594275195219000,4.913218994140625,-4.203021049499512,-22.040122985839844,4.668693542480469
1772594275215483000,4.93348291015625,-4.2550950050354,-19.37238311767578,3.5236663818359375
1772594275235746000,4.95374609375,-4.265569686889648,-15.95705509185791,3.4437599182128906
1772594275256010000,4.974010009765625,-4.25898551940918,-12.4169282913208,2.5785553455352783
1772594275276274000,4.99427392578125,-4.2550950050354,-9.17577838897705,2.5231893062591553
1772594275296537000,5.014537109375,-4.233547210693359,-6.502951145172119,1.6394295692443848
1772594275316801000,5.034801025390625,-4.2188825607299805,-4.78122091293335,1.6136919260025024
1772594275337065000,5.05506494140625,-4.203619480133057,-3.809474229812622,1.6502034664154053
1772594275357328000,5.075327880859375,-4.136282920837402,-3.7526118755340576,2.6360161304473877
1772594275377592000,5.095592041015625,-2.434903144836426,-3.018789052963257,2.6704328060150146
1772594275397856000,5.11585595703125,-1.4562731981277466,-2.970306396484375,2.663250207901001
1772594275418119000,5.136118896484375,-1.3955203294754028,-1.9841946363449097,2.604292869567871
1772594275438383000,5.156383056640625,-1.3323732614517212,-1.9030910730361938,1.7744027376174927
1772594275458647000,5.17664697265625,-0.3842693865299225,-1.1013327836990356,0.7864952683448792
1772594275478910000,5.196909912109375,-0.322618693113327,-1.0543465614318848,-0.02513911761343479
1772594275499174000,5.217173828125,0.4411316514015198,-0.9897031188011169,-0.013168109580874443
1772594275519438000,5.23743798828125,0.4513070285320282,-0.9525930285453796,0.059555768966674805
1772594275539701000,5.257700927734375,-0.7571662664413452,-0.9379284977912903,1.0627262592315674
1772594275559965000,5.27796484375,-2.760514497756958,-0.9621698260307312,1.1100118160247803
1772594275580229000,5.29822900390625,-3.483264207839966,-2.2834699153900146,1.1207857131958008
1772594275600492000,5.318491943359375,-3.434781551361084,-5.972036838531494,0.38636431097984314
1772594275620756000,5.338755859375,-2.5977089405059814,-11.821670532226562,2.1239562034606934
1772594275641020000,5.35902001953125,-4.633378982543945,-17.83291244506836,6.604704856872559
1772594275661284000,5.3792841796875,-4.778227806091309,-22.793100357055664,8.331223487854004
1772594275681547000,5.399547119140625,-3.8382046222686768,-24.352622985839844,4.423287868499756
1772594275701811000,5.41981103515625,-3.8115692138671875,-24.40529441833496,2.894589900970459
1772594275722075000,5.440074951171875,-3.866037130355835,-24.39332389831543,1.931222915649414
1772594275742338000,5.460338134765625,-3.892971992492676,-23.2488956451416,1.9590555429458618
1772594275762602000,5.48060205078125,-3.886387825012207,-21.12673568725586,2.0482394695281982
1772594275782866000,5.500865966796875,-3.9513306617736816,-17.430686950683594,3.089118719100952
1772594275803129000,5.521129150390625,-5.142146587371826,-13.599365234375,3.1417911052703857
1772594275823393000,5.54139306640625,-5.220856189727783,-9.892841339111328,4.129698753356934
1772594275843657000,5.561656982421875,-5.2678422927856445,-7.357381820678711,4.1156325340271
1772594275863920000,5.581920166015625,-5.178359031677246,-6.156091213226318,3.2929251194000244
1772594275884184000,5.60218408203125,-3.4332852363586426,-4.9461212158203125,2.481889247894287
1772594275904448000,5.622447998046875,-2.3023242950439453,-4.081215858459473,2.390610456466675
1772594275924711000,5.6427109375,-1.4829087257385254,-3.1974563598632812,1.2853870391845703
1772594275944975000,5.66297509765625,-1.51163911819458,-3.1331121921539307,1.2114660739898682
1772594275965239000,5.683239013671875,-1.535581111907959,-2.2735939025878906,0.08529343456029892
1772594275985502000,5.703501953125,-1.5269020795822144,-1.4206594228744507,0.019452888518571854
1772594276005766000,5.723765869140625,-0.7493851184844971,-1.4101848602294922,-0.04159925505518913
1772594276026030000,5.744030029296875,0.15322890877723694,-1.3727754354476929,-0.06075286865234375
1772594276046293000,5.76429296875,0.9088988304138184,-1.3081319332122803,-0.020649990066885948
1772594276066557000,5.784556884765625,0.8565256595611572,-1.2443863153457642,0.06374561786651611
1772594276086821000,5.804821044921875,-0.03860650211572647,-1.183334231376648,0.7586626410484314
1772594276107084000,5.825083984375,-1.1884218454360962,-1.1222820281982422,0.7670423984527588
1772594276127348000,5.845347900390625,-5.081992149353027,-1.105522632598877,1.5948376655578613
1772594276147612000,5.86561181640625,-4.990114688873291,-2.3382372856140137,1.6412252187728882
1772594276167875000,5.885875,-3.5628714561462402,-6.148609161376953,1.6935983896255493
1772594276188139000,5.906138916015625,-2.3271639347076416,-11.233593940734863,3.2468366622924805
1772594276208403000,5.92640283203125,-8.682272911071777,-17.599777221679688,10.890026092529297
1772594276228666000,5.946666015625,-2.7449522018432617,-19.856910705566406,6.124367713928223
1772594276248930000,5.966929931640625,-4.008791446685791,-19.83446502685547,1.269824743270874
1772594276269194000,5.987194091796875,-3.9028480052948,-20.628143310546875,1.3012486696243286
1772594276289457000,6.007456787109375,-2.6698341369628906,-22.203826904296875,2.606687068939209
1772594276309721000,6.02772119140625,-2.6021978855133057,-22.258594512939453,2.6773159503936768
1772594276329985000,6.047985107421875,-2.584540843963623,-22.22806739807129,2.6482863426208496
1772594276350248000,6.068248046875,-3.338115692138672,-20.047847747802734,2.5701754093170166
1772594276370512000,6.088511962890625,-3.4192192554473877,-17.11225700378418,1.8743606805801392
1772594276390776000,6.108776123046875,-4.352060317993164,-13.76396656036377,2.640505313873291
1772594276411161000,6.1291611328125,-5.854421615600586,-10.087071418762207,2.691681146621704
1772594276431425000,6.149425048828125,-6.7929487228393555,-7.089829921722412,2.7189152240753174
1772594276451689000,6.16968896484375,-6.746860504150391,-5.464166641235352,2.756923198699951
1772594276471952000,6.189951904296875,-4.748300552368164,-4.708197593688965,2.7679965496063232
1772594276492216000,6.210216064453125,-3.250727415084839,-4.648342609405518,2.694075345993042
1772594276512480000,6.23047998046875,-2.196380853652954,-3.3515830039978027,0.970848798751831
1772594276532743000,6.250742919921875,-1.4586673974990845,-3.283348321914673,0.17298106849193573
1772594276553007000,6.271007080078125,-0.46507367491722107,-2.244264841079712,0.10923545062541962
1772594276573271000,6.29127099609375,-0.4067150056362152,-2.174234390258789,0.052373163402080536
1772594276593534000,6.311533935546875,-0.37080198526382446,-1.3449428081512451,0.01496376097202301
1772594276613798000,6.3317978515625,-0.34087446331977844,-1.2895768880844116,-0.01975216343998909
1772594276634062000,6.35206201171875,-0.2702455222606659,-0.5045779943466187,-0.053270988166332245
1772594276654325000,6.372324951171875,0.5892729163169861,-0.4851251244544983,-0.08499415963888168
1772594276674589000,6.3925888671875,0.5925649404525757,0.2693476974964142,-0.12419921159744263
1772594276694853000,6.41285302734375,0.5581482648849487,0.24331074953079224,-0.13736732304096222
1772594276715117000,6.433116943359375,-3.8151605129241943,-1.3260884284973145,0.6961141228675842
1772594276735380000,6.4533798828125,-4.9042229652404785,-4.434959411621094,1.9141643047332764
1772594276755644000,6.473643798828125,-0.45010992884635925,-9.062353134155273,3.420715570449829
1772594276775908000,6.493908203125,-0.07422025501728058,-14.83507251739502,4.3861775398254395
1772594276796171000,6.5141708984375,-0.9448118209838867,-20.195390701293945,7.079355239868164
1772594276816435000,6.53443505859375,1.5182231664657593,-21.92340660095215,4.00340461730957
1772594276836699000,6.554698974609375,2.5585038661956787,-19.93352508544922,-0.8310872912406921
1772594276856962000,6.574962158203125,2.561197280883789,-17.433380126953125,-2.033874273300171
1772594276877226000,6.59522607421875,2.5258827209472656,-16.64897918701172,0.3312976658344269
1772594276897490000,6.615489990234375,1.7803882360458374,-16.574159622192383,3.0487165451049805
1772594276917753000,6.635753173828125,1.7187376022338867,-15.460856437683105,3.1226375102996826
1772594276938017000,6.65601708984375,0.8140285611152649,-14.316428184509277,3.1414918899536133
1772594276958281000,6.676281005859375,0.05925649031996727,-11.708843231201172,3.1390976905822754
1772594276978544000,6.696544189453125,0.030526071786880493,-9.37240219116211,3.168426752090454
1772594276998808000,6.71680810546875,0.03770867735147476,-7.834725856781006,3.1483752727508545
1772594277019072000,6.737072021484375,0.06673837453126907,-4.405630588531494,3.1426889896392822
1772594277039335000,6.7573349609375,0.8248024582862854,-3.5377323627471924,3.1875803470611572
1772594277059599000,6.77759912109375,-0.375291109085083,-3.6400845050811768,3.9701850414276123
1772594277079863000,6.797863037109375,-2.1104888916015625,-7.50462532043457,3.9624037742614746
1772594277100126000,6.8181259765625,-2.1739351749420166,-7.456441879272461,3.878906011581421
1772594277120390000,6.838389892578125,-1.0983400344848633,-7.428908824920654,3.8232407569885254
1772594277140654000,6.858654052734375,-0.14514847099781036,-8.719982147216797,3.870227098464966
1772594277160917000,6.8789169921875,0.7634510397911072,-12.79311752319336,3.9462430477142334
1772594277181181000,6.899180908203125,0.6970119476318359,-13.586795806884766,3.890577793121338
1772594277201445000,6.919445068359375,-0.1562216579914093,-13.51077938079834,3.041533946990967
1772594277221708000,6.9397080078125,-0.9747393727302551,-12.286145210266113,3.037344217300415
1772594277241972000,6.959971923828125,-1.810315728187561,-12.229881286621094,3.094505786895752
1772594277262236000,6.98023583984375,-1.866579532623291,-12.175712585449219,3.085228204727173
1772594277282499000,7.0004990234375,-1.9171570539474487,-11.341632843017578,3.0526070594787598
1772594277302763000,7.020762939453125,-1.9557634592056274,-10.319607734680176,3.0184898376464844
1772594277323027000,7.04102685546875,-0.900818407535553,-9.37509536743164,3.0307600498199463
1772594277343290000,7.0612900390625,-0.03651157766580582,-8.532036781311035,4.030937671661377
1772594277363554000,7.081553955078125,0.8649053573608398,-8.509291648864746,5.075109004974365
1772594277383818000,7.10181787109375,0.8475474119186401,-8.539817810058594,5.150227069854736
1772594277404081000,7.122080810546875,0.8580220341682434,-8.568548202514648,5.151723384857178
1772594277424345000,7.142344970703125,0.8693944811820984,-8.60925006866455,5.066130638122559
1772594277444609000,7.162609130859375,0.7909843921661377,-8.632294654846191,4.243124008178711
1772594277464872000,7.182871826171875,-0.01586158573627472,-8.70022964477539,4.160523891448975
1772594277485136000,7.203135986328125,-0.05626374110579491,-8.681375503540039,3.2647933959960938
1772594277505400000,7.223400146484375,-0.08649053424596786,-7.7772650718688965,3.286041736602783
1772594277525663000,7.2436630859375,-0.09726444631814957,-7.737461566925049,3.3378164768218994
1772594277545927000,7.263927001953125,-0.06554127484560013,-7.733271598815918,3.404554843902588
1772594277566191000,7.284191162109375,-0.09127894043922424,-8.596980094909668,3.45573091506958
1772594277586454000,7.3044541015625,-1.0654197931289673,-8.67718505859375,3.473388195037842
1772594277606718000,7.324718017578125,-1.1004348993301392,-9.454702377319336,3.466804027557373
1772594277626982000,7.34498193359375,-1.1734580993652344,-10.38036060333252,3.511695384979248
1772594277647245000,7.3652451171875,-1.8513164520263672,-10.407894134521484,4.377199172973633
1772594277667509000,7.385509033203125,-0.6625953316688538,-10.413281440734863,4.344578266143799
1772594277687773000,7.40577294921875,-0.6054337620735168,-10.37377643585205,3.193565845489502
1772594277708036000,7.4260361328125,-0.5377975702285767,-10.315418243408203,3.173813581466675
1772594277728300000,7.446300048828125,-0.5273229479789734,-9.322422981262207,4.4397478103637695
1772594277748564000,7.46656396484375,-0.47884035110473633,-9.28381633758545,5.498284339904785
1772594277768827000,7.486826904296875,0.3908534348011017,-9.24251651763916,5.489006519317627
1772594277789091000,7.507091064453125,0.39624038338661194,-9.188647270202637,5.468057632446289
1772594277809355000,7.52735498046875,0.39953240752220154,-8.474276542663574,5.51893424987793
1772594277829618000,7.547617919921875,0.45010992884635925,-8.452130317687988,5.595848083496094
1772594277849882000,7.567882080078125,0.5165489912033081,-8.465897560119629,5.582380771636963
1772594277870146000,7.58814599609375,0.5569511651992798,-8.524555206298828,4.686649799346924
1772594277890409000,7.608408935546875,0.5704185366630554,-9.29878044128418,3.9414546489715576
1772594277910673000,7.6286728515625,0.5258265733718872,-9.315239906311035,3.8603508472442627
1772594277930937000,7.64893701171875,-0.30885201692581177,-9.25987434387207,3.1142578125
1772594277951200000,7.669199951171875,-0.3513490855693817,-8.45123291015625,3.127126693725586
1772594277971464000,7.6894638671875,-0.35583823919296265,-8.448838233947754,3.1693243980407715
1772594277991728000,7.70972802734375,-0.3917512595653534,-8.46978759765625,4.033331871032715
1772594278011992000,7.729991943359375,-1.256955862045288,-8.427290916442871,4.087501049041748
1772594278032255000,7.7502548828125,-1.2638392448425293,-8.381501197814941,4.145260810852051
1772594278052519000,7.770518798828125,-1.225232720375061,-8.334515571594238,4.158429145812988
1772594278072783000,7.790783203125,-1.161487102508545,-8.32254409790039,4.16531229019165
1772594278093046000,7.8110458984375,-0.2911947965621948,-9.493907928466797,4.195838451385498
1772594278113310000,7.83131005859375,-0.2537853717803955,-10.293272018432617,4.224269390106201
1772594278133574000,7.851573974609375,-0.19033902883529663,-10.277709007263184,4.1973347663879395
1772594278153837000,7.871837158203125,-0.12749123573303223,-10.324396133422852,4.246116638183594
1772594278174101000,7.89210107421875,-0.0769137293100357,-11.17733097076416,5.0481743812561035
1772594278194365000,7.912364990234375,-0.061949968338012695,-11.975198745727539,5.0912699699401855
1772594278214628000,7.932628173828125,-0.014365210197865963,-12.783241271972656,5.104737281799316
1772594278234892000,7.95289208984375,0.0520738884806633,-12.820052146911621,5.132869243621826
1772594278255156000,7.973156005859375,1.04836106300354,-12.881403923034668,5.196614742279053
1772594278275419000,7.9934189453125,1.1010334491729736,-13.724461555480957,5.250185012817383
1772594278295683000,8.01368310546875,1.8887258768081665,-13.74241828918457,5.307047367095947
1772594278315947000,8.033947021484375,1.9252374172210693,-13.721468925476074,5.3779754638671875
1772594278336210000,8.0542099609375,1.896806240081787,-13.632285118103027,5.387253284454346
1772594278356474000,8.07447412109375,1.0211269855499268,-12.46511173248291,5.376479148864746
1772594278376738000,8.094738037109375,0.9977835416793823,-11.561899185180664,5.383961200714111
1772594278397001000,8.1150009765625,1.0259153842926025,-11.481693267822266,5.391442775726318
1772594278417265000,8.135264892578125,1.0567407608032227,-10.520122528076172,5.313631534576416
1772594278437529000,8.155529052734375,1.1216834783554077,-9.748889923095703,4.448127269744873
1772594278457792000,8.1757919921875,1.1566987037658691,-9.672574996948242,4.3715128898620605
1772594278478056000,8.196055908203125,1.1097124814987183,-9.598054885864258,3.5901055335998535
1772594278498320000,8.21631982421875,0.29059621691703796,-8.581716537475586,3.60566782951355
1772594278518583000,8.2365830078125,-0.5689221620559692,-7.824849605560303,3.6960489749908447
1772594278538847000,8.256846923828125,-0.5620388388633728,-6.985682010650635,6.792649269104004
1772594278559111000,8.27711083984375,-0.507570743560791,-6.9135565757751465,8.873210906982422
1772594278579374000,8.2973740234375,0.2406172752380371,-5.956175327301025,9.686640739440918
1772594278599638000,8.317637939453125,0.3166331648826599,-5.879859924316406,9.765649795532227
1772594278619902000,8.33790185546875,1.7591396570205688,-4.92188024520874,9.833285331726074
1772594278640165000,8.3581650390625,3.0026280879974365,-4.834491729736328,9.801861763000488
1772594278660429000,8.378428955078125,3.766977071762085,-4.004003047943115,8.86483097076416
1772594278680693000,8.39869287109375,3.823540210723877,-3.9845502376556396,7.61565637588501
1772594278700956000,8.418955810546874,5.210381507873535,-3.9567174911499023,6.288370609283447
1772594278721220000,8.43922021484375,6.344036102294922,-3.9758710861206055,4.236240863800049
1772594278741484000,8.459484130859375,6.392219066619873,-3.99532413482666,3.4503438472747803
1772594278761747000,8.479746826171874,6.373664379119873,-3.955819845199585,3.3827078342437744
1772594278782011000,8.500010986328125,6.330568790435791,-3.1546599864959717,2.532167673110962
1772594278802275000,8.520275146484375,6.266523838043213,-2.3687632083892822,2.5207951068878174
1772594278822538000,8.5405380859375,5.3330841064453125,-1.4107834100723267,2.5109190940856934
1772594278842802000,8.560802001953125,5.343259811401367,0.17417816817760468,1.7390882968902588
1772594278863066000,8.581066162109375,5.396830081939697,1.2168530225753784,1.6753426790237427
1772594278883329000,8.6013291015625,5.452495098114014,1.2964602708816528,1.6077064275741577
1772594278903593000,8.621593017578125,6.760627269744873,1.349731206893921,1.5732897520065308
1772594278923857000,8.64185693359375,7.901165008544922,1.3628993034362793,1.5406688451766968
1772594278944120000,8.6621201171875,8.789413452148438,1.3422492742538452,1.5008652210235596
1772594278964384000,8.682384033203125,8.831012725830078,1.3198037147521973,1.448791265487671
1772594278984648000,8.70264794921875,8.843283653259277,1.344643473625183,0.6227917075157166
1772594279004911000,8.7229111328125,8.82891845703125,2.176030158996582,0.5958569645881653
1772594279025175000,8.743175048828125,8.81664752960205,2.2212207317352295,0.5949591398239136
1772594279045454000,8.7634541015625,8.812158584594727,2.2586300373077393,0.6440402865409851
1772594279065718000,8.783718017578124,8.805274963378906,2.3250691890716553,0.6808511018753052
1772594279085981000,8.80398095703125,8.792705535888672,2.3948001861572266,0.6865373253822327
1772594279106245000,8.8242451171875,8.7669677734375,2.463334321975708,0.6709750294685364
1772594279126509000,8.844509033203124,8.7268648147583,3.2228946685791016,0.6353612542152405
1772594279146772000,8.86477197265625,8.716690063476562,3.2420482635498047,0.6039373874664307
1772594279167036000,8.885035888671876,8.762478828430176,3.2857425212860107,0.5949591398239136
1772594279187300000,8.905300048828124,8.803778648376465,3.357269287109375,0.5943605899810791
1772594279207563000,8.92556298828125,8.827720642089844,3.4171242713928223,0.5937620401382446
1772594279227827000,8.945826904296876,8.822334289550781,3.468599796295166,0.5692214369773865
1772594279248091000,8.9660908203125,8.804078102111816,3.5158851146698,0.5398924946784973
1772594279268354000,8.98635400390625,8.803778648376465,3.5643677711486816,0.5195417404174805
1772594279288618000,9.006617919921876,8.847772598266602,3.591601848602295,0.5045779943466187
1772594279308882000,9.0268818359375,9.646537780761719,3.6041712760925293,0.5066729187965393
1772594279329146000,9.04714599609375,9.68574333190918,3.581725835800171,0.5123591423034668
1772594279349409000,9.067408935546876,9.707290649414062,3.555988073348999,0.4851251244544983
1772594279369673000,9.0876728515625,9.708487510681152,3.524564266204834,0.46148237586021423
1772594279389937000,9.10793701171875,9.667187690734863,3.5003228187561035,0.44532153010368347
1772594279410200000,9.128199951171876,9.62947940826416,3.4844613075256348,0.40791210532188416
1772594279430464000,9.148464111328124,9.607033729553223,3.476081609725952,0.36750996112823486
1772594279450728000,9.16872802734375,9.586084365844727,3.466205596923828,0.3001730442047119
1772594279470991000,9.1889912109375,9.559747695922852,3.4659061431884766,0.26007014513015747
1772594279491255000,9.209255126953124,9.541492462158203,3.4413657188415527,0.26426002383232117
1772594279511519000,9.22951904296875,9.519046783447266,3.435380220413208,0.2651578485965729
1772594279531782000,9.249781982421876,9.502286911010742,3.4258034229278564,0.29568392038345337
1772594279552046000,9.270046142578124,9.503783226013184,3.4060511589050293,0.32710781693458557
1772594279572310000,9.29031005859375,9.52353572845459,3.389291763305664,0.3618237376213074
1772594279592573000,9.310572998046876,9.52353572845459,3.378817081451416,0.3845686614513397
1772594279612837000,9.330837158203124,9.567828178405762,3.36594820022583,0.39384618401527405
1772594279633101000,9.35110107421875,9.578901290893555,3.3632547855377197,0.4183867573738098
1772594279653364000,9.371364013671876,9.588478088378906,3.3889925479888916,0.4635773003101349
1772594279673628000,9.3916279296875,9.566631317138672,3.4189200401306152,0.5147533416748047
1772594279693892000,9.41189208984375,9.513360023498535,3.431788921356201,0.5180453658103943
1772594279714155000,9.432155029296876,9.468768119812012,3.4554316997528076,0.5569511651992798
1772594279734419000,9.4524189453125,9.413702011108398,3.476081609725952,0.5970540642738342
1772594279754683000,9.472682861328124,9.368511199951172,3.487154722213745,0.5931634902954102
1772594279774946000,9.492946044921876,9.355043411254883,3.5015199184417725,0.5877765417098999
1772594279795210000,9.5132099609375,9.349058151245117,3.5200750827789307,0.6192004084587097
1772594279815474000,9.533473876953124,9.31613826751709,3.570652484893799,0.5814917087554932
1772594279835737000,9.553737060546876,9.290999412536621,3.5778350830078125,0.5581482648849487
1772594279856001000,9.5740009765625,9.261670112609863,3.5838205814361572,0.5036801695823669
1772594279876265000,9.594264892578124,9.239523887634277,3.5907039642333984,0.4587889015674591
1772594279896528000,9.61452783203125,9.229348182678223,3.6281135082244873,0.42437225580215454
1772594279916792000,9.6347919921875,9.17577838897705,3.666121244430542,0.41120412945747375
1772594279937056000,9.655055908203124,9.143755912780762,3.6867713928222656,0.3968389332294464
1772594279957319000,9.67531884765625,9.126397132873535,3.6996402740478516,0.406415730714798
1772594279977583000,9.6955830078125,9.108141899108887,3.730764865875244,0.4240729808807373
1772594279997847000,9.715846923828124,9.10185718536377,3.755903959274292,0.4438251256942749
1772594280018110000,9.73610986328125,9.088988304138184,3.7544076442718506,0.46327802538871765
1772594280038374000,9.756373779296876,9.102156639099121,3.745429277420044,0.46477439999580383
1772594280058638000,9.77663818359375,9.127894401550293,3.726275682449341,0.4587889015674591
1772594280078901000,9.79690087890625,9.140463829040527,3.70742130279541,0.4545990526676178
1772594280099165000,9.8171650390625,9.158719062805176,3.704129219055176,0.45190557837486267
1772594280119429000,9.83742919921875,9.156025886535645,3.693654775619507,0.45759180188179016
1772594280139692000,9.857692138671876,9.138967514038086,3.6834793090820312,0.47494974732398987
1772594280159956000,9.8779560546875,9.12849235534668,3.681384325027466,0.47644615173339844
1772594280180220000,9.898219970703124,9.1138277053833,3.678990125656128,0.4728548228740692
1772594280200483000,9.918483154296876,9.100061416625977,3.6792895793914795,0.4776432514190674
1772594280220747000,9.9387470703125,9.081805229187012,3.6676177978515625,0.4785410761833191
1772594280241011000,9.959010986328124,9.108441352844238,3.6739025115966797,0.44681790471076965
1772594280261274000,9.979274169921876,9.162310600280762,3.6583402156829834,0.4100070297718048
1772594280281538000,9.9995380859375,9.196727752685547,3.663727045059204,0.36571431159973145
1772594280301802000,10.019802001953124,9.184456825256348,3.666719913482666,0.3256114423274994
1772594280322065000,10.04006494140625,9.159018516540527,3.662529945373535,0.289399117231369
