time,seconds_elapsed,z,y,x
1772408535176825300,0.138825439453125,0.41167500615119934,0.3078624904155731,0.4665375053882599
1772408535196886500,0.158886474609375,0.22206249833106995,0.22687499225139618,0.3899500072002411
1772408535216947700,0.17894775390625,0.13791249692440033,0.19813749194145203,0.26317501068115234
1772408535237009200,0.199009033203125,0.12732499837875366,0.2172500044107437,0.14066250622272491
1772408535257070600,0.219070556640625,0.11879999935626984,0.23430000245571136,0.08415000140666962
1772408535277131800,0.2391318359375,0.18053749203681946,0.2769249975681305,0.0873124971985817
1772408535297193000,0.25919287109375,0.2274249941110611,0.3386625051498413,0.07672499865293503
1772408535317254100,0.279254150390625,0.3041499853134155,0.42707499861717224,0.1555124968290329
1772408535337315600,0.299315673828125,0.3936625123023987,0.43463748693466187,0.2769249975681305
1772408535357377000,0.319376953125,0.3936625123023987,0.32381248474121094,0.34622499346733093
1772408535377438200,0.339438232421875,0.4585624933242798,0.2055625021457672,0.41552498936653137
1772408535397499400,0.35949951171875,0.4298250079154968,0.13626250624656677,0.4857875108718872
1772408535417560600,0.379560546875,0.32862499356269836,0.0085249999538064,0.3942124843597412
1772408535437622300,0.399622314453125,0.34031251072883606,-0.18754999339580536,0.2311374992132187
1772408535457683500,0.419683349609375,0.3436124920845032,-0.2237125039100647,0.15867500007152557
1772408535477744600,0.43974462890625,0.2817375063896179,-0.14918750524520874,0.07672499865293503
1772408535497805800,0.459805908203125,0.21353749930858612,-0.05224999785423279,0.027775000780820847
1772408535517867300,0.4798671875,0.2763749957084656,0.17366249859333038,0.07878749817609787
1772408535537928700,0.4999287109375,0.4212999939918518,0.31638750433921814,0.08841250091791153
1772408535557990000,0.519989990234375,0.6023874878883362,0.24076250195503235,-0.04372499883174896
1772408535578051000,0.540051025390625,0.7100499868392944,-0.05224999785423279,-0.2120250016450882
1772408535598112500,0.560112548828125,0.8474124670028687,-0.1597750037908554,-0.2503874897956848
1772408535618173700,0.580173583984375,1.0859750509262085,0.11178749799728394,-0.10436250269412994
1772408535638235100,0.600235107421875,0.9261999726295471,0.7519875168800354,0.19277499616146088
1772408535658296300,0.62029638671875,0.48633748292922974,1.1291500329971313,0.44536250829696655
1772408535678357800,0.640357666015625,0.41593748331069946,1.133412480354309,0.9215250015258789
1772408535698419000,0.6604189453125,0.7664250135421753,1.2579874992370605,1.6831375360488892
1772408535718480400,0.68048046875,1.2340625524520874,1.3688124418258667,2.0208375453948975
1772408535738541600,0.70054150390625,1.5153875350952148,1.123787522315979,1.7246625423431396
1772408535758602800,0.720602783203125,1.3235750198364258,0.699874997138977,1.1473000049591064
1772408535778664200,0.740664306640625,0.824999988079071,0.4815250039100647,0.4954124987125397
1772408535798725600,0.7607255859375,0.420199990272522,0.4292750060558319,-0.09267500042915344
1772408535818786800,0.780786865234375,0.16568750143051147,0.23966249823570251,-0.4101625084877014
1772408535838848300,0.80084814453125,-0.16238750517368317,-0.08318749815225601,-0.49211248755455017
1772408535858909400,0.820909423828125,-0.47671249508857727,-0.29727500677108765,-0.41964998841285706
1772408535878971000,0.840970947265625,-0.6705874800682068,-0.32491248846054077,-0.18851250410079956
1772408535899032300,0.8610322265625,-0.7046874761581421,-0.23223750293254852,0.02241249941289425
1772408535919093500,0.881093505859375,-0.5895999670028687,0.04468749836087227,0.1896124929189682
1772408535939155000,0.901155029296875,-0.36162498593330383,0.30992498993873596,0.271699994802475
1772408535959216400,0.92121630859375,-0.21037499606609344,0.44632500410079956,0.25891250371932983
1772408535979277600,0.941277587890625,-0.2498375028371811,0.10546249896287918,0.04152499884366989
1772408535999338800,0.9613388671875,-0.5054500102996826,-0.7478625178337097,-0.6348375082015991
1772408536019400400,0.981400390625,-0.9113500118255615,-1.3454375267028809,-1.4913250207901
1772408536039461600,1.001461669921875,-1.4663000106811523,-1.8035874366760254,-1.9281624555587769
1772408536059522800,1.021522705078125,-1.933937430381775,-1.6521999835968018,-2.0175375938415527
1772408536079584300,1.041584228515625,-1.4727624654769897,-0.7148625254631042,-2.1209375858306885
1772408536099645700,1.061645751953125,-0.5608624815940857,0.1821874976158142,-1.455162525177002
1772408536119707000,1.081706787109375,0.6375874876976013,-0.013887500390410423,-0.30992498993873596
1772408536139768300,1.101768310546875,1.6506874561309814,-0.17682500183582306,0.6466624736785889
1772408536159829800,1.121829833984375,1.8530875444412231,-0.28228750824928284,1.1015125513076782
1772408536179891200,1.14189111328125,1.6686999797821045,-0.40273749828338623,1.3059749603271484
1772408536199952400,1.161952392578125,1.4407249689102173,-0.4059000015258789,1.2016124725341797
1772408536220013600,1.182013671875,1.0839124917984009,-0.33660000562667847,0.8340749740600586
1772408536240075000,1.202074951171875,0.5033875107765198,-0.11508750170469284,0.295074999332428
1772408536260136400,1.222136474609375,-0.17847499251365662,-0.01924999989569187,-0.2546499967575073
1772408536280198000,1.242197998046875,-0.7567999958992004,-0.013887500390410423,-0.6839249730110168
1772408536300259000,1.262259033203125,-0.9113500118255615,0.08951249718666077,-0.8309124708175659
1772408536320320500,1.282320556640625,-0.7024874687194824,0.1788875013589859,-0.5805249810218811
1772408536340382000,1.3023818359375,-0.368087500333786,0.07246249914169312,-0.02447500079870224
1772408536360443100,1.322443115234375,-0.1293874979019165,-0.1896124929189682,0.5634750127792358
1772408536380504600,1.342504638671875,0.05706249922513962,-0.3345375061035156,0.802174985408783
1772408536400566000,1.36256591796875,0.21889999508857727,-0.19497500360012054,0.737137496471405
1772408536420627500,1.38262744140625,0.322299987077713,0.09047500044107437,0.6637125015258789
1772408536440688600,1.402688720703125,0.40851250290870667,0.3610749840736389,0.5762624740600586
1772408536460750000,1.42275,0.3903625011444092,0.42611250281333923,0.23966249823570251
1772408536480811500,1.4428115234375,0.18369999527931213,0.09803749620914459,-0.20666250586509705
1772408536500872700,1.462872802734375,-0.5065500140190125,-0.48372501134872437,-0.5145249962806702
1772408536520934100,1.48293408203125,-1.4364625215530396,-0.6892874836921692,-1.215499997138977
1772408536540995600,1.50299560546875,-2.0607125759124756,-0.09267500042915344,-1.7778749465942383
1772408536561057000,1.52305712890625,-1.7155874967575073,0.857450008392334,-1.5861999988555908
1772408536581118200,1.5431181640625,-0.9283999800682068,1.264449954032898,-1.0865249633789062
1772408536601179600,1.5631796875,-0.1293874979019165,0.5964750051498413,-0.7478625178337097
1772408536621241000,1.583240966796875,0.6429499983787537,-0.4591124951839447,-0.25891250371932983
1772408536641302500,1.603302490234375,1.2501499652862549,-1.107837438583374,0.4250124990940094
1772408536661363700,1.62336376953125,1.6410624980926514,-0.9076374769210815,1.0077375173568726
1772408536681425200,1.643425048828125,1.7656375169754028,-0.20239999890327454,1.272974967956543
1772408536701486600,1.663486572265625,1.6143875122070312,0.16609999537467957,1.2293875217437744
1772408536721548000,1.683548095703125,1.1967999935150146,0.20239999890327454,0.9246875047683716
1772408536741609500,1.703609375,0.4820750057697296,0.1629374921321869,0.5059999823570251
1772408536761671000,1.7236708984375,-0.08786249905824661,0.16609999537467957,0.07356250286102295
1772408536781732000,1.743732177734375,-0.359562486410141,0.35571250319480896,-0.5198875069618225
1772408536801793500,1.76379345703125,-0.5033875107765198,0.5975750088691711,-1.0566874742507935
1772408536821855000,1.78385498046875,-0.6066499948501587,0.4398624897003174,-1.105774998664856
1772408536841916400,1.80391650390625,-0.7217375040054321,-0.1588124930858612,-0.5816249847412109
1772408536882039000,1.8440390625,-0.761062502861023,-0.3590124845504761,0.2578125
1772408536902100500,1.8641005859375,-0.35846251249313354,0.1970375031232834,0.19813749194145203
1772408536922162000,1.884161865234375,0.01223750039935112,0.5410624742507935,0.2046000063419342
1772408536942223400,1.904223388671875,0.10381250083446503,0.6316750049591064,0.1480875015258789
1772408536962284500,1.924284423828125,0.19126249849796295,0.515625,-0.09473749995231628
1772408536982346200,1.94434619140625,0.11027500033378601,-0.05431250110268593,-0.38885000348091125
1772408537002407700,1.96440771484375,-0.4127750098705292,-0.5295125246047974,-0.5497249960899353
1772408537022468900,1.98446875,-1.2479499578475952,-0.41868749260902405,-0.9204249978065491
1772408537042530300,2.0045302734375,-1.7294750213623047,0.15661250054836273,-1.4114375114440918
1772408537062591700,2.024591796875,-0.9315624833106995,0.8414999842643738,-1.0290499925613403
1772408537082653200,2.044653076171875,0.31267499923706055,0.8138625025749207,0.09693749994039536
1772408537102714400,2.06471435546875,1.1712249517440796,0.3269749879837036,1.224025011062622
1772408537122776000,2.084776123046875,1.2297999858856201,0.1023000031709671,1.9845374822616577
1772408537142837500,2.10483740234375,0.9560375213623047,0.39311251044273376,2.1103498935699463
1772408537162898700,2.124898681640625,0.7334250211715698,0.7797625064849854,1.6351499557495117
1772408537182960400,2.14496044921875,0.41497498750686646,0.8053374886512756,1.0205249786376953
1772408537203021800,2.165021728515625,-0.0005499999970197678,0.6572499871253967,0.544362485408783
1772408537223083000,2.1850830078125,-0.33508750796318054,0.3675374984741211,0.21092499792575836
1772408537243144700,2.205144775390625,-0.45649999380111694,0.11178749799728394,0.0042624999769032
1772408537263206100,2.2252060546875,-0.31267499923706055,0.11715000122785568,-0.1363999992609024
1772408537283267300,2.245267333984375,-0.10284999758005142,0.2854500114917755,-0.2503874897956848
1772408537303328800,2.265328857421875,0.011137500405311584,0.1555124968290329,0.020212499424815178
1772408537323390500,2.285390380859375,0.11137499660253525,-0.3643749952316284,0.6529874801635742
1772408537343451600,2.30545166015625,0.2092749923467636,-0.9257875084877014,1.1452374458312988
1772408537363513300,2.325513427734375,0.2796750068664551,-0.9096999764442444,1.066312551498413
1772408537383574500,2.345574462890625,0.3137750029563904,-0.41552498936653137,0.6285125017166138
1772408537403636000,2.365635986328125,0.34251248836517334,-0.040562499314546585,0.29301249980926514
1772408537423697400,2.385697509765625,0.32752498984336853,-0.16513749957084656,0.09913749992847443
1772408537443758800,2.4057587890625,0.4127750098705292,-0.5710374712944031,-0.2620750069618225
1772408537463820300,2.4258203125,0.133650004863739,-1.023687481880188,-0.2961750030517578
1772408537483882000,2.445882080078125,-0.2956250011920929,-1.6788749694824219,-0.5048999786376953
1772408537503943400,2.465943359375,-0.5171374678611755,-1.605312466621399,-0.6327750086784363
1772408537524004600,2.486004638671875,-0.8474124670028687,-1.179337501525879,-0.48358750343322754
1772408537544066000,2.506066162109375,-0.907087504863739,-0.6179249882698059,-0.06173750013113022
1772408537564127700,2.526127685546875,-0.3104749917984009,0.3377000093460083,0.3973749876022339
1772408537584189000,2.54618896484375,0.35846251249313354,0.8798624873161316,0.6689375042915344
1772408537604250400,2.56625048828125,0.5545374751091003,0.7030375003814697,0.9352750182151794
1772408537624311800,2.586311767578125,0.45223748683929443,0.3940750062465668,1.0184625387191772
1772408537644373500,2.60637353515625,0.2913624942302704,0.4101625084877014,0.5389999747276306
1772408537664434700,2.6264345703125,0.1326874941587448,0.4665375053882599,-0.22481249272823334
1772408537684496100,2.64649609375,-0.018699999898672104,0.45691248774528503,-0.7308124899864197
1772408537704557800,2.666557861328125,-0.15070000290870667,0.32807499170303345,-0.7766000032424927
1772408537724619000,2.686618896484375,-0.15496249496936798,0.045787498354911804,-0.5730999708175659
1772408537744680400,2.706680419921875,-0.09638749808073044,-0.15771250426769257,-0.4111250042915344
1772408537764742100,2.7267421875,-0.03671250119805336,-0.13323749601840973,-0.295074999332428
1772408537784803600,2.746803466796875,-0.002612499985843897,-0.1896124929189682,-0.22481249272823334
1772408537804865000,2.766864990234375,-0.02928750030696392,-0.2546499967575073,-0.14272500574588776
1772408537824926500,2.786926513671875,-0.10917499661445618,-0.17476250231266022,-0.05857500061392784
1772408537844988000,2.80698779296875,-0.15716250240802765,-0.0340999998152256,-0.006324999965727329
1772408537865049600,2.827049560546875,-0.07823749631643295,-0.020212499424815178,0.06283749639987946
1772408537885111000,2.847111083984375,-0.022962499409914017,0.0085249999538064,0.17572499811649323
1772408537905172500,2.86717236328125,-0.04413750022649765,0.16830000281333923,0.2578125
1772408537925234000,2.88723388671875,-0.03148749843239784,0.2578125,0.08841250091791153
1772408537945295400,2.90729541015625,0.11563749611377716,-0.07039999961853027,-0.38032498955726624
1772408537965356800,2.927356689453125,0.32010000944137573,-0.5508249998092651,-0.4431625008583069
1772408537985418200,2.947418212890625,0.07507500052452087,-0.847962498664856,-0.27059999108314514
1772408538005479700,2.967479736328125,-0.46818751096725464,-0.5230500102043152,-0.30469998717308044
1772408538025541000,2.987541015625,-0.9400874972343445,-0.2620750069618225,-0.3823874890804291
1772408538045602800,3.007602783203125,-0.9432500004768372,-0.4016374945640564,-0.19277499616146088
1772408538065664000,3.0276640625,-0.2806375026702881,-0.28132501244544983,0.33660000562667847
1772408538085725700,3.0477255859375,0.5097125172615051,0.21092499792575836,0.8320124745368958
1772408538105787100,3.067787109375,0.9517750144004822,0.3684999942779541,1.1600874662399292
1772408538125848600,3.0878486328125,0.9389874935150146,0.10656250268220901,1.3954875469207764
1772408538145910000,3.107909912109375,0.824999988079071,0.14904999732971191,1.4093749523162842
1772408538165971500,3.127971435546875,0.7143124938011169,0.4516874849796295,1.216599941253662
1772408538186033000,3.148032958984375,0.4745124876499176,0.552887499332428,0.8607500195503235
1772408538206094600,3.168094482421875,0.16568750143051147,0.5581125020980835,0.35791251063346863
1772408538226156000,3.188156005859375,-0.05169999971985817,0.6657750010490417,-0.1288374960422516
1772408538246217500,3.208217529296875,-0.147537499666214,0.4526500105857849,-0.4750624895095825
1772408538266278700,3.228278564453125,-0.2796750068664551,-0.03726249933242798,-0.5113624930381775
1772408538286340400,3.24834033203125,-0.2689499855041504,-0.2770625054836273,-0.31212499737739563
1772408538306401800,3.26840185546875,-0.11659999936819077,-0.32711249589920044,-0.02241249941289425
1772408538326463200,3.288463134765625,-0.05692499876022339,-0.3100624978542328,0.24186250567436218
1772408538346525000,3.30852490234375,-0.09102500230073929,-0.0798875018954277,0.32711249589920044
1772408538366586000,3.328586181640625,-0.17201249301433563,0.12993749976158142,0.30250000953674316
1772408538386647600,3.3486474609375,-0.18273749947547913,0.2961750030517578,0.33660000562667847
1772408538406709200,3.368709228515625,-0.11027500033378601,0.44948750734329224,0.41552498936653137
1772408538426770700,3.388770751953125,-0.17627499997615814,0.4175874888896942,0.19923749566078186
1772408538446832000,3.40883203125,-0.15386250615119934,0.13529999554157257,-0.5762624740600586
1772408538466893800,3.428893798828125,-0.05486249923706055,-0.25244998931884766,-1.455162525177002
1772408538486955300,3.448955322265625,-0.18796250224113464,-0.7904874682426453,-1.4955874681472778
1772408538507016700,3.4690166015625,-0.632224977016449,-1.0727750062942505,-0.7499250173568726
1772408538527078100,3.489078125,-1.1318999528884888,-0.690387487411499,-0.27156248688697815
1772408538547139600,3.5091396484375,-1.0646624565124512,0.2609750032424927,-0.20350000262260437
1772408538567201000,3.529200927734375,-0.405349999666214,0.8639125227928162,0.15344999730587006
1772408538587262700,3.5492626953125,0.34031251072883606,0.7530875205993652,0.8160625100135803
1772408538607324200,3.56932421875,0.7024874687194824,0.20239999890327454,1.2826000452041626
1772408538627385600,3.589385498046875,0.669487476348877,-0.30250000953674316,1.271875023841858
1772408538647447000,3.609447021484375,0.5747500061988831,-0.26633748412132263,0.9161624908447266
1772408538667508500,3.629508544921875,0.5076500177383423,0.1779250055551529,0.49114999175071716
1772408538687570200,3.649570068359375,0.5278624892234802,0.5219500064849854,0.25244998931884766
1772408538707631600,3.669631591796875,0.5086125135421753,0.3770250082015991,0.15441249310970306
1772408538727693000,3.689693115234375,0.322299987077713,0.05637500062584877,0.07452499866485596
1772408538747754800,3.709754638671875,0.06971249729394913,-0.0789249986410141,0.05967500060796738
1772408538767816200,3.729816162109375,-0.10064999759197235,-0.055412501096725464,-0.09693749994039536
1772408538787877600,3.749877685546875,-0.10284999758005142,0.08951249718666077,-0.15441249310970306
1772408538807939000,3.76993896484375,-0.0719124972820282,0.10326249897480011,0.057475000619888306
1772408538828000500,3.79000048828125,-0.02186249941587448,-0.02241249941289425,0.29727500677108765
1772408538848062000,3.81006201171875,0.006874999962747097,0.03616249933838844,0.4676375091075897
1772408538868123600,3.83012353515625,0.022962499409914017,0.1788875013589859,0.5645750164985657
1772408538888185000,3.85018505859375,0.037812501192092896,0.25561249256134033,0.515625
1772408538908246500,3.87024658203125,0.023924998939037323,0.3877499997615814,0.32381248474121094
1772408538928308200,3.89030810546875,0.12416250258684158,0.35475000739097595,-0.12677499651908875
1772408538948369400,3.910369384765625,0.2083124965429306,-0.005362499970942736,-0.8841249942779541
1772408538968430800,3.930430908203125,0.043175000697374344,-0.3484250009059906,-1.639412522315979
1772408538988492500,3.950492431640625,-0.42239999771118164,-0.6466624736785889,-1.778975009918213
1772408539008554000,3.970553955078125,-1.1169124841690063,-0.05115000158548355,-1.2826000452041626
1772408539028615700,3.99061572265625,-1.3096874952316284,1.7087124586105347,-0.7084000110626221
1772408539048677000,4.010677001953125,-0.9965999722480774,2.6673624515533447,0.14492499828338623
1772408539068738600,4.030738525390625,-0.3414124846458435,2.197662591934204,0.6945124864578247
1772408539088800000,4.050800048828125,0.16885000467300415,0.9767999649047852,0.9843624830245972
1772408539108861700,4.07086181640625,0.28600001335144043,0.09803749620914459,1.0162625312805176
1772408539128923000,4.0909228515625,0.29672500491142273,0.1896124929189682,0.8511250019073486
1772408539148984600,4.110984619140625,0.3445749878883362,0.6146249771118164,0.8149625062942505
1772408539169046000,4.1310458984375,0.2381500005722046,0.720087468624115,0.9534249901771545
1772408539189107500,4.151107421875,-0.03244999796152115,0.33550000190734863,0.8127624988555908
1772408539209169200,4.171169189453125,-0.4298250079154968,-0.06187500059604645,0.24076250195503235
1772408539229230600,4.191230712890625,-0.7823749780654907,-0.05224999785423279,-0.4516874849796295
1772408539249292000,4.2112919921875,-0.927299976348877,0.07878749817609787,-0.856487512588501
1772408539269353700,4.231353759765625,-0.9432500004768372,0.040424998849630356,-0.6945124864578247
1772408539289415000,4.251414794921875,-0.7493749856948853,-0.11618749797344208,-0.19497500360012054
1772408539309476400,4.271476318359375,-0.4320249855518341,-0.3057999908924103,0.2546499967575073
1772408539329538000,4.2915380859375,-0.16458749771118164,-0.44536250829696655,0.5134249925613403
1772408539349599500,4.311599609375,0.0005499999970197678,-0.35048750042915344,0.4954124987125397
1772408539369661000,4.331660888671875,0.15496249496936798,-0.13750000298023224,0.2694999873638153
1772408539389722600,4.35172265625,0.30524998903274536,-0.09267500042915344,0.10766249895095825
1772408539409784000,4.3717841796875,0.44261249899864197,-0.1256749927997589,0.08304999768733978
1772408539429845500,4.391845458984375,0.557699978351593,-0.40796250104904175,-0.19167499244213104
1772408539449907000,4.411906982421875,0.7408499717712402,-1.0109000205993652,-0.8692749738693237
1772408539469968400,4.431968505859375,0.816474974155426,-1.4616249799728394,-1.446637511253357
1772408539490030000,4.452030029296875,0.4511374831199646,-1.796025037765503,-1.7991875410079956
1772408539510091500,4.472091552734375,0.1293874979019165,-1.853637456893921,-1.6255249977111816
1772408539530153000,4.492153076171875,-0.3382500112056732,-1.6501375436782837,-1.0439000129699707
1772408539550214400,4.51221435546875,-0.6396499872207642,-0.810699999332428,-0.8618500232696533
1772408539570276000,4.532276123046875,-0.42666250467300415,-0.28228750824928284,-0.8744999766349792
1772408539590337500,4.552337646484375,0.15289999544620514,-0.737137496471405,-0.34622499346733093
1772408539610399000,4.57239892578125,0.669487476348877,-1.2208625078201294,0.4815250039100647
1772408539630460400,4.59246044921875,0.8889374732971191,-0.5411999821662903,0.7754999995231628
1772408539650522000,4.612522216796875,0.7738500237464905,0.6678375005722046,0.44632500410079956
1772408539670583600,4.63258349609375,0.5161749720573425,1.1589875221252441,0.04468749836087227
1772408539690645000,4.65264501953125,0.2934249937534332,1.0470625162124634,0.0042624999769032
1772408539710706400,4.67270654296875,0.07727500051259995,0.5666375160217285,0.13529999554157257
1772408539730768000,4.692767822265625,-0.15070000290870667,0.06173750013113022,0.012787500396370888
1772408539750829300,4.712829345703125,-0.34031251072883606,-0.22907499969005585,-0.3834874927997589
1772408539770891000,4.73289111328125,-0.36588749289512634,-0.22481249272823334,-0.6572499871253967
1772408539790952400,4.752952392578125,-0.24763749539852142,-0.21408750116825104,-0.6594499945640564
1772408539811014000,4.773013916015625,-0.09212499856948853,-0.28558748960494995,-0.3493874967098236
1772408539831075600,4.79307568359375,0.022962499409914017,-0.234437495470047,0.11192499846220016
1772408539851136800,4.81313671875,0.06875000149011612,-0.1821874976158142,0.44110000133514404
1772408539871198500,4.833198486328125,0.022962499409914017,-0.24928750097751617,0.5645750164985657
1772408539891260000,4.853260009765625,-0.009074999950826168,-0.23539999127388,0.5048999786376953
1772408539911321300,4.8733212890625,0.03148749843239784,-0.06283749639987946,0.3643749952316284
1772408539931382800,4.8933828125,0.133650004863739,0.07452499866485596,0.32807499170303345
1772408539951444500,4.913444580078125,0.33178749680519104,0.2652375102043152,0.5230500102043152
1772408539971505700,4.933505615234375,0.6301624774932861,0.3482874929904938,0.5475249886512756
1772408539991567400,4.9535673828125,0.8623999953269958,0.032999999821186066,0.06710000336170197
1772408540011628800,4.97362890625,0.7899374961853027,-0.3867875039577484,-0.4357374906539917
1772408540031690200,4.993690185546875,0.17737500369548798,-1.0014125108718872,-0.6668750047683716
1772408540051751700,5.013751708984375,-0.73232501745224,-1.106874942779541,-0.72861248254776
1772408540071813000,5.033813232421875,-1.6026999950408936,-0.3718000054359436,-0.6956124901771545
1772408540091874800,5.053874755859375,-1.645324945449829,0.7690374851226807,-0.764912486076355
1772408540111936300,5.073936279296875,-0.7004249691963196,0.6763625144958496,-0.5997750163078308
1772408540131997700,5.093997802734375,0.43092501163482666,-0.39943748712539673,0.013887500390410423
1772408540152059100,5.11405908203125,1.3257750272750854,-1.1611875295639038,0.7947499752044678
1772408540172120600,5.13412060546875,1.6421624422073364,-0.9246875047683716,1.5265250205993652
1772408540192182000,5.15418212890625,1.5015000104904175,0.002062499988824129,1.6416125297546387
1772408540212243500,5.174243408203125,1.2084875106811523,0.994949996471405,1.1697125434875488
1772408540232305200,5.19430517578125,0.6088500022888184,1.649999976158142,0.6594499945640564
1772408540252366300,5.214366455078125,-0.22632500529289246,1.3432375192642212,0.5252500176429749
1772408540272428000,5.234427978515625,-0.9699249863624573,1.0023750066757202,-0.038362499326467514
1772408540292489500,5.254489501953125,-1.4801875352859497,1.1473000049591064,-1.088724970817566
1772408540312550700,5.274550537109375,-1.6601749658584595,1.2579874992370605,-1.787500023841858
1772408540332612000,5.294612060546875,-1.4642374515533447,0.8553875088691711,-1.771549940109253
1772408540352673800,5.314673828125,-1.0040249824523926,0.011687500402331352,-1.1569249629974365
1772408540372735200,5.3347353515625,-0.5011875033378601,-0.6648125052452087,-0.3675374984741211
1772408540392796700,5.354796630859375,-0.09006249904632568,-0.7882875204086304,0.06503749638795853
1772408540412858000,5.374858154296875,0.170912504196167,-0.7095000147819519,0.13846249878406525
1772408540432919600,5.39491943359375,0.27114999294281006,-0.6008750200271606,0.06283749639987946
1772408540452981200,5.414981201171875,0.19126249849796295,-0.46447500586509705,-0.030937500298023224
1772408540473042400,5.43504248046875,0.011137500405311584,-0.23539999127388,0.0042624999769032
1772408540493104000,5.455104248046875,-0.03148749843239784,0.12251249700784683,0.22165000438690186
1772408540513165600,5.47516552734375,0.09955000132322311,0.5315750241279602,0.4292750060558319
1772408540533226800,5.495226806640625,0.4320249855518341,0.43133750557899475,0.1097249984741211
1772408540553288400,5.515288330078125,0.8133124709129333,-0.19181250035762787,-0.5869874954223633
1772408540573350000,5.535349853515625,0.7078499794006348,-1.0993125438690186,-1.0077375173568726
1772408540593411300,5.555411376953125,0.26688748598098755,-1.3582249879837036,-0.8703749775886536
1772408540613472500,5.575472412109375,-0.14959999918937683,-0.5730999708175659,-0.43353748321533203
1772408540633534200,5.5955341796875,-0.2849000096321106,0.3301374912261963,0.2003374993801117
1772408540653595600,5.615595703125,0.07507500052452087,0.6103624701499939,0.6518874764442444
1772408540673656800,5.63565673828125,0.7536374926567078,0.26633748412132263,0.9875249862670898
1772408540693718300,5.65571826171875,1.1521124839782715,-0.3984749913215637,1.3369125127792358
1772408540713780000,5.675780029296875,1.2894749641418457,-0.5688375234603882,1.4434750080108643
1772408540733841200,5.695841064453125,1.1871750354766846,-0.2727999985218048,1.3710124492645264
1772408540753902600,5.715902587890625,0.9017249941825867,0.06063750013709068,1.180299997329712
1772408540773964300,5.73596435546875,0.4468750059604645,0.3877499997615814,0.866112470626831
1772408540794025500,5.756025390625,-0.1251250058412552,0.5890499949455261,0.2993375062942505
1772408540814087200,5.776087158203125,-0.6844750046730042,0.5836874842643738,-0.2961750030517578
1772408540834148400,5.7961484375,-1.0881749391555786,0.5198875069618225,-0.6721000075340271
1772408540854209800,5.816209716796875,-1.1893750429153442,0.4016374945640564,-0.8073999881744385
1772408540874271200,5.836271240234375,-0.9869750142097473,0.22151249647140503,-0.6689375042915344
1772408540894333000,5.8563330078125,-0.6386874914169312,-0.0042624999769032,-0.3291749954223633
1772408540914394000,5.87639404296875,-0.3104749917984009,-0.1779250055551529,0.06173750013113022
1772408540934455600,5.89645556640625,-0.10175000131130219,-0.3526875078678131,0.29727500677108765
1772408540954517000,5.91651708984375,-0.08153750002384186,-0.5113624930381775,0.39943748712539673
1772408540974578400,5.936578369140625,-0.09748750180006027,-0.4218499958515167,0.30469998717308044
1772408540994640000,5.956639892578125,-0.08043749630451202,-0.0798875018954277,0.15867500007152557
1772408541014701000,5.976701171875,0.03671250119805336,0.14904999732971191,0.2003374993801117
1772408541034762800,5.9967626953125,0.23594999313354492,0.28228750824928284,0.3686375021934509
1772408541054824000,6.016823974609375,0.3979249894618988,0.5368000268936157,0.3590124845504761
1772408541074885400,6.036885498046875,0.5790125131607056,0.2129874974489212,-0.1288374960422516
1772408541094947000,6.056947021484375,0.6631624698638916,-0.9289500117301941,-1.3272874355316162
1772408541115008300,6.07700830078125,1.3309999704360962,-1.8727500438690186,-1.7001874446868896
1772408541135070000,6.097070068359375,1.7817250490188599,-1.971887469291687,0.5369374752044678
1772408541155131100,6.117131103515625,0.9081875085830688,-0.9235875010490417,2.0378875732421875
1772408541175192600,6.137192626953125,-0.5033875107765198,-0.10766249895095825,0.9215250015258789
1772408541195254000,6.15725390625,-0.9719874858856201,-0.39201250672340393,-0.2087250053882599
1772408541215315500,6.1773154296875,-0.8346250057220459,-1.124887466430664,-0.12361250072717667
1772408541235377000,6.197376953125,-0.594962477684021,-0.7350749969482422,0.5369374752044678
1772408541255438000,6.21743798828125,-0.49156248569488525,0.4474250078201294,1.049262523651123
1772408541275499500,6.23749951171875,-0.5000874996185303,1.207937479019165,1.2368124723434448
1772408541295561200,6.257561279296875,-0.6513375043869019,1.2282874584197998,1.0876250267028809
1772408541315622400,6.277622314453125,-0.907087504863739,0.8639125227928162,0.6210874915122986
1772408541335684000,6.29768408203125,-1.0859750509262085,0.38554999232292175,-0.018149999901652336
1772408541355745300,6.317745361328125,-1.1648999452590942,0.15015000104904175,-0.524150013923645
1772408541375806700,6.337806640625,-1.0520124435424805,0.38128748536109924,-0.6646749973297119
1772408541395868200,6.3578681640625,-0.7089499831199646,0.4591124951839447,-0.4474250078201294
1772408541415929600,6.3779296875,-0.44261249899864197,0.25561249256134033,-0.0170499999076128
1772408541435991000,6.397990966796875,-0.37014999985694885,0.1023000031709671,0.2780250012874603
1772408541456052200,6.41805224609375,-0.37331250309944153,-0.11508750170469284,0.25561249256134033
1772408541476113700,6.43811376953125,-0.3297249972820282,-0.2876499891281128,0.0681999996304512
1772408541496175000,6.458175048828125,-0.21889999508857727,-0.18012499809265137,-0.16609999537467957
1772408541516236500,6.478236572265625,-0.14327499270439148,-0.018149999901652336,-0.18314999341964722
1772408541536298000,6.498298095703125,-0.16775000095367432,-0.1214125007390976,0.03203750029206276
1772408541556359400,6.518359375,-0.22852499783039093,0.019112499430775642,0.07136250287294388
1772408541576420600,6.538420654296875,-0.045237500220537186,0.49857500195503235,-0.020212499424815178
1772408541596482000,6.55848193359375,0.11343749612569809,0.3291749954223633,-0.12031249701976776
1772408541616543500,6.57854345703125,0.428725004196167,-0.40796250104904175,-0.5048999786376953
1772408541636605000,6.59860498046875,0.7334250211715698,-0.6722375154495239,-0.6381375193595886
1772408541656666000,6.618666015625,0.8069875240325928,-0.9906874895095825,-0.32065001130104065
1772408541676727600,6.6387275390625,0.41813749074935913,-1.4168000221252441,0.0031624999828636646
1772408541696789000,6.6587890625,-0.3254624903202057,-1.180299997329712,-0.007424999959766865
1772408541716850400,6.678850341796875,-0.9890375137329102,-0.2503874897956848,-0.5048999786376953
1772408541736912000,6.698911865234375,-0.9997624754905701,0.8436999917030334,-0.5134249925613403
1772408541756973000,6.71897314453125,-0.5810750126838684,1.45722496509552,0.39943748712539673
1772408541777034500,6.739034423828125,-0.2498375028371811,1.2942874431610107,1.0023750066757202
1772408541797096000,6.759095947265625,-0.05596249923110008,0.8500249981880188,0.9587875008583069
1772408541817157400,6.779157470703125,0.058024998754262924,0.5762624740600586,0.5923500061035156
1772408541837218600,6.799218505859375,0.09212499856948853,0.552887499332428,0.21738749742507935
1772408541857280000,6.819280029296875,0.06971249729394913,0.2971374988555908,0.08304999768733978
1772408541877341400,6.839341552734375,-0.14643749594688416,0.020212499424815178,0.1363999992609024
1772408541897403000,6.85940283203125,-0.4255625009536743,-0.15125000476837158,-0.0873124971985817
1772408541917464000,6.879464111328125,-0.6844750046730042,-0.3100624978542328,-0.3727625012397766
1772408541937525500,6.899525390625,-0.815512478351593,-0.5081999897956848,-0.5037999749183655
1772408541957587000,6.9195869140625,-0.7004249691963196,-0.2685374915599823,-0.4772624969482422
1772408541977648400,6.9396484375,-0.5097125172615051,-0.005362499970942736,-0.24186250567436218
1772408541997709800,6.959709716796875,-0.4372499883174896,0.007424999959766865,0.10009999573230743
1772408542017771300,6.979771240234375,-0.5011875033378601,-0.28132501244544983,0.21518750488758087
1772408542037832400,6.99983251953125,-0.427762508392334,-0.507099986076355,0.2780250012874603
1772408542057894000,7.019893798828125,-0.2092749923467636,-0.5730999708175659,0.2993375062942505
1772408542077955300,7.039955322265625,-0.10175000131130219,-0.6381375193595886,0.07562500238418579
1772408542098016800,7.060016845703125,-0.133650004863739,-0.5869874954223633,-0.1097249984741211
1772408542118078000,7.080077880859375,-0.19978749752044678,-0.3419624865055084,-0.3260124921798706
1772408542138139600,7.1001396484375,-0.05596249923110008,0.02447500079870224,-0.6146249771118164
1772408542158200800,7.120200927734375,0.23278750479221344,-0.4442625045776367,-0.7925499677658081
1772408542178262300,7.14026220703125,0.17311249673366547,-1.281499981880188,-0.847962498664856
1772408542198323700,7.16032373046875,0.05169999971985817,-1.5798749923706055,-0.765874981880188
1772408542218385000,7.180385009765625,-0.345674991607666,-0.9150624871253967,-0.36959999799728394
1772408542238446300,7.2004462890625,-0.8505749702453613,-0.22261250019073486,-0.45058751106262207
1772408542258507800,7.2205078125,-1.0839124917984009,0.5699374675750732,-0.44948750734329224
1772408542278569200,7.2405693359375,-0.7004249691963196,1.2527624368667603,0.10339999943971634
1772408542298630400,7.26063037109375,-0.14217500388622284,1.2494624853134155,0.6743000149726868
1772408542318691800,7.28069189453125,-0.05486249923706055,0.8255500197410583,0.8766999840736389
1772408542338753300,7.300753173828125,-0.2040500044822693,0.3727625012397766,0.7552874684333801
1772408542358814700,7.320814697265625,-0.19222499430179596,-0.09913749992847443,0.32491248846054077
1772408542378876200,7.340876220703125,-0.18700000643730164,-0.49114999175071716,-0.281187504529953
1772408542398937300,7.360937255859375,-0.36162498593330383,-0.16403749585151672,-0.608299970626831
1772408542418998800,7.380998779296875,-0.3786749839782715,0.10436250269412994,-0.7936499714851379
1772408542439060000,7.40106005859375,-0.5597624778747559,-0.24076250195503235,-0.8277499675750732
1772408542459121400,7.421121337890625,-0.6003249883651733,-0.35694998502731323,-0.6572499871253967
1772408542479182800,7.441182861328125,-0.3328875005245209,-0.2461249977350235,-0.5347374677658081
1772408542499244300,7.461244384765625,0.060224998742341995,-0.09693749994039536,-0.3653374910354614
1772408542519305500,7.481305419921875,0.2083124965429306,0.11604999750852585,0.15867500007152557
1772408542539366700,7.50136669921875,0.23594999313354492,0.08524999767541885,0.645562469959259
1772408542559428000,7.521427978515625,0.25093749165534973,-0.28654998540878296,0.5592125058174133
1772408542579489500,7.541489501953125,0.1634874939918518,-0.4676375091075897,0.24928750097751617
1772408542599551000,7.561551025390625,0.1816374957561493,-0.5059999823570251,0.025575000792741776
1772408542619612200,7.581612060546875,0.2700499892234802,-0.6796625256538391,-0.03726249933242798
1772408542639673600,7.601673583984375,0.34677499532699585,-0.5582500100135803,0.13103750348091125
1772408542659734800,7.62173486328125,0.2913624942302704,-0.16087499260902405,0.12361250072717667
1772408542679796200,7.641796142578125,0.2157374918460846,-0.35475000739097595,-0.25244998931884766
1772408542699857700,7.661857666015625,0.3755125105381012,-0.9235875010490417,-0.43779999017715454
1772408542719918800,7.6819189453125,0.36272498965263367,-1.215499997138977,-0.3951750099658966
1772408542739980000,7.70197998046875,-0.18796250224113464,-1.1526625156402588,-0.5284125208854675
1772408542760041700,7.722041748046875,-0.9028249979019165,-0.4059000015258789,-0.5827249884605408
1772408542780103000,7.74210302734375,-1.0060875415802002,0.46873748302459717,-0.7968124747276306
1772408542800164000,7.7621640625,-0.5097125172615051,1.1174625158309937,-0.608299970626831
1772408542820225800,7.782225830078125,-0.03671250119805336,1.2527624368667603,0.17366249859333038
1772408542840287000,7.802286865234375,0.21889999508857727,1.141937494277954,0.802174985408783
1772408542860348400,7.822348388671875,0.40851250290870667,0.6891499757766724,1.1473000049591064
1772408542880409900,7.842409912109375,0.2689499855041504,0.07452499866485596,1.1185624599456787
1772408542900471000,7.862470947265625,0.1518000066280365,-0.1704999953508377,0.3675374984741211
1772408542920532500,7.882532470703125,0.19442500174045563,-0.3260124921798706,-0.6263124942779541
1772408542940593700,7.90259375,0.07933750003576279,-0.46131250262260437,-1.271875023841858
1772408542960655400,7.9226552734375,-0.06655000150203705,-0.3185875117778778,-1.3678499460220337
1772408542980716500,7.942716552734375,-0.08579999953508377,-0.30153748393058777,-0.9704750180244446
1772408543000777700,7.96277783203125,-0.0611874982714653,-0.27486249804496765,-0.4250124990940094
1772408543020839200,7.982839111328125,0.052799999713897705,0.05857500061392784,0.0681999996304512
1772408543040900600,8.002900634765625,0.14011250436306,0.13956250250339508,0.507099986076355
1772408543060961800,8.0229619140625,0.16458749771118164,-0.007424999959766865,0.791450023651123
1772408543081023200,8.043023193359375,0.1443749964237213,-0.005362499970942736,0.8713374733924866
1772408543101084700,8.063084716796874,0.05706249922513962,-0.05857500061392784,0.6125624775886536
1772408543121145900,8.083145751953126,-0.035750001668930054,-0.08318749815225601,0.08524999767541885
1772408543141207300,8.103207275390625,-0.15070000290870667,0.02447500079870224,-0.20666250586509705
1772408543161268500,8.1232685546875,-0.13695000112056732,0.09267500042915344,-0.113987497985363
1772408543181329700,8.14332958984375,0.028187500312924385,0.17998750507831573,0.06283749639987946
1772408543201391000,8.16339111328125,0.1933249980211258,-0.11082500219345093,0.07562500238418579
1772408543221452500,8.18345263671875,0.13474999368190765,-0.903374969959259,-0.227974995970726
1772408543241513700,8.203513671875,0.0005499999970197678,-0.9684125185012817,-0.7840250134468079
1772408543261575200,8.2235751953125,-0.0037124999798834324,-0.6477624773979187,-1.0268499851226807
1772408543281636400,8.24363623046875,-0.3030500113964081,-0.44110000133514404,-0.7402999997138977
1772408543301697800,8.26369775390625,-0.890037477016449,-0.5497249960899353,-0.39311251044273376
1772408543321759200,8.28375927734375,-0.7781124711036682,0.11178749799728394,0.340862512588501
1772408543341820400,8.3038203125,0.11879999935626984,1.3591874837875366,1.0184625387191772
1772408543361881900,8.3238818359375,0.7249000072479248,1.5456374883651733,1.3230249881744385
1772408543381943000,8.343943115234374,0.8740875124931335,0.9565874934196472,1.521162509918213
1772408543402004500,8.36400439453125,0.7814124822616577,0.36643749475479126,1.280400037765503
1772408543422066000,8.38406591796875,0.5938624739646912,0.15757499635219574,0.7233874797821045
1772408543442127000,8.404127197265625,0.35530000925064087,0.267300009727478,0.1097249984741211
1772408543462188500,8.4241884765625,0.1699499934911728,0.22577500343322754,-0.5890499949455261
1772408543482249700,8.444249755859374,-0.16238750517368317,-0.13420000672340393,-0.9630500078201294
1772408543502311000,8.464310791015626,-0.5321249961853027,-0.3984749913215637,-0.8863250017166138
1772408543522372600,8.48437255859375,-0.5171374678611755,-0.22481249272823334,-0.7254499793052673
1772408543542433800,8.504433837890625,-0.15716250240802765,0.27582499384880066,-0.3345375061035156
1772408543562495000,8.524494873046875,0.02502499893307686,0.38554999232292175,0.2854500114917755
1772408543582556400,8.544556396484374,-0.009074999950826168,0.038362499326467514,0.6146249771118164
1772408543602617900,8.564617919921876,-0.045237500220537186,-0.04908749833703041,0.6274124979972839
1772408543622679000,8.584678955078125,-0.04207500070333481,0.0042624999769032,0.4474250078201294
1772408543642740500,8.604740478515625,-0.1358499974012375,-0.08841250091791153,0.29081249237060547
1772408543662801700,8.6248017578125,-0.10284999758005142,-0.17682500183582306,0.19497500360012054
1772408543682863000,8.644863037109374,-0.2550624907016754,-0.33137500286102295,0.2844874858856201
1772408543702924300,8.66492431640625,-0.2316875010728836,-0.055412501096725464,0.3877499997615814
1772408543722985500,8.6849853515625,-0.006874999962747097,0.791450023651123,0.272662490606308
1772408543743047000,8.705046875,-0.17311249673366547,1.107837438583374,-0.07452499866485596
1772408543763108000,8.725108154296874,-0.3638249933719635,0.45058751106262207,-0.7552874684333801
1772408543783169500,8.74516943359375,-0.6290624737739563,-0.3057999908924103,-1.0353749990463257
1772408543803230700,8.765230712890625,-1.1862125396728516,-0.8149625062942505,-0.8713374733924866
1772408543823292200,8.785292236328125,-1.1350624561309814,-0.41442498564720154,-0.7095000147819519
1772408543843353600,8.805353515625,-0.6652249693870544,0.46117499470710754,-0.28338751196861267
1772408543863414800,8.825414794921874,0.0037124999798834324,0.8702374696731567,0.5975750088691711
1772408543883476000,8.84547607421875,0.6003249883651733,0.2620750069618225,1.2772375345230103
1772408543903537400,8.865537353515625,0.7590000033378601,-0.41126251220703125,1.3934249877929688
1772408543923598600,8.8855986328125,0.722837507724762,-0.6253499984741211,0.7404375076293945
1772408543943659800,8.90565966796875,0.6919000148773193,-0.515625,0.014987500384449959
1772408543963721200,8.92572119140625,0.48413750529289246,-0.4357374906539917,-0.23759999871253967
1772408543983782700,8.94578271484375,0.27114999294281006,-0.30896249413490295,-0.3558500111103058
1772408544003843800,8.96584375,0.07823749631643295,-0.317487508058548,-0.524150013923645
1772408544023905300,8.9859052734375,-0.21463750302791595,-0.5795624852180481,-0.8149625062942505
1772408544043966700,9.005966796875,-0.2626250088214874,-0.7243499755859375,-1.291124939918518
1772408544064028000,9.02602783203125,-0.10711249709129333,-0.40796250104904175,-1.4221625328063965
1772408544084089000,9.046089111328126,-0.08579999953508377,-0.11288750171661377,-1.041837453842163
1772408544104150500,9.066150634765625,-0.15289999544620514,0.09377499669790268,-0.3525499999523163
1772408544124211700,9.086211669921875,-0.13474999368190765,0.35144999623298645,0.26840001344680786
1772408544144273200,9.106273193359375,-0.18700000643730164,0.32161250710487366,0.5304750204086304
1772408544164334300,9.126334228515624,-0.05692499876022339,0.30250000953674316,0.45058751106262207
1772408544184395500,9.1463955078125,0.002612499985843897,0.3610749840736389,0.24392500519752502
1772408544204457000,9.16645703125,-0.04207500070333481,0.09583749622106552,0.11824999749660492
1772408544224518400,9.186518310546875,-0.02722499892115593,-0.057612501084804535,0.1970375031232834
1772408544244579600,9.20657958984375,0.05706249922513962,0.3770250082015991,0.45278748869895935
1772408544264641000,9.22664111328125,0.15606249868869781,0.8425999879837036,0.5645750164985657
1772408544284702200,9.2467021484375,-0.014437500387430191,0.7584499716758728,0.29727500677108765
1772408544304763400,9.266763427734375,0.08043749630451202,-0.02983750030398369,-0.272662490606308
1772408544324824600,9.286824462890625,0.2998875081539154,-0.3632749915122986,-0.19071249663829803
1772408544344886000,9.306885986328124,-0.16775000095367432,-0.6199874877929688,0.18108749389648438
1772408544364947500,9.326947509765626,-0.5427125096321106,-0.5048999786376953,0.09693749994039536
1772408544385008600,9.347008544921875,-0.4542999863624573,0.28008750081062317,0
1772408544405069800,9.36706982421875,-0.11027500033378601,0.6380000114440918,0.10656250268220901
1772408544425131300,9.38713134765625,0.2274249941110611,0.3973749876022339,0.5592125058174133
1772408544445192700,9.407192626953124,0.3669874966144562,-0.3515875041484833,0.5838249921798706
1772408544465254000,9.42725390625,0.49059998989105225,-0.6199874877929688,0.49114999175071716
1772408544485315000,9.447315185546875,0.566224992275238,-0.22055000066757202,0.5465624928474426
1772408544505376500,9.46737646484375,0.5714499950408936,0.16513749957084656,0.4548499882221222
1772408544525437700,9.487437744140625,0.40851250290870667,0.13846249878406525,0.1023000031709671
1772408544545499100,9.5074990234375,0.08153750002384186,-0.28228750824928284,-0.48358750343322754
1772408544565560300,9.527560302734376,-0.10711249709129333,-0.6594499945640564,-1.1558250188827515
1772408544585621500,9.54762158203125,0.010174999944865704,-0.6754000186920166,-1.6149375438690186
1772408544605683000,9.567682861328125,0.32436248660087585,-0.6296125054359436,-1.513737440109253
1772408544625744100,9.587744140625,0.27857500314712524,-0.4879874885082245,-0.8468624949455261
1772408544645805300,9.607805419921876,0.15289999544620514,-0.3195500075817108,-0.01484999991953373
1772408544665866800,9.62786669921875,0.13048750162124634,-0.05335000157356262,0.6093999743461609
1772408544685928200,9.64792822265625,0.03464999794960022,0.22893749177455902,0.6796625256538391
1772408544705989400,9.6679892578125,-0.09955000132322311,0.2876499891281128,0.4090625047683716
1772408544726050600,9.688050537109374,-0.21683749556541443,0.06283749639987946,0.1023000031709671
1772408544746111700,9.70811181640625,-0.3531000018119812,-0.19813749194145203,-0.14272500574588776
1772408544766173000,9.7281728515625,-0.47244998812675476,-0.14272500574588776,-0.18741250038146973
1772408544786234600,9.748234619140625,-0.2689499855041504,0.24392500519752502,0.027775000780820847
1772408544806295600,9.768295654296875,-0.16664999723434448,0.4846875071525574,0.45374998450279236
1772408544826357000,9.78835693359375,-0.12416250258684158,0.5517874956130981,0.5262125134468079
1772408544846418200,9.808418212890626,0.27114999294281006,0.5400999784469604,0.0042624999769032
1772408544866479600,9.828479736328125,0.18700000643730164,-0.2759625017642975,-0.5102624893188477
1772408544886540800,9.848540771484375,-0.4010874927043915,-1.3784375190734863,-0.904337465763092
1772408544906602000,9.86860205078125,-0.31267499923706055,-0.3558500111103058,-0.828712522983551
1772408544926663400,9.888663330078124,-0.13158750534057617,0.8255500197410583,-0.46131250262260437
1772408544946724400,9.908724365234375,-0.47671249508857727,0.507099986076355,-0.08524999767541885
1772408544966785800,9.928785888671875,-0.4511374831199646,0.26840001344680786,0.04468749836087227
1772408544986847000,9.948846923828125,0.5086125135421753,0.42611250281333923,0.7595499753952026
1772408545006908400,9.968908447265624,0.9454500079154968,-0.7020750045776367,1.5628249645233154
1772408545026969600,9.988969482421876,0.7398874759674072,-1.5467374324798584,1.5233625173568726
1772408545047030800,10.00903076171875,0.5502749681472778,-0.9204249978065491,0.9448999762535095
1772408545067092200,10.02909228515625,0.32436248660087585,0.20239999890327454,0.37290000915527344
1772408545087153400,10.0491533203125,0.08249999582767487,0.6657750010490417,-0.11715000122785568
1772408545107214800,10.06921484375,-0.17201249301433563,0.1896124929189682,-0.5560500025749207
1772408545127276000,10.089276123046876,-0.2956250011920929,-0.4090625047683716,-0.8298124670982361
1772408545147337200,10.109337158203125,-0.25189998745918274,-0.607200026512146,-1.0173624753952026
1772408545167398700,10.129398681640625,-0.004812499973922968,-0.317487508058548,-0.9970124959945679
1772408545187459800,10.1494599609375,0.023924998939037323,0.11604999750852585,-0.5198875069618225
1772408545207521000,10.16952099609375,-0.08249999582767487,0.2120250016450882,0.09913749992847443
1772408545227582200,10.189582275390626,-0.13901250064373016,0.1373624950647354,0.4516874849796295
1772408545247643600,10.2096435546875,-0.07617499679327011,0.258774995803833,0.4954124987125397
1772408545267704800,10.229704833984375,-0.004812499973922968,0.5869874954223633,0.4101625084877014
1772408545287766000,10.24976611328125,-0.05596249923110008,0.7701374888420105,0.33563750982284546
1772408545307827200,10.2698271484375,-0.23594999313354492,0.699874997138977,0.32711249589920044
1772408545327888600,10.289888671875,-0.3669874966144562,0.6274124979972839,0.5997750163078308
1772408545347949800,10.30994970703125,-0.2796750068664551,0.8702374696731567,0.5422999858856201
1772408545368011300,10.33001123046875,0.004812499973922968,0.9000750184059143,0.07878749817609787
1772408545388072400,10.350072509765624,0.22110000252723694,0.5677375197410583,-0.3951750099658966
