time,seconds_elapsed,z,y,x
1772408535176825300,0.138825439453125,4.7220001220703125,-7.174050331115723,5.592000484466553
1772408535196886500,0.158886474609375,4.549050331115723,-7.1449503898620605,5.452950477600098
1772408535216947700,0.17894775390625,4.216050148010254,-7.135950565338135,5.2420501708984375
1772408535237009200,0.199009033203125,4.249950408935547,-7.180950164794922,5.047950267791748
1772408535257070600,0.219070556640625,4.468050003051758,-7.353000164031982,4.846950054168701
1772408535277131800,0.2391318359375,4.567950248718262,-7.411050319671631,4.72005033493042
1772408535297193000,0.25919287109375,4.789050102233887,-7.324950218200684,4.756050109863281
1772408535317254100,0.279254150390625,4.924950122833252,-7.200000286102295,4.548000335693359
1772408535337315600,0.299315673828125,4.827000141143799,-7.0570502281188965,4.408950328826904
1772408535357377000,0.319376953125,4.822050094604492,-6.95805025100708,4.243950366973877
1772408535377438200,0.339438232421875,4.711950302124023,-6.66195011138916,4.186950206756592
1772408535397499400,0.35949951171875,4.279050350189209,-6.082050323486328,4.300950050354004
1772408535417560600,0.379560546875,3.706050157546997,-5.46405029296875,3.9970502853393555
1772408535437622300,0.399622314453125,3.6750001907348633,-4.773000240325928,3.6690001487731934
1772408535457683500,0.419683349609375,3.7729501724243164,-4.2460503578186035,3.8370001316070557
1772408535477744600,0.43974462890625,3.8359501361846924,-4.3030500411987305,3.9810001850128174
1772408535497805800,0.459805908203125,3.886050224304199,-4.963950157165527,4.134000301361084
1772408535517867300,0.4798671875,3.9790501594543457,-6.4009504318237305,4.392000198364258
1772408535537928700,0.4999287109375,4.075050354003906,-8.886000633239746,4.938000202178955
1772408535557990000,0.519989990234375,4.827000141143799,-12.265950202941895,6.609000205993652
1772408535578051000,0.540051025390625,7.891050338745117,-16.70505142211914,8.020050048828125
1772408535598112500,0.560112548828125,11.818050384521484,-20.22195053100586,7.63200044631958
1772408535618173700,0.580173583984375,15.433051109313965,-22.192951202392578,7.873950481414795
1772408535638235100,0.600235107421875,16.62795066833496,-22.356000900268555,9.187950134277344
1772408535658296300,0.62029638671875,15.606000900268555,-18.858001708984375,7.014000415802002
1772408535678357800,0.640357666015625,13.312050819396973,-13.678950309753418,3.5350501537323
1772408535698419000,0.6604189453125,9.07395076751709,-8.967000007629395,1.158000111579895
1772408535718480400,0.68048046875,3.3259501457214355,-4.861050128936768,0.7990500330924988
1772408535738541600,0.70054150390625,-1.1500500440597534,-0.7240500450134277,1.8229501247406006
1772408535758602800,0.720602783203125,-3.097050189971924,2.8279502391815186,2.688000202178955
1772408535778664200,0.740664306640625,-3.05400013923645,4.198050022125244,2.4559500217437744
1772408535798725600,0.7607255859375,-1.7989500761032104,3.7860002517700195,1.9549500942230225
1772408535818786800,0.780786865234375,-0.364950031042099,2.908950090408325,2.1660001277923584
1772408535838848300,0.80084814453125,0.9360000491142273,2.035950183868408,2.269050121307373
1772408535858909400,0.820909423828125,1.9870500564575195,1.1740500926971436,2.118000030517578
1772408535878971000,0.840970947265625,2.6580002307891846,0.5629500150680542,1.9360500574111938
1772408535899032300,0.8610322265625,2.7850501537323,0.21105000376701355,1.2940500974655151
1772408535919093500,0.881093505859375,2.7180001735687256,-0.11595000326633453,0.6910500526428223
1772408535939155000,0.901155029296875,2.353950023651123,-0.37005001306533813,0.37995001673698425
1772408535959216400,0.92121630859375,2.196000099182129,-1.4610000848770142,0.6910500526428223
1772408535979277600,0.941277587890625,2.1310501098632812,-4.987950325012207,2.590050220489502
1772408535999338800,0.9613388671875,3.4050002098083496,-11.50005054473877,4.3660502433776855
1772408536019400400,0.981400390625,8.254950523376465,-18.93195152282715,6.097050189971924
1772408536039461600,1.001461669921875,14.128050804138184,-25.996952056884766,7.962000370025635
1772408536059522800,1.021522705078125,16.365001678466797,-32.140953063964844,7.869000434875488
1772408536079584300,1.041584228515625,16.582050323486328,-34.3150520324707,5.5489501953125
1772408536099645700,1.061645751953125,17.908950805664062,-31.770002365112305,4.174950122833252
1772408536119707000,1.081706787109375,16.079999923706055,-22.939950942993164,2.7310500144958496
1772408536139768300,1.101768310546875,11.346000671386719,-11.187000274658203,2.1130499839782715
1772408536159829800,1.121829833984375,6.784950256347656,-2.25600004196167,2.4220499992370605
1772408536179891200,1.14189111328125,3.280050039291382,1.5420000553131104,2.7840001583099365
1772408536199952400,1.161952392578125,0.559950053691864,2.920950174331665,3.66195011138916
1772408536220013600,1.182013671875,-0.89205002784729,3.8620502948760986,4.392000198364258
1772408536240075000,1.202074951171875,-1.0909500122070312,3.7639501094818115,4.869000434875488
1772408536260136400,1.222136474609375,-0.26205000281333923,3.3330001831054688,4.624950408935547
1772408536280198000,1.242197998046875,1.276050090789795,1.924950122833252,3.4230000972747803
1772408536300259000,1.262259033203125,3.1840500831604004,0.7000500559806824,1.4500501155853271
1772408536320320500,1.282320556640625,4.669050216674805,0.2350500077009201,0.21000000834465027
1772408536340382000,1.3023818359375,4.99500036239624,0.5010000467300415,-0.09795000404119492
1772408536360443100,1.322443115234375,3.8020501136779785,0.6520500183105469,-0.037950001657009125
1772408536380504600,1.342504638671875,2.1450002193450928,0.46995002031326294,0.07800000160932541
1772408536400566000,1.36256591796875,1.6189501285552979,0.031950000673532486,0.42795002460479736
1772408536420627500,1.38262744140625,1.8130500316619873,-1.0830000638961792,0.8059500455856323
1772408536440688600,1.402688720703125,1.9320000410079956,-3.741000175476074,1.7130000591278076
1772408536460750000,1.42275,2.6770501136779785,-8.223000526428223,3.283950090408325
1772408536480811500,1.4428115234375,5.5759501457214355,-13.30095100402832,5.860050201416016
1772408536500872700,1.462872802734375,8.329950332641602,-18.961050033569336,8.332950592041016
1772408536520934100,1.48293408203125,10.506000518798828,-26.47395133972168,9.633000373840332
1772408536540995600,1.50299560546875,14.521050453186035,-32.851951599121094,8.641950607299805
1772408536561057000,1.52305712890625,16.498950958251953,-33.820953369140625,5.484000205993652
1772408536581118200,1.5431181640625,14.523000717163086,-29.986051559448242,4.1509504318237305
1772408536601179600,1.5631796875,11.959050178527832,-22.626001358032227,3.3130502700805664
1772408536621241000,1.583240966796875,10.723950386047363,-13.849050521850586,1.7850000858306885
1772408536641302500,1.603302490234375,9.084000587463379,-6.433950424194336,0.6409500241279602
1772408536661363700,1.62336376953125,6.3349504470825195,-2.505000114440918,1.4040000438690186
1772408536681425200,1.643425048828125,3.4360501766204834,0.48900002241134644,2.7430500984191895
1772408536701486600,1.663486572265625,0.8050500154495239,2.826000213623047,3.870000123977661
1772408536721548000,1.683548095703125,-0.8850000500679016,3.9079501628875732,4.984050273895264
1772408536741609500,1.703609375,-1.4640001058578491,3.621000289916992,4.9360504150390625
1772408536761671000,1.7236708984375,-1.6699501276016235,2.3519999980926514,3.8269500732421875
1772408536781732000,1.743732177734375,-1.2390000820159912,1.3890000581741333,2.7139501571655273
1772408536801793500,1.76379345703125,0.6679500341415405,1.26705002784729,1.7470500469207764
1772408536821855000,1.78385498046875,3.1249501705169678,1.1950500011444092,0.9180000424385071
1772408536841916400,1.80391650390625,4.555950164794922,0.9529500603675842,0.598050057888031
1772408536882039000,1.8440390625,3.1270501613616943,-0.527999997138977,-0.89805006980896
1772408536902100500,1.8641005859375,2.863950252532959,-1.4299501180648804,-1.2859500646591187
1772408536922162000,1.884161865234375,3.2920501232147217,-3.1999502182006836,0.49695003032684326
1772408536942223400,1.904223388671875,3.859950065612793,-7.689000129699707,2.9730000495910645
1772408536962284500,1.924284423828125,5.812950134277344,-12.862950325012207,4.672950267791748
1772408536982346200,1.94434619140625,8.48805046081543,-18.263999938964844,7.392000198364258
1772408537002407700,1.96440771484375,11.716950416564941,-25.192951202392578,10.371000289916992
1772408537022468900,1.98446875,13.171051025390625,-33.69900131225586,13.21500015258789
1772408537042530300,2.0045302734375,15.342000961303711,-36.517051696777344,9.760050773620605
1772408537062591700,2.024591796875,16.635000228881836,-31.300050735473633,4.783050060272217
1772408537082653200,2.044653076171875,15.10995101928711,-21.145950317382812,2.6110501289367676
1772408537102714400,2.06471435546875,11.50200080871582,-10.753050804138184,3.315000057220459
1772408537122776000,2.084776123046875,7.080000400543213,-3.52305006980896,4.063950061798096
1772408537142837500,2.10483740234375,2.422950029373169,0.6949500441551208,3.526050090789795
1772408537162898700,2.124898681640625,-0.9760500192642212,3.3670501708984375,2.76705002784729
1772408537182960400,2.14496044921875,-2.0220000743865967,4.111050128936768,2.496000051498413
1772408537203021800,2.165021728515625,-1.8300000429153442,2.7490501403808594,2.4120001792907715
1772408537223083000,2.1850830078125,-1.075950026512146,1.165950059890747,1.9290001392364502
1772408537243144700,2.205144775390625,-0.07304999977350235,0.004950000438839197,0.8560500144958496
1772408537263206100,2.2252060546875,0.675000011920929,-0.13005000352859497,-0.20595000684261322
1772408537283267300,2.245267333984375,1.8889501094818115,0.3960000276565552,-0.10005000233650208
1772408537303328800,2.265328857421875,3.438000202178955,0.9169500470161438,0.22395001351833344
1772408537323390500,2.285390380859375,3.52905011177063,0.8239500522613525,0.14805001020431519
1772408537343451600,2.30545166015625,1.9369500875473022,0.8650500178337097,0.0880500078201294
1772408537363513300,2.325513427734375,0.48405003547668457,0.5179499983787537,0.22905001044273376
1772408537383574500,2.345574462890625,0.7300500273704529,-0.18495000898838043,0.556950032711029
1772408537403636000,2.365635986328125,2.5759501457214355,-2.1010501384735107,1.725000023841858
1772408537423697400,2.385697509765625,4.89900016784668,-7.789050579071045,4.050000190734863
1772408537443758800,2.4057587890625,9.067049980163574,-13.582950592041016,5.748000144958496
1772408537463820300,2.4258203125,13.21605110168457,-17.737051010131836,7.900050163269043
1772408537483882000,2.445882080078125,16.65705108642578,-23.311050415039062,9.07800006866455
1772408537503943400,2.465943359375,19.95600128173828,-27.658950805664062,10.795050621032715
1772408537524004600,2.486004638671875,21.673051834106445,-29.8780517578125,11.41200065612793
1772408537544066000,2.506066162109375,20.7049503326416,-27.130050659179688,9.538050651550293
1772408537564127700,2.526127685546875,16.68105125427246,-20.398950576782227,6.058950424194336
1772408537584189000,2.54618896484375,11.422950744628906,-12.730950355529785,4.723050117492676
1772408537604250400,2.56625048828125,6.943050384521484,-6.3670501708984375,3.5590500831604004
1772408537624311800,2.586311767578125,2.2200000286102295,-2.127000093460083,2.4529500007629395
1772408537644373500,2.60637353515625,-1.3950001001358032,0.36195001006126404,1.7089500427246094
1772408537664434700,2.6264345703125,-1.902000069618225,2.1220500469207764,1.141050100326538
1772408537684496100,2.64649609375,-0.24300001561641693,2.4979500770568848,0.7480500340461731
1772408537704557800,2.666557861328125,1.5319501161575317,1.8250501155853271,0.7560000419616699
1772408537724619000,2.686618896484375,2.124000072479248,1.3530000448226929,0.34905001521110535
1772408537744680400,2.706680419921875,2.4060001373291016,1.0350000858306885,0.18105000257492065
1772408537764742100,2.7267421875,2.433000087738037,1.0420500040054321,0.19305001199245453
1772408537784803600,2.746803466796875,2.39205002784729,1.1040000915527344,0.38700002431869507
1772408537804865000,2.766864990234375,2.4850502014160156,1.0990500450134277,0.5550000071525574
1772408537824926500,2.786926513671875,2.320050001144409,1.0320000648498535,0.6600000262260437
1772408537844988000,2.80698779296875,2.4180002212524414,0.9169500470161438,0.25005000829696655
1772408537865049600,2.827049560546875,2.7300000190734863,0.6450000405311584,0.09000000357627869
1772408537885111000,2.847111083984375,3.1579501628875732,0.25394999980926514,0.322050005197525
1772408537905172500,2.86717236328125,3.570000171661377,-1.7290500402450562,0.9469500184059143
1772408537925234000,2.88723388671875,4.630950450897217,-6.352950096130371,2.5609500408172607
1772408537945295400,2.90729541015625,7.393950462341309,-10.827000617980957,3.961050271987915
1772408537965356800,2.927356689453125,12.642000198364258,-14.707950592041016,5.914950370788574
1772408537985418200,2.947418212890625,15.886051177978516,-19.983001708984375,9.241050720214844
1772408538005479700,2.967479736328125,18,-25.609050750732422,11.005050659179688
1772408538025541000,2.987541015625,19.266000747680664,-30.04305076599121,11.29995059967041
1772408538045602800,3.007602783203125,19.654050827026367,-30.41400146484375,9.235950469970703
1772408538065664000,3.0276640625,17.551950454711914,-24.67605209350586,6.487050533294678
1772408538085725700,3.0477255859375,13.333950996398926,-16.530000686645508,4.972050189971924
1772408538105787100,3.067787109375,8.884950637817383,-9.331050872802734,4.597949981689453
1772408538125848600,3.0878486328125,4.810050010681152,-3.6880502700805664,4.105050086975098
1772408538145910000,3.107909912109375,1.3150500059127808,0.004950000438839197,3.1330502033233643
1772408538165971500,3.127971435546875,-0.7189500331878662,1.9759501218795776,2.5630500316619873
1772408538186033000,3.148032958984375,-2.1510000228881836,2.851950168609619,2.379000186920166
1772408538206094600,3.168094482421875,-2.4790501594543457,2.3899500370025635,2.130000114440918
1772408538226156000,3.188156005859375,-1.9549500942230225,1.67205011844635,1.3780500888824463
1772408538246217500,3.208217529296875,-0.6480000019073486,1.5739500522613525,1.024049997329712
1772408538266278700,3.228278564453125,1.081950068473816,1.5540000200271606,0.6910500526428223
1772408538286340400,3.24834033203125,2.373000144958496,1.2139500379562378,-0.0070500001311302185
1772408538306401800,3.26840185546875,2.8060500621795654,1.1430000066757202,0.04200000315904617
1772408538326463200,3.288463134765625,2.4379501342773438,1.1710500717163086,0.5380499958992004
1772408538346525000,3.30852490234375,1.7929500341415405,1.0849500894546509,0.7129500508308411
1772408538366586000,3.328586181640625,1.7770501375198364,0.8910000324249268,0.6139500141143799
1772408538386647600,3.3486474609375,2.1859500408172607,0.2760000228881836,0.28200000524520874
1772408538406709200,3.368709228515625,2.551950216293335,-1.3729500770568848,0.8299500346183777
1772408538426770700,3.388770751953125,2.823000192642212,-5.0530500411987305,2.8750500679016113
1772408538446832000,3.40883203125,4.594950199127197,-10.080000877380371,4.270050048828125
1772408538466893800,3.428893798828125,10.405050277709961,-14.767951011657715,5.793000221252441
1772408538486955300,3.448955322265625,19.108051300048828,-19.97100067138672,8.623050689697266
1772408538507016700,3.4690166015625,24.024002075195312,-24.15795135498047,10.356000900268555
1772408538527078100,3.489078125,24.07200050354004,-27.36195182800293,9.853950500488281
1772408538547139600,3.5091396484375,23.00400161743164,-28.216951370239258,7.930950164794922
1772408538567201000,3.529200927734375,19.9320011138916,-23.775001525878906,5.506050109863281
1772408538587262700,3.5492626953125,14.634000778198242,-16.285951614379883,3.9280502796173096
1772408538607324200,3.56932421875,8.773050308227539,-9.154050827026367,3.5190000534057617
1772408538627385600,3.589385498046875,3.699000120162964,-3.9180002212524414,3.078000068664551
1772408538647447000,3.609447021484375,0.843000054359436,-0.753000020980835,2.3650500774383545
1772408538667508500,3.629508544921875,-0.3910500109195709,1.0440000295639038,1.4070000648498535
1772408538687570200,3.649570068359375,-0.7699500322341919,2.176950216293335,0.6340500116348267
1772408538707631600,3.669631591796875,-0.9949500560760498,2.5069501399993896,0.922950029373169
1772408538727693000,3.689693115234375,-0.5809500217437744,2.115000009536743,1.5100500583648682
1772408538747754800,3.709754638671875,-0.07095000147819519,1.4629501104354858,1.495050072669983
1772408538767816200,3.729816162109375,0.5290500521659851,0.8410500288009644,0.9259500503540039
1772408538787877600,3.749877685546875,1.8799500465393066,0.3960000276565552,0.5590500235557556
1772408538807939000,3.76993896484375,2.2960500717163086,0.43095001578330994,0.10905000567436218
1772408538828000500,3.79000048828125,2.212050199508667,0.6250500082969666,0.022950001060962677
1772408538848062000,3.81006201171875,1.8840000629425049,0.5779500007629395,0.28905001282691956
1772408538868123600,3.83012353515625,0.9670500755310059,0.6280500292778015,0.322050005197525
1772408538888185000,3.85018505859375,0.5269500017166138,0.2179500162601471,0.48705002665519714
1772408538908246500,3.87024658203125,0.7230000495910645,-1.2220500707626343,1.024049997329712
1772408538928308200,3.89030810546875,1.9009500741958618,-4.456050395965576,2.3740501403808594
1772408538948369400,3.910369384765625,5.539950370788574,-10.246050834655762,5.689950466156006
1772408538968430800,3.930430908203125,13.07295036315918,-16.46595001220703,8.688000679016113
1772408538988492500,3.950492431640625,22.659000396728516,-21.39495086669922,10.78695011138916
1772408539008554000,3.970553955078125,28.840951919555664,-26.77800178527832,11.788050651550293
1772408539028615700,3.99061572265625,29.19300079345703,-29.380050659179688,9.637950897216797
1772408539048677000,4.010677001953125,24.052051544189453,-27.496051788330078,6.874950408935547
1772408539068738600,4.030738525390625,16.98000144958496,-21.421951293945312,5.190000057220459
1772408539088800000,4.050800048828125,11.665050506591797,-12.795001029968262,3.8970000743865967
1772408539108861700,4.07086181640625,7.72605037689209,-5.026050090789795,2.557950019836426
1772408539128923000,4.0909228515625,4.699950218200684,0.031950000673532486,1.5769500732421875
1772408539148984600,4.110984619140625,2.800950050354004,2.9380500316619873,1.075950026512146
1772408539169046000,4.1310458984375,0.25394999980926514,3.802950143814087,1.2679500579833984
1772408539189107500,4.151107421875,-2.4120001792907715,3.4860000610351562,1.8570001125335693
1772408539209169200,4.171169189453125,-3.4990501403808594,2.3779501914978027,2.01705002784729
1772408539229230600,4.191230712890625,-2.1630001068115234,0.7860000133514404,1.4740500450134277
1772408539249292000,4.2112919921875,0.2989500164985657,-0.09195000678300858,0.5590500235557556
1772408539269353700,4.231353759765625,2.362950086593628,-0.492000013589859,-0.4140000343322754
1772408539289415000,4.251414794921875,2.67900013923645,-0.4249500334262848,-1.4100000858306885
1772408539309476400,4.271476318359375,1.9870500564575195,-0.09405000507831573,-1.4440500736236572
1772408539329538000,4.2915380859375,0.9940500259399414,0.13905000686645508,-0.7230000495910645
1772408539349599500,4.311599609375,-0.030000001192092896,0.15900000929832458,-0.08100000023841858
1772408539369661000,4.331660888671875,-0.38895002007484436,0.24000000953674316,-0.12195000797510147
1772408539389722600,4.35172265625,0.17295001447200775,0.4909500181674957,-0.2659500241279602
1772408539409784000,4.3717841796875,0.7570500373840332,-0.6469500064849854,0.24795001745224
1772408539429845500,4.391845458984375,1.3840500116348267,-4.042050361633301,2.139000177383423
1772408539449907000,4.411906982421875,4.207050323486328,-8.268000602722168,3.66195011138916
1772408539469968400,4.431968505859375,9.697050094604492,-13.012950897216797,6.268950462341309
1772408539490030000,4.452030029296875,16.897951126098633,-19.786951065063477,9.11400032043457
1772408539510091500,4.472091552734375,24.082950592041016,-24.95100212097168,10.27695083618164
1772408539530153000,4.492153076171875,26.371952056884766,-27.82200050354004,11.302050590515137
1772408539550214400,4.51221435546875,22.828950881958008,-29.050050735473633,10.689000129699707
1772408539570276000,4.532276123046875,19.032001495361328,-27.27105140686035,9.001049995422363
1772408539590337500,4.552337646484375,16.750051498413086,-21.59895133972168,7.777950286865234
1772408539610399000,4.57239892578125,13.099050521850586,-13.32705020904541,6.502050399780273
1772408539630460400,4.59246044921875,7.389000415802002,-5.551050186157227,5.5819501876831055
1772408539650522000,4.612522216796875,2.931000232696533,0.20205001533031464,4.444950103759766
1772408539670583600,4.63258349609375,1.2619500160217285,3.2760002613067627,2.8000500202178955
1772408539690645000,4.65264501953125,0.9340500235557556,4.594950199127197,1.120050072669983
1772408539710706400,4.67270654296875,0.19905000925064087,4.3630499839782715,0.6100500226020813
1772408539730768000,4.692767822265625,-0.5689499974250793,2.971950054168701,0.7459500432014465
1772408539750829300,4.712829345703125,-0.05895000323653221,1.2550500631332397,0.7219500541687012
1772408539770891000,4.73289111328125,1.4059500694274902,0.06495000422000885,0.07800000160932541
1772408539790952400,4.752952392578125,2.7990000247955322,-0.19995000958442688,-0.4930500090122223
1772408539811014000,4.773013916015625,3.841050148010254,0.27105000615119934,-0.7249500155448914
1772408539831075600,4.79307568359375,3.8359501361846924,0.736050009727478,-0.5580000281333923
1772408539851136800,4.81313671875,2.883000135421753,1.363050103187561,-0.22005000710487366
1772408539871198500,4.833198486328125,1.9780501127243042,1.7200500965118408,-0.18405000865459442
1772408539891260000,4.853260009765625,1.450950026512146,1.360050082206726,-0.07200000435113907
1772408539911321300,4.8733212890625,1.746000051498413,0.7549500465393066,-0.028950002044439316
1772408539931382800,4.8933828125,2.959050178527832,-0.17805001139640808,-0.05505000427365303
1772408539951444500,4.913444580078125,3.9240002632141113,-1.894950032234192,0.3630000054836273
1772408539971505700,4.933505615234375,4.798050403594971,-5.725050449371338,2.326050043106079
1772408539991567400,4.9535673828125,7.099050521850586,-10.732050895690918,5.299950122833252
1772408540011628800,4.97362890625,12.385050773620605,-16.897050857543945,8.962950706481934
1772408540031690200,4.993690185546875,17.470951080322266,-23.87295150756836,11.96505069732666
1772408540051751700,5.013751708984375,20.977951049804688,-29.871002197265625,14.142000198364258
1772408540071813000,5.033813232421875,21.69405174255371,-34.1899528503418,14.002950668334961
1772408540091874800,5.053874755859375,18.859050750732422,-33.94605255126953,9.921000480651855
1772408540111936300,5.073936279296875,15.76395034790039,-27.229951858520508,5.949000358581543
1772408540131997700,5.093997802734375,12.883050918579102,-17.629051208496094,3.756000280380249
1772408540152059100,5.11405908203125,10.531950950622559,-7.863000392913818,2.326050043106079
1772408540172120600,5.13412060546875,6.330000400543213,-0.8440500497817993,2.3910000324249268
1772408540192182000,5.15418212890625,1.5010501146316528,2.1100502014160156,2.986950159072876
1772408540212243500,5.174243408203125,-1.593000054359436,3.489000082015991,4.179000377655029
1772408540232305200,5.19430517578125,-2.1540000438690186,3.211050033569336,5.374050140380859
1772408540252366300,5.214366455078125,-2.9290502071380615,2.410950183868408,5.095950126647949
1772408540272428000,5.234427978515625,-4.35105037689209,1.492050051689148,3.598050117492676
1772408540292489500,5.254489501953125,-3.6120002269744873,0.597000002861023,1.555050015449524
1772408540312550700,5.274550537109375,-0.8419500589370728,-0.0970500037074089,-0.4600500166416168
1772408540332612000,5.294612060546875,1.9440001249313354,-0.5160000324249268,-1.963050127029419
1772408540352673800,5.314673828125,3.6180002689361572,-0.6570000052452087,-2.430000066757202
1772408540372735200,5.3347353515625,3.457050085067749,-0.15900000929832458,-2.3989500999450684
1772408540392796700,5.354796630859375,2.3800501823425293,0.42195001244544983,-2.0280001163482666
1772408540412858000,5.374858154296875,1.7839500904083252,1.0320000648498535,-1.3170000314712524
1772408540432919600,5.39491943359375,1.8390001058578491,1.2859500646591187,-0.2560500204563141
1772408540452981200,5.414981201171875,2.662950038909912,1.2529500722885132,0.7480500340461731
1772408540473042400,5.43504248046875,3.868950128555298,0.6760500073432922,1.0069500207901
1772408540493104000,5.455104248046875,5.145000457763672,-0.8680500388145447,0.6790500283241272
1772408540513165600,5.47516552734375,5.919000148773193,-4.260000228881836,1.0290000438690186
1772408540533226800,5.495226806640625,6.618000507354736,-10.083000183105469,3.5929501056671143
1772408540553288400,5.515288330078125,10.908000946044922,-16.219051361083984,7.359000205993652
1772408540573350000,5.535349853515625,17.56905174255371,-23.205001831054688,10.917000770568848
1772408540593411300,5.555411376953125,24.08595085144043,-31.057950973510742,12.538050651550293
1772408540613472500,5.575472412109375,27.184051513671875,-36.265953063964844,12.535050392150879
1772408540633534200,5.5955341796875,24.571950912475586,-35.92605209350586,10.617000579833984
1772408540653595600,5.615595703125,17.692951202392578,-29.157001495361328,7.087950229644775
1772408540673656800,5.63565673828125,11.868000984191895,-18.649051666259766,4.335000038146973
1772408540693718300,5.65571826171875,6.928950309753418,-8.533950805664062,3.195000171661377
1772408540713780000,5.675780029296875,2.5690500736236572,-1.2550500631332397,2.467050075531006
1772408540733841200,5.695841064453125,-0.3720000088214874,2.751000165939331,2.3239500522613525
1772408540753902600,5.715902587890625,-2.1130499839782715,4.3909502029418945,2.5060501098632812
1772408540773964300,5.73596435546875,-3.1279501914978027,3.7669501304626465,3.013050079345703
1772408540794025500,5.756025390625,-3.4009501934051514,2.236950159072876,3.043950080871582
1772408540814087200,5.776087158203125,-2.388000011444092,0.7879500389099121,2.556000232696533
1772408540834148400,5.7961484375,-1.1340000629425049,-0.23805001378059387,1.3020000457763672
1772408540854209800,5.816209716796875,0.21105000376701355,-0.609000027179718,-0.33000001311302185
1772408540874271200,5.836271240234375,1.3819500207901,-0.5470499992370605,-1.4170501232147217
1772408540894333000,5.8563330078125,2.076000213623047,-0.28095000982284546,-1.64205002784729
1772408540914394000,5.87639404296875,1.810050129890442,0.15900000929832458,-1.3690500259399414
1772408540934455600,5.89645556640625,1.4299501180648804,0.7330500483512878,-0.531000018119812
1772408540954517000,5.91651708984375,1.1329500675201416,0.9769500494003296,0.06599999964237213
1772408540974578400,5.936578369140625,0.8670000433921814,0.7879500389099121,0.10005000233650208
1772408540994640000,5.956639892578125,1.489050030708313,0.28095000982284546,0.1570500135421753
1772408541014701000,5.976701171875,2.562000036239624,-0.42705002427101135,-0.1579500138759613
1772408541034762800,5.9967626953125,3.2539501190185547,-1.6669501066207886,0.5070000290870667
1772408541054824000,6.016823974609375,4.807950019836426,-4.935000419616699,2.2260000705718994
1772408541074885400,6.036885498046875,7.297950267791748,-11.746950149536133,5.293050289154053
1772408541094947000,6.056947021484375,13.041000366210938,-20.18895149230957,6.949050426483154
1772408541115008300,6.07700830078125,25.83795166015625,-25.162050247192383,5.494050025939941
1772408541135070000,6.097070068359375,33.832950592041016,-31.07505226135254,11.57295036315918
1772408541155131100,6.117131103515625,23.989952087402344,-30.493051528930664,16.081050872802734
1772408541175192600,6.137192626953125,14.725050926208496,-28.09695053100586,13.320000648498535
1772408541195254000,6.15725390625,14.217000961303711,-22.209001541137695,7.728000164031982
1772408541215315500,6.1773154296875,14.434950828552246,-14.455050468444824,4.69605016708374
1772408541235377000,6.197376953125,11.551950454711914,-7.090050220489502,3.0300002098083496
1772408541255438000,6.21743798828125,6.535950183868408,-1.495050072669983,2.1949501037597656
1772408541275499500,6.23749951171875,1.615950107574463,2.2890000343322754,1.4520000219345093
1772408541295561200,6.257561279296875,-2.1780002117156982,3.6730501651763916,1.1509500741958618
1772408541315622400,6.277622314453125,-3.564000129699707,3.022050142288208,1.120050072669983
1772408541335684000,6.29768408203125,-3.06600022315979,1.7910001277923584,0.6739500164985657
1772408541355745300,6.317745361328125,-1.1479500532150269,0.3240000009536743,0.15495000779628754
1772408541375806700,6.337806640625,0.7830000519752502,-0.595050036907196,-0.8400000333786011
1772408541395868200,6.3578681640625,1.966050148010254,-0.595050036907196,-1.1539500951766968
1772408541415929600,6.3779296875,1.5799500942230225,0.0010500000789761543,-0.6130500435829163
1772408541435991000,6.397990966796875,0.4020000100135803,0.46995002031326294,-0.4020000100135803
1772408541456052200,6.41805224609375,-0.5209500193595886,0.9919500350952148,-0.286950021982193
1772408541476113700,6.43811376953125,-0.5760000348091125,1.1209501028060913,-0.45705002546310425
1772408541496175000,6.458175048828125,0.16995000839233398,0.7140000462532043,-0.2970000207424164
1772408541516236500,6.478236572265625,1.4850000143051147,0.4240500330924988,0.33195000886917114
1772408541536298000,6.498298095703125,1.954050064086914,0.23295001685619354,1.2660000324249268
1772408541556359400,6.518359375,2.215050220489502,-0.527999997138977,1.1650500297546387
1772408541576420600,6.538420654296875,3.52905011177063,-2.1010501384735107,1.8450000286102295
1772408541596482000,6.55848193359375,5.124000072479248,-5.536050319671631,4.110000133514404
1772408541616543500,6.57854345703125,8.800950050354004,-10.648050308227539,6.532950401306152
1772408541636605000,6.59860498046875,15.184050559997559,-14.287050247192383,8.221050262451172
1772408541656666000,6.618666015625,20.290950775146484,-18.819000244140625,11.293050765991211
1772408541676727600,6.6387275390625,23.418001174926758,-23.671951293945312,15.135001182556152
1772408541696789000,6.6587890625,23.940000534057617,-26.220001220703125,16.207950592041016
1772408541716850400,6.678850341796875,23.59305191040039,-27.733051300048828,15.17400074005127
1772408541736912000,6.698911865234375,23.67405128479004,-23.257951736450195,10.390050888061523
1772408541756973000,6.71897314453125,18.937950134277344,-16.186050415039062,6.547050476074219
1772408541777034500,6.739034423828125,11.044950485229492,-9.843000411987305,4.419000148773193
1772408541797096000,6.759095947265625,4.558950424194336,-4.387050151824951,2.3359501361846924
1772408541817157400,6.779157470703125,0.8500500321388245,-0.39795002341270447,0.4159500300884247
1772408541837218600,6.799218505859375,-0.05400000140070915,1.516050100326538,-0.31800001859664917
1772408541857280000,6.819280029296875,-0.23100000619888306,2.373000144958496,0.4129500091075897
1772408541877341400,6.839341552734375,-0.8730000257492065,2.2300500869750977,1.0879501104354858
1772408541897403000,6.85940283203125,-1.2220500707626343,1.7530500888824463,1.0669500827789307
1772408541917464000,6.879464111328125,-0.046950001269578934,1.0800000429153442,1.1989500522613525
1772408541937525500,6.899525390625,1.2450000047683716,0.5850000381469727,0.697950005531311
1772408541957587000,6.9195869140625,2.044950008392334,0.6160500049591064,0.3270000219345093
1772408541977648400,6.9396484375,1.91100013256073,0.7570500373840332,0.226950004696846
1772408541997709800,6.959709716796875,0.9720000624656677,0.9919500350952148,0.19500000774860382
1772408542017771300,6.979771240234375,0.20100000500679016,1.0369499921798706,0.13305000960826874
1772408542037832400,6.99983251953125,-0.739050030708313,1.152000069618225,0.04500000178813934
1772408542057894000,7.019893798828125,-1.4860501289367676,1.1779500246047974,-0.17205001413822174
1772408542077955300,7.039955322265625,-0.8680500388145447,1.1620500087738037,0.7170000076293945
1772408542098016800,7.060016845703125,-0.07095000147819519,1.3680000305175781,1.5979501008987427
1772408542118078000,7.080077880859375,1.7050501108169556,-0.015000000596046448,2.2039501667022705
1772408542138139600,7.1001396484375,5.07105016708374,-4.240950107574463,5.046000003814697
1772408542158200800,7.120200927734375,10.008000373840332,-9.288000106811523,8.51294994354248
1772408542178262300,7.14026220703125,15.904951095581055,-14.614951133728027,12.897000312805176
1772408542198323700,7.16032373046875,21.957000732421875,-19.743000030517578,18.172950744628906
1772408542218385000,7.180385009765625,25.16805076599121,-23.680051803588867,20.826000213623047
1772408542238446300,7.2004462890625,25.828950881958008,-25.450950622558594,21.43695068359375
1772408542258507800,7.2205078125,24.469051361083984,-25.2450008392334,19.195951461791992
1772408542278569200,7.2405693359375,20.1739501953125,-20.47395133972168,13.468950271606445
1772408542298630400,7.26063037109375,13.177950859069824,-12.106050491333008,9.42300033569336
1772408542318691800,7.28069189453125,6.342000484466553,-4.98105001449585,6.234000205993652
1772408542338753300,7.300753173828125,1.4610000848770142,-1.0969500541687012,2.590050220489502
1772408542358814700,7.320814697265625,-1.4500501155853271,1.39395010471344,0.4249500334262848
1772408542378876200,7.340876220703125,-1.519050121307373,1.9230000972747803,0.4849500358104706
1772408542398937300,7.360937255859375,-1.8900001049041748,1.686000108718872,0.5779500007629395
1772408542418998800,7.380998779296875,-1.897050142288208,1.2360000610351562,0.9640500545501709
1772408542439060000,7.40106005859375,0.039000000804662704,0.20205001533031464,0.9180000424385071
1772408542459121400,7.421121337890625,1.662000060081482,-0.934950053691864,-0.07200000435113907
1772408542479182800,7.441182861328125,2.551950216293335,-1.3920000791549683,-0.9940500259399414
1772408542499244300,7.461244384765625,3.112950086593628,-0.9270000457763672,-0.48795002698898315
1772408542519305500,7.481305419921875,2.3989500999450684,-0.18495000898838043,-0.1270500123500824
1772408542539366700,7.50136669921875,0.16305001080036163,0.4600500166416168,-0.3469500243663788
1772408542559428000,7.521427978515625,-1.4310001134872437,0.9490500688552856,-0.11205000430345535
1772408542579489500,7.541489501953125,-1.8019500970840454,0.8670000433921814,-0.04800000041723251
1772408542599551000,7.561551025390625,-0.6760500073432922,0.5029500126838684,-0.42600002884864807
1772408542619612200,7.581612060546875,1.4530500173568726,0.027000000700354576,0.3079500198364258
1772408542639673600,7.601673583984375,2.4810001850128174,0.00795000046491623,2.0250000953674316
1772408542659734800,7.62173486328125,2.83305025100708,-1.537950038909912,4.740000247955322
1772408542679796200,7.641796142578125,5.377950191497803,-5.022000312805176,7.716000556945801
1772408542699857700,7.661857666015625,10.45995044708252,-9.757050514221191,11.32800006866455
1772408542719918800,7.6819189453125,15.163050651550293,-14.749051094055176,17.515050888061523
1772408542739980000,7.70197998046875,19.5970516204834,-20.352001190185547,22.86600112915039
1772408542760041700,7.722041748046875,21.852001190185547,-25.87995147705078,25.4809513092041
1772408542780103000,7.74210302734375,21.792001724243164,-27.726001739501953,23.71095085144043
1772408542800164000,7.7621640625,19.903051376342773,-23.839950561523438,18.844051361083984
1772408542820225800,7.782225830078125,15.235051155090332,-16.380001068115234,13.57905101776123
1772408542840287000,7.802286865234375,9.36405086517334,-8.886000633239746,7.909950256347656
1772408542860348400,7.822348388671875,3.309000253677368,-3.4170000553131104,4.537950038909912
1772408542880409900,7.842409912109375,-1.426050066947937,0.3139500021934509,1.9650001525878906
1772408542900471000,7.862470947265625,-3.451050281524658,1.815000057220459,-0.1099500060081482
1772408542920532500,7.882532470703125,-2.968050241470337,1.8439500331878662,-0.27300000190734863
1772408542940593700,7.90259375,-0.41505002975463867,1.059000015258789,0.9330000281333923
1772408542960655400,7.9226552734375,2.1289501190185547,0.20400001108646393,1.5340501070022583
1772408542980716500,7.942716552734375,3.61995005607605,0.06300000101327896,1.1790000200271606
1772408543000777700,7.96277783203125,4.2430500984191895,-0.037050001323223114,0.8080500364303589
1772408543020839200,7.982839111328125,3.4620001316070557,0.010050000622868538,0.5929500460624695
1772408543040900600,8.002900634765625,2.16195011138916,0.3139500021934509,0.3769500255584717
1772408543060961800,8.0229619140625,0.8260500431060791,0.5179499983787537,0.8659500479698181
1772408543081023200,8.043023193359375,-0.7290000319480896,0.859950065612793,1.27305006980896
1772408543101084700,8.063084716796874,-1.8730500936508179,1.3960500955581665,1.0840500593185425
1772408543121145900,8.083145751953126,-1.3200000524520874,1.6309500932693481,1.0360500812530518
1772408543141207300,8.103207275390625,0.17295001447200775,1.0800000429153442,0.8250000476837158
1772408543161268500,8.1232685546875,1.4389500617980957,0.07695000618696213,0.5040000081062317
1772408543181329700,8.14332958984375,2.095050096511841,-1.4160000085830688,1.311000108718872
1772408543201391000,8.16339111328125,2.5500001907348633,-3.8770501613616943,4.615050315856934
1772408543221452500,8.18345263671875,4.813050270080566,-7.332000255584717,9.343950271606445
1772408543241513700,8.203513671875,9.53895092010498,-12.292950630187988,13.52400016784668
1772408543261575200,8.2235751953125,15.958050727844238,-18.678001403808594,18.061050415039062
1772408543281636400,8.24363623046875,21.175050735473633,-24.484050750732422,22.627050399780273
1772408543301697800,8.26369775390625,24.11895179748535,-29.602951049804688,24.700050354003906
1772408543321759200,8.28375927734375,23.325000762939453,-29.875951766967773,21.98295021057129
1772408543341820400,8.3038203125,17.902050018310547,-23.17905044555664,16.708051681518555
1772408543361881900,8.3238818359375,11.109000205993652,-12.903000831604004,11.367000579833984
1772408543381943000,8.343943115234374,5.016000270843506,-4.873050212860107,7.3560004234313965
1772408543402004500,8.36400439453125,0.7740000486373901,-0.23100000619888306,4.354050159454346
1772408543422066000,8.38406591796875,-1.3440001010894775,1.492050051689148,2.3170502185821533
1772408543442127000,8.404127197265625,-2.596950054168701,2.517000198364258,1.480950117111206
1772408543462188500,8.4241884765625,-2.4790501594543457,2.871000051498413,1.6579500436782837
1772408543482249700,8.444249755859374,-0.6280500292778015,2.0310001373291016,2.3839499950408936
1772408543502311000,8.464310791015626,1.446000099182129,0.6450000405311584,2.3310000896453857
1772408543522372600,8.48437255859375,3.4360501766204834,-0.5640000104904175,1.1910001039505005
1772408543542433800,8.504433837890625,4.264050006866455,-0.2760000228881836,0.3340500295162201
1772408543562495000,8.524494873046875,3.0960001945495605,0.6300000548362732,0.3150000274181366
1772408543582556400,8.544556396484374,1.3240500688552856,1.0639500617980957,0.39195001125335693
1772408543602617900,8.564617919921876,0.22500000894069672,0.8070000410079956,0.45900002121925354
1772408543622679000,8.584678955078125,-0.28095000982284546,0.9580500721931458,0.4249500334262848
1772408543642740500,8.604740478515625,0.18000000715255737,0.7740000486373901,0.12600000202655792
1772408543662801700,8.6248017578125,0.9720000624656677,0.5130000114440918,0.19095000624656677
1772408543682863000,8.644863037109374,1.9489500522613525,0.6469500064849854,0.4729500114917755
1772408543702924300,8.66492431640625,3.1080000400543213,0.208950012922287,1.1460000276565552
1772408543722985500,8.6849853515625,3.7260000705718994,-0.6930000185966492,4.014000415802002
1772408543743047000,8.705046875,4.378950119018555,-3.0420000553131104,7.930950164794922
1772408543763108000,8.725108154296874,7.669050216674805,-6.847950458526611,10.774950981140137
1772408543783169500,8.74516943359375,14.21505069732666,-11.449950218200684,15.16395092010498
1772408543803230700,8.765230712890625,20.17905044555664,-19.4010009765625,19.81800079345703
1772408543823292200,8.785292236328125,23.88705062866211,-26.17005157470703,21.496950149536133
1772408543843353600,8.805353515625,24.25800132751465,-28.018051147460938,20.910001754760742
1772408543863414800,8.825414794921874,19.537050247192383,-24.393001556396484,17.3929500579834
1772408543883476000,8.84547607421875,13.080000877380371,-17.08395004272461,13.765950202941895
1772408543903537400,8.865537353515625,6.943050384521484,-9.769050598144531,11.362051010131836
1772408543923598600,8.8855986328125,3.2320501804351807,-4.026000022888184,7.504950523376465
1772408543943659800,8.90565966796875,1.9750500917434692,-0.3169500231742859,3.8269500732421875
1772408543963721200,8.92572119140625,0.7830000519752502,2.1979501247406006,1.4640001058578491
1772408543983782700,8.94578271484375,-0.5209500193595886,2.8590002059936523,0.3940500319004059
1772408544003843800,8.96584375,-1.380000114440918,2.54295015335083,0.4420500099658966
1772408544023905300,8.9859052734375,-1.0380001068115234,1.1020500659942627,0.38895002007484436
1772408544043966700,9.005966796875,0.9220500588417053,-0.41700002551078796,-0.10500000417232513
1772408544064028000,9.02602783203125,3.3259501457214355,-0.4729500114917755,0.21000000834465027
1772408544084089000,9.046089111328126,4.852950096130371,0.2160000056028366,0.39705002307891846
1772408544104150500,9.066150634765625,4.920000076293945,0.42705002427101135,0.3820500075817108
1772408544124211700,9.086211669921875,3.321000099182129,0.7210500240325928,0.5740500092506409
1772408544144273200,9.106273193359375,1.3890000581741333,1.0990500450134277,0.3079500198364258
1772408544164334300,9.126334228515624,0.42600002884864807,1.1430000066757202,-0.037950001657009125
1772408544184395500,9.1463955078125,0.520050048828125,1.0830000638961792,0.33705002069473267
1772408544204457000,9.16645703125,1.516050100326538,1.2739500999450684,0.35100001096725464
1772408544224518400,9.186518310546875,3.0649502277374268,1.2310500144958496,0.7630500197410583
1772408544244579600,9.20657958984375,4.019999980926514,0.3330000042915344,1.7059500217437744
1772408544264641000,9.22664111328125,4.120950222015381,-0.934950053691864,4.029000282287598
1772408544284702200,9.2467021484375,5.035050392150879,-3.6739501953125,7.483050346374512
1772408544304763400,9.266763427734375,8.241000175476074,-8.40000057220459,10.183950424194336
1772408544324824600,9.286824462890625,13.699950218200684,-14.143051147460938,16.85700035095215
1772408544344886000,9.306885986328124,18.364051818847656,-21.07200050354004,21.3960018157959
1772408544364947500,9.326947509765626,20.73900032043457,-26.938051223754883,23.091001510620117
1772408544385008600,9.347008544921875,21.31800079345703,-27.988950729370117,22.2049503326416
1772408544405069800,9.36706982421875,19.21605110168457,-24.759000778198242,18.838951110839844
1772408544425131300,9.38713134765625,14.880001068115234,-19.152000427246094,15.01305103302002
1772408544445192700,9.407192626953124,10.860000610351562,-12.111001014709473,11.09595012664795
1772408544465254000,9.42725390625,7.9009504318237305,-5.445000171661377,6.652950286865234
1772408544485315000,9.447315185546875,4.336050033569336,-0.5320500135421753,3.4729502201080322
1772408544505376500,9.46737646484375,0.40005001425743103,2.1510000228881836,1.609950065612793
1772408544525437700,9.487437744140625,-2.8380000591278076,3.3979501724243164,0.7960500121116638
1772408544545499100,9.5074990234375,-3.724050283432007,2.433000087738037,0.6769500374794006
1772408544565560300,9.527560302734376,-2.16795015335083,0.6660000085830688,0.22395001351833344
1772408544585621500,9.54762158203125,0.6300000548362732,-0.7240500450134277,-0.22500000894069672
1772408544605683000,9.567682861328125,3.6060001850128174,-0.6280500292778015,0.6000000238418579
1772408544625744100,9.587744140625,5.038050174713135,0.036000002175569534,1.3950001001358032
1772408544645805300,9.607805419921876,4.507950305938721,0.3379500210285187,1.2340500354766846
1772408544665866800,9.62786669921875,2.5960500240325928,0.7260000109672546,1.4190000295639038
1772408544685928200,9.64792822265625,0.13395000994205475,1.3320000171661377,1.6180500984191895
1772408544705989400,9.6679892578125,-1.227000117301941,1.741050124168396,1.3369500637054443
1772408544726050600,9.688050537109374,-0.9130500555038452,1.6410000324249268,1.0090500116348267
1772408544746111700,9.70811181640625,0.4240500330924988,1.6309500932693481,1.141050100326538
1772408544766173000,9.7281728515625,2.3389501571655273,0.6829500198364258,0.6769500374794006
1772408544786234600,9.748234619140625,4.06095027923584,-0.11805000901222229,0.39900001883506775
1772408544806295600,9.768295654296875,4.342950344085693,-0.48705002665519714,1.609950065612793
1772408544826357000,9.78835693359375,3.850050210952759,-2.4310500621795654,2.6520001888275146
1772408544846418200,9.808418212890626,4.825050354003906,-5.917050361633301,6.928050518035889
1772408544866479600,9.828479736328125,9.318000793457031,-11.392050743103027,14.532000541687012
1772408544886540800,9.848540771484375,16.14405059814453,-15.586950302124023,17.36894989013672
1772408544906602000,9.86860205078125,19.939050674438477,-19.803001403808594,20.173051834106445
1772408544926663400,9.888663330078124,20.076000213623047,-24.61305046081543,24.166051864624023
1772408544946724400,9.908724365234375,18.981000900268555,-28.267051696777344,24.24300193786621
1772408544966785800,9.928785888671875,17.260051727294922,-26.461952209472656,18.142051696777344
1772408544986847000,9.948846923828125,13.153950691223145,-19.201950073242188,12.363000869750977
1772408545006908400,9.968908447265624,8.241000175476074,-11.481000900268555,10.480950355529785
1772408545026969600,9.988969482421876,4.906050205230713,-4.770000457763672,8.134950637817383
1772408545047030800,10.00903076171875,2.955000162124634,0.19905000925064087,4.7059502601623535
1772408545067092200,10.02909228515625,0.48900002241134644,2.734950065612793,2.4649500846862793
1772408545087153400,10.0491533203125,-1.64805006980896,3.0670502185821533,1.1100000143051147
1772408545107214800,10.06921484375,-2.1660001277923584,2.3519999980926514,0.04905000329017639
1772408545127276000,10.089276123046876,-0.9679500460624695,1.2220500707626343,-0.4740000367164612
1772408545147337200,10.109337158203125,1.3650000095367432,-0.24495001137256622,-0.39705002307891846
1772408545167398700,10.129398681640625,3.811950206756592,-0.7069500088691711,0.19500000774860382
1772408545187459800,10.1494599609375,5.053950309753418,-0.2550000250339508,0.49695003032684326
1772408545207521000,10.16952099609375,4.1419501304626465,0.3450000286102295,0.46800002455711365
1772408545227582200,10.189582275390626,2.433000087738037,0.520050048828125,0.0799500048160553
1772408545247643600,10.2096435546875,1.8130500316619873,0.3450000286102295,0.15195000171661377
1772408545267704800,10.229704833984375,1.6189501285552979,0.6210000514984131,0.7320000529289246
1772408545287766000,10.24976611328125,1.01295006275177,1.2169500589370728,1.1149500608444214
1772408545307827200,10.2698271484375,1.4029500484466553,1.0440000295639038,1.5889500379562378
1772408545327888600,10.289888671875,2.382000207901001,0.1870500147342682,1.998000144958496
1772408545347949800,10.30994970703125,2.754000186920166,-1.015950083732605,1.4119501113891602
1772408545368011300,10.33001123046875,3.498000144958496,-1.2430500984191895,1.6939500570297241
1772408545388072400,10.350072509765624,6.654000282287598,-3.172950267791748,4.78695011138916
