time,seconds_elapsed,z,y,x
1772593645718619000,0.278618896484375,-1.4179377555847168,-0.16505837440490723,-0.39989542961120605
1772593645738913000,0.2989130859375,-1.334712028503418,-0.13884800672531128,-0.3311278820037842
1772593645759177000,0.319177001953125,-1.0012845993041992,-0.10352206230163574,-0.3526780605316162
1772593645779441000,0.33944091796875,0.4131622314453125,0.035382211208343506,0.12393403053283691
1772593645799704000,0.3597041015625,1.3233766555786133,0.1021926999092102,0.3618147373199463
1772593645819968000,0.379968017578125,1.3367033004760742,0.10529512166976929,0.36343884468078613
1772593645840232000,0.40023193359375,0.6139888763427734,-0.0005986522883176804,0.17858576774597168
1772593645860495000,0.4204951171875,0.5554752349853516,-0.003529086709022522,0.16243243217468262
1772593645880759000,0.440759033203125,0.7193021774291992,-0.009541481733322144,0.27036523818969727
1772593645901023000,0.46102294921875,0.9131002426147461,-0.017531871795654297,0.41668272018432617
1772593645921286000,0.481285888671875,0.41633033752441406,0.015399277210235596,0.138289213180542
1772593645941550000,0.501550048828125,0.636347770690918,0.01624758541584015,0.22425246238708496
1772593645961814000,0.52181396484375,0.8224906921386719,0.012272924184799194,0.2993640899658203
1772593645982077000,0.542076904296875,0.8049125671386719,0.004452850669622421,0.3088343143463135
1772593646002341000,0.562341064453125,0.7052268981933594,0.0032827816903591156,0.28731870651245117
1772593646022605000,0.58260498046875,0.6127042770385742,0.002291623502969742,0.26426267623901367
1772593646042868000,0.602867919921875,0.5599040985107422,0.00671212375164032,0.24785614013671875
1772593646063132000,0.6231318359375,0.5145187377929688,0.010639861226081848,0.2335667610168457
1772593646083396000,0.64339599609375,0.4464426040649414,0.013349920511245728,0.20396137237548828
1772593646103660000,0.663659912109375,0.3929271697998047,0.015753626823425293,0.18085813522338867
1772593646123923000,0.6839228515625,0.3473072052001953,0.017543882131576538,0.16091537475585938
1772593646144187000,0.704186767578125,0.30173492431640625,0.01815396547317505,0.1404590606689453
1772593646164451000,0.724451171875,0.25980567932128906,0.017923295497894287,0.12108421325683594
1772593646184714000,0.7447138671875,0.3005342483520508,0.022685468196868896,0.13450336456298828
1772593646204978000,0.76497802734375,0.32010459899902344,0.023274898529052734,0.1348094940185547
1772593646225242000,0.7852421875,0.3144369125366211,0.02186572551727295,0.12203478813171387
1772593646245505000,0.805505126953125,0.3397560119628906,0.02231574058532715,0.1240684986114502
1772593646265769000,0.82576904296875,0.3702869415283203,0.022721946239471436,0.1269073486328125
1772593646286033000,0.846032958984375,0.4048290252685547,0.01974692940711975,0.1296846866607666
1772593646306296000,0.866296142578125,0.4902229309082031,0.017401069402694702,0.14110636711120605
1772593646326560000,0.88656005859375,0.5820560455322266,0.01290866732597351,0.14951348304748535
1772593646346824000,0.906823974609375,0.6772947311401367,0.0018342286348342896,0.1542215347290039
1772593646367087000,0.927087158203125,0.6963081359863281,-0.01738370954990387,0.14104866981506348
1772593646387351000,0.94735107421875,0.5502796173095703,-0.0341944694519043,0.10553514957427979
1772593646407615000,0.967614990234375,0.34006690979003906,-0.03723108768463135,0.06136965751647949
1772593646427878000,0.9878779296875,0.24895572662353516,-0.039275288581848145,0.04161787033081055
1772593646448142000,1.00814208984375,0.29020118713378906,-0.06234431266784668,0.04770815372467041
1772593646468406000,1.028406005859375,0.35878944396972656,-0.09753680229187012,0.058045148849487305
1772593646488669000,1.0486689453125,0.43912792205810547,-0.14063358306884766,0.07362198829650879
1772593646508933000,1.06893310546875,0.16650676727294922,-0.0634012222290039,0.04227900505065918
1772593646529197000,1.089197021484375,-0.40717315673828125,0.173842191696167,-0.14972972869873047
1772593646549460000,1.1094599609375,-0.8541040420532227,0.39337897300720215,-0.4466257095336914
1772593646569724000,1.129723876953125,-1.0976519584655762,0.5294644832611084,-0.782902717590332
1772593646589988000,1.149988037109375,-1.3089609146118164,0.6342449188232422,-1.1549725532531738
1772593646610251000,1.1702509765625,-1.293776035308838,0.6495075225830078,-1.4261560440063477
1772593646630515000,1.190514892578125,-1.078394889831543,0.6321325302124023,-1.6268267631530762
1772593646650779000,1.21077880859375,-0.7433750629425049,0.5848448276519775,-1.7214231491088867
1772593646671042000,1.2310419921875,-0.3356207609176636,0.45218324661254883,-1.473562240600586
1772593646691306000,1.251305908203125,-0.06061208248138428,0.2845475673675537,-0.9647045135498047
1772593646711570000,1.27156982421875,0.020365625619888306,0.2557055950164795,-0.7474746704101562
1772593646731833000,1.2918330078125,0.014942288398742676,0.11694192886352539,-0.2508583068847656
1772593646752097000,1.312096923828125,-0.018697381019592285,-0.1468644142150879,0.2291250228881836
1772593646772361000,1.33236083984375,-0.05574667453765869,-0.5230436325073242,0.619725227355957
1772593646792624000,1.3526240234375,-0.0979074239730835,-1.042555809020996,1.022423267364502
1772593646812888000,1.37288818359375,-0.14087802171707153,-1.4572925567626953,1.2380480766296387
1772593646833152000,1.393152099609375,-0.15501290559768677,-1.7515554428100586,1.282005786895752
1772593646853415000,1.413414794921875,-0.14415544271469116,-1.8892250061035156,1.1558122634887695
1772593646873679000,1.43367919921875,-0.11185181140899658,-1.981919288635254,0.9894342422485352
1772593646893943000,1.453943115234375,-0.07926279306411743,-2.035602569580078,0.8000550270080566
1772593646914206000,1.4742060546875,-0.04986834526062012,-2.0856666564941406,0.6185934543609619
1772593646934470000,1.494469970703125,-0.05005815625190735,-1.9021434783935547,0.40311336517333984
1772593646954734000,1.514734130859375,-0.061033010482788086,-1.597066879272461,0.231542706489563
1772593646974997000,1.5349970703125,-0.07630515098571777,-1.1966447830200195,0.11585593223571777
1772593646995261000,1.555260986328125,-0.0812332034111023,-0.8938732147216797,0.05559051036834717
1772593647015525000,1.575525146484375,-0.06469714641571045,-0.5808935165405273,0.019551873207092285
1772593647035788000,1.5957880859375,-0.024640440940856934,-0.19864654541015625,0.002659335732460022
1772593647056052000,1.616052001953125,0.023456931114196777,0.18319416046142578,-0.0011726617813110352
1772593647076316000,1.63631591796875,0.05886960029602051,0.4507255554199219,-0.005536891520023346
1772593647096579000,1.6565791015625,0.06919991970062256,0.4655628204345703,-0.023478835821151733
1772593647116843000,1.676843017578125,0.05408048629760742,0.30012035369873047,-0.03334510326385498
1772593647137107000,1.69710693359375,0.005706191062927246,0.028299331665039062,-0.005009293556213379
1772593647157370000,1.7173701171875,-0.024242639541625977,-0.11373138427734375,0.026587247848510742
1772593647177634000,1.737634033203125,-0.08063793182373047,-0.3658266067504883,0.09585142135620117
1772593647197898000,1.75789794921875,-0.15153169631958008,-0.6987476348876953,0.18723154067993164
1772593647218161000,1.778160888671875,-0.2299211025238037,-1.147007942199707,0.30875396728515625
1772593647238425000,1.798425048828125,-0.3070340156555176,-1.6672801971435547,0.44696474075317383
1772593647258689000,1.81868896484375,-0.3520824909210205,-2.057271957397461,0.5553042888641357
1772593647278952000,1.838951904296875,-0.3358250856399536,-2.1694793701171875,0.5658574104309082
1772593647299216000,1.8592158203125,-0.2293163537979126,-1.919271469116211,0.4457688331604004
1772593647319480000,1.87947998046875,-0.08505696058273315,-1.3852262496948242,0.25833654403686523
1772593647339743000,1.899742919921875,0.0016663558781147003,-0.8753175735473633,0.1133345365524292
1772593647360007000,1.9200068359375,0.027949035167694092,-0.5620326995849609,0.043185532093048096
1772593647400535000,1.96053515625,0.009541630744934082,-0.0799570083618164,0.004896879196166992
1772593647420798000,1.9807978515625,-0.02211785316467285,0.15687274932861328,-0.010733187198638916
1772593647441062000,2.001061767578125,-0.06062161922454834,0.39459705352783203,-0.030185222625732422
1772593647461326000,2.021326171875,-0.08015108108520508,0.4882926940917969,-0.04085725545883179
1772593647481589000,2.041589111328125,-0.07399344444274902,0.45305538177490234,-0.04415327310562134
1772593647501853000,2.06185302734375,-0.052318572998046875,0.34552955627441406,-0.04075324535369873
1772593647522117000,2.0821171875,-0.033428311347961426,0.26157474517822266,-0.0341876745223999
1772593647542380000,2.102380126953125,-0.025685787200927734,0.244293212890625,-0.03548884391784668
1772593647562644000,2.12264404296875,-0.01976233720779419,0.2151632308959961,-0.034259796142578125
1772593647582908000,2.142907958984375,-0.017948806285858154,0.19626998901367188,-0.03146016597747803
1772593647603171000,2.163171142578125,-0.017818093299865723,0.19398212432861328,-0.02925252914428711
1772593647623435000,2.18343505859375,-0.01742231845855713,0.18837738037109375,-0.026666641235351562
1772593647643699000,2.203698974609375,-0.015992164611816406,0.17195701599121094,-0.024157047271728516
1772593647663962000,2.223962158203125,-0.014130949974060059,0.1523275375366211,-0.02138221263885498
1772593647684226000,2.24422607421875,-0.005340576171875,0.05834484100341797,-0.008183002471923828
1772593647704490000,2.264489990234375,0.004507720470428467,-0.04518604278564453,0.006391763687133789
1772593647724753000,2.2847529296875,0.019594669342041016,-0.1818675994873047,0.029403209686279297
1772593647745017000,2.30501708984375,0.04954254627227783,-0.4353780746459961,0.08301591873168945
1772593647765281000,2.325281005859375,0.09371840953826904,-0.792384147644043,0.1790604591369629
1772593647785544000,2.3455439453125,0.14065313339233398,-1.2365188598632812,0.3188283443450928
1772593647805808000,2.36580810546875,0.1717824935913086,-1.675119400024414,0.48096156120300293
1772593647826072000,2.386072021484375,0.17997562885284424,-2.102266311645508,0.6589879989624023
1772593647846335000,2.4063349609375,0.16943949460983276,-2.4104013442993164,0.7765157222747803
1772593647866599000,2.426598876953125,0.15179955959320068,-2.6821441650390625,0.8586745262145996
1772593647886863000,2.446863037109375,0.14393079280853271,-2.791593551635742,0.8741376399993896
1772593647907126000,2.4671259765625,0.11172667145729065,-2.821552276611328,0.8666396141052246
1772593647927390000,2.487389892578125,0.07867267727851868,-2.816117286682129,0.8224260807037354
1772593647947654000,2.50765380859375,0.04419660568237305,-2.604053497314453,0.6879501342773438
1772593647967917000,2.5279169921875,0.014012411236763,-2.293437957763672,0.5258948802947998
1772593647988181000,2.548180908203125,0.0038415398448705673,-1.8966846466064453,0.3691418170928955
1772593648008445000,2.56844482421875,0.006599687039852142,-1.5146207809448242,0.2504225969314575
1772593648028708000,2.5887080078125,0.015862107276916504,-1.1382570266723633,0.15349388122558594
1772593648048972000,2.608971923828125,0.018639862537384033,-0.7608537673950195,0.08778619766235352
1772593648069236000,2.629236083984375,0.013647258281707764,-0.3895702362060547,0.03861391544342041
1772593648089499000,2.649498779296875,0.0009557604789733887,-0.026216506958007812,0.002415180206298828
1772593648109763000,2.66976318359375,-0.01308971643447876,0.35213661193847656,-0.02635413408279419
1772593648130027000,2.690027099609375,-0.021987199783325195,0.7321243286132812,-0.04098713397979736
1772593648150290000,2.7102900390625,-0.024136513471603394,1.1133995056152344,-0.041643500328063965
1772593648170554000,2.73055419921875,-0.018813610076904297,1.5689544677734375,-0.026504620909690857
1772593648190818000,2.750818115234375,-0.0011356649920344353,2.0262627601623535,0.013213884085416794
1772593648211081000,2.7710810546875,0.05804319679737091,2.4716219902038574,0.07517775893211365
1772593648231345000,2.791344970703125,0.16715288162231445,2.7172961235046387,0.08465853333473206
1772593648251609000,2.811609130859375,0.305436909198761,2.5229239463806152,-0.02518817037343979
1772593648271872000,2.8318720703125,0.3598504066467285,1.895042896270752,-0.1747952699661255
1772593648292136000,2.852135986328125,0.2524843215942383,1.029768943786621,-0.1757068634033203
1772593648312400000,2.87239990234375,0.06812548637390137,0.2423381805419922,-0.05710649490356445
1772593648332663000,2.8926630859375,-0.1090083122253418,-0.3648395538330078,0.09866786003112793
1772593648352927000,2.912927001953125,-0.302335262298584,-1.0098600387573242,0.3012106418609619
1772593648373191000,2.93319091796875,-0.4712069034576416,-1.721877098083496,0.5368118286132812
1772593648393454000,2.9534541015625,-0.5635793209075928,-2.28220272064209,0.7478508949279785
1772593648413718000,2.973718017578125,-0.5817477703094482,-2.6570186614990234,0.8737599849700928
1772593648433982000,2.99398193359375,-0.5280656814575195,-2.794811248779297,0.8749480247497559
1772593648454245000,3.0142451171875,-0.3812345266342163,-2.5570974349975586,0.694054365158081
1772593648474509000,3.034509033203125,-0.186326265335083,-2.0559329986572266,0.43158435821533203
1772593648494773000,3.05477294921875,-0.031535953283309937,-1.4995098114013672,0.20918536186218262
1772593648515036000,3.075035888671875,0.05055719614028931,-1.1908931732177734,0.08939629793167114
1772593648535300000,3.095300048828125,0.09259998798370361,-1.0510244369506836,0.041135162115097046
1772593648555564000,3.11556396484375,0.10411524772644043,-0.8387012481689453,0.015639618039131165
1772593648575827000,3.135826904296875,0.07559657096862793,-0.5387258529663086,0.0027702488005161285
1772593648596091000,3.1560908203125,0.057955026626586914,-0.3960599899291992,-0.00033800676465034485
1772593648616355000,3.17635498046875,0.05975925922393799,-0.3966789245605469,0.0017360635101795197
1772593648636618000,3.196617919921875,0.06206095218658447,-0.4011087417602539,0.007785633206367493
1772593648656882000,3.2168818359375,0.06331157684326172,-0.40203094482421875,0.018929243087768555
1772593648677146000,3.23714599609375,0.04035520553588867,-0.2772998809814453,0.021114706993103027
1772593648697410000,3.25741015625,0.0183560848236084,-0.1483755111694336,0.015659213066101074
1772593648717673000,3.2776728515625,0.0034818649291992188,-0.03436088562011719,0.0046367645263671875
1772593648737937000,3.29793701171875,-0.005351722240447998,0.05886363983154297,-0.009090304374694824
1772593648758201000,3.318201171875,-0.005411744117736816,0.06765079498291016,-0.01102757453918457
1772593648778464000,3.338464111328125,-0.00472259521484375,0.0682687759399414,-0.011650443077087402
1772593648798728000,3.35872802734375,-0.0043561458587646484,0.07446765899658203,-0.012663722038269043
1772593648818992000,3.3789921875,-0.0032205581665039062,0.0672760009765625,-0.011414527893066406
1772593648839255000,3.399255126953125,-0.0011548995971679688,0.03055572509765625,-0.005449175834655762
1772593648859519000,3.41951904296875,0.0006045401096343994,-0.020624160766601562,0.003850102424621582
1772593648879783000,3.439782958984375,0.0030797719955444336,-0.10444355010986328,0.021324753761291504
1772593648900046000,3.460046142578125,0.009277671575546265,-0.3101072311401367,0.0709996223449707
1772593648920310000,3.48031005859375,0.016692698001861572,-0.5488367080688477,0.1448521614074707
1772593648940574000,3.500573974609375,0.028145670890808105,-0.9429798126220703,0.28466272354125977
1772593648960837000,3.520837158203125,0.02905610203742981,-1.430281639099121,0.4784109592437744
1772593648981101000,3.54110107421875,0.021008528769016266,-1.891702651977539,0.6721401214599609
1772593649001365000,3.561364990234375,0.007569693028926849,-2.32021427154541,0.8436844348907471
1772593649021628000,3.5816279296875,0.016309812664985657,-2.7045907974243164,0.9708466529846191
1772593649041892000,3.60189208984375,0.04411144554615021,-2.9654159545898438,1.0183274745941162
1772593649062156000,3.622156005859375,0.07191714644432068,-3.1204233169555664,1.0349094867706299
1772593649082419000,3.6424189453125,0.0977000892162323,-3.1255712509155273,0.9904260635375977
1772593649102683000,3.662682861328125,0.11754560470581055,-2.936152458190918,0.8800258636474609
1772593649122947000,3.682947021484375,0.13360130786895752,-2.7252120971679688,0.746666669845581
1772593649143210000,3.7032099609375,0.1452593207359314,-2.442262649536133,0.5923895835876465
1772593649163474000,3.723473876953125,0.17892539501190186,-2.0787534713745117,0.44056248664855957
1772593649183738000,3.743738037109375,0.19931185245513916,-1.7329654693603516,0.32660865783691406
1772593649204001000,3.7640009765625,0.19296479225158691,-1.3143606185913086,0.22240519523620605
1772593649224265000,3.784264892578125,0.15207934379577637,-0.8933286666870117,0.13852941989898682
1772593649244529000,3.80452880859375,0.08897018432617188,-0.4727153778076172,0.06941735744476318
1772593649264792000,3.8247919921875,0.030820131301879883,-0.1499948501586914,0.019054293632507324
1772593649285056000,3.845055908203125,-0.024272918701171875,0.10906410217285156,-0.011371612548828125
1772593649305320000,3.86531982421875,-0.06964921951293945,0.2909688949584961,-0.02066284418106079
1772593649325583000,3.8855830078125,-0.1387627124786377,0.5340490341186523,-0.01902061700820923
1772593649345847000,3.905846923828125,-0.23522639274597168,0.830388069152832,0.0023649968206882477
1772593649366111000,3.926111083984375,-0.304304838180542,1.0767087936401367,0.04770219326019287
1772593649386374000,3.946373779296875,-0.3335225582122803,1.2449579238891602,0.10796016454696655
1772593649406638000,3.96663818359375,-0.2848104238510132,1.2483224868774414,0.14625030755996704
1772593649426902000,3.986902099609375,-0.19990324974060059,1.1890544891357422,0.15096795558929443
1772593649447165000,4.0071650390625,-0.10946720838546753,1.0068559646606445,0.13552439212799072
1772593649467429000,4.02742919921875,-0.057441651821136475,0.7752933502197266,0.1121751070022583
1772593649487693000,4.047693115234375,-0.02493917942047119,0.4355144500732422,0.07236289978027344
1772593649507956000,4.0679560546875,-0.0031356215476989746,0.07599735260009766,0.01475679874420166
1772593649528220000,4.088219970703125,0.007941171526908875,-0.44985485076904297,-0.09725546836853027
1772593649548484000,4.108484130859375,-0.0039383359253406525,-1.1902656555175781,-0.25233983993530273
1772593649568747000,4.1287470703125,-0.02351704239845276,-1.8833961486816406,-0.3499898910522461
1772593649589011000,4.149010986328125,-0.03334029018878937,-2.328463554382324,-0.36785852909088135
1772593649609275000,4.16927490234375,-0.010991323739290237,-2.4100475311279297,-0.3118671178817749
1772593649629538000,4.1895380859375,0.04034653306007385,-2.20772647857666,-0.24527955055236816
1772593649649802000,4.209802001953125,0.09680956602096558,-1.9132862091064453,-0.1787339448928833
1772593649670066000,4.23006591796875,0.12370526790618896,-1.6320018768310547,-0.11833018064498901
1772593649690329000,4.2503291015625,0.13310319185256958,-1.5387697219848633,-0.05996745824813843
1772593649710593000,4.270593017578125,0.1287980079650879,-1.463470458984375,0.011847123503684998
1772593649730857000,4.29085693359375,0.11968064308166504,-1.31884765625,0.07366257905960083
1772593649751120000,4.311119873046875,0.08817315101623535,-0.9198980331420898,0.08245038986206055
1772593649771384000,4.331384033203125,0.042978525161743164,-0.4198799133300781,0.043010175228118896
1772593649791648000,4.35164794921875,0.007318735122680664,-0.06788349151611328,0.007155299186706543
1772593649811911000,4.371910888671875,-0.0053064823150634766,0.048172950744628906,-0.005024433135986328
1772593649832175000,4.392175048828125,0.005133152008056641,-0.04709911346435547,0.004798293113708496
1772593649852439000,4.41243896484375,0.022753417491912842,-0.23494911193847656,0.023429453372955322
1772593649872702000,4.432701904296875,0.03194326162338257,-0.41855525970458984,0.04452407360076904
1772593649892966000,4.4529658203125,0.024725258350372314,-0.4190530776977539,0.048560142517089844
1772593649913230000,4.47322998046875,0.025357067584991455,-0.4187488555908203,0.05283093452453613
1772593649933493000,4.493492919921875,0.024256110191345215,-0.3439521789550781,0.04733383655548096
1772593649953757000,4.5137568359375,0.022366642951965332,-0.2744417190551758,0.040764808654785156
1772593649974021000,4.534021240234375,0.021577060222625732,-0.2151479721069336,0.034097909927368164
1772593649994285000,4.55428515625,0.017290353775024414,-0.1444683074951172,0.02280139923095703
1772593650014548000,4.5745478515625,0.009022951126098633,-0.0645608901977539,0.009609699249267578
1772593650034812000,4.59481201171875,-0.0026903152465820312,0.016714096069335938,-0.0023158788681030273
1772593650055076000,4.615076171875,-0.016932249069213867,0.09264278411865234,-0.011794090270996094
1772593650075339000,4.635339111328125,-0.0311582088470459,0.1521291732788086,-0.017597556114196777
1772593650095603000,4.65560302734375,-0.028950214385986328,0.1289196014404297,-0.01331859827041626
1772593650115867000,4.675866943359375,-0.025531291961669922,0.10877418518066406,-0.009944379329681396
1772593650136130000,4.696130126953125,0.013079166412353516,-0.05437755584716797,0.004302680492401123
1772593650156394000,4.71639404296875,0.07401800155639648,-0.3038215637207031,0.02259540557861328
1772593650176658000,4.736657958984375,0.1496872901916504,-0.6299304962158203,0.044470012187957764
1772593650196921000,4.756921142578125,0.224534273147583,-0.9687585830688477,0.07441538572311401
1772593650217185000,4.77718505859375,0.27811384201049805,-1.2916688919067383,0.1074327826499939
1772593650237449000,4.797448974609375,0.29901909828186035,-1.594700813293457,0.14253997802734375
1772593650257712000,4.817712158203125,0.2784930467605591,-1.815969467163086,0.17362713813781738
1772593650277976000,4.83797607421875,0.23087382316589355,-2.029110908508301,0.20506232976913452
1772593650298240000,4.858239990234375,0.1650763750076294,-2.173062324523926,0.23093199729919434
1772593650318503000,4.8785029296875,0.09005680680274963,-2.317624092102051,0.2571293115615845
1772593650338767000,4.89876708984375,0.0073171742260456085,-2.321613311767578,0.2697995901107788
1772593650359031000,4.919031005859375,-0.03557932376861572,-2.2302751541137695,0.24627041816711426
1772593650379294000,4.9392939453125,-0.047821611166000366,-1.9635534286499023,0.20652258396148682
1772593650399558000,4.959557861328125,-0.04275193810462952,-1.684316635131836,0.16657519340515137
1772593650419822000,4.979822021484375,-0.021262571215629578,-1.3247098922729492,0.1224241852760315
1772593650440085000,5.0000849609375,-0.0038610585033893585,-0.9675006866455078,0.082530677318573
1772593650460349000,5.020348876953125,0.007110461592674255,-0.6914224624633789,0.0534706711769104
1772593650480613000,5.040613037109375,0.016486436128616333,-0.5068912506103516,0.03490710258483887
1772593650500876000,5.0608759765625,0.018803179264068604,-0.33884620666503906,0.020510196685791016
1772593650521140000,5.081139892578125,0.015122056007385254,-0.19168758392333984,0.010015547275543213
1772593650541404000,5.10140380859375,0.01978158950805664,-0.19712448120117188,0.008587002754211426
1772593650561667000,5.1216669921875,0.011304616928100586,-0.11122512817382812,0.004680067300796509
1772593650581931000,5.141930908203125,0.007137298583984375,-0.08181381225585938,0.0026589035987854004
1772593650602195000,5.16219482421875,-0.001662611961364746,0.026076316833496094,-0.0006113797426223755
1772593650622458000,5.1824580078125,-0.005146533250808716,0.1304473876953125,-0.0018651485443115234
1772593650642722000,5.20272216796875,-0.006297752261161804,0.33278751373291016,-0.0016995742917060852
1772593650662986000,5.222986083984375,-0.0037845000624656677,0.5373649597167969,0.0024450793862342834
1772593650683249000,5.243248779296875,0.004828769713640213,0.8968400955200195,0.013369321823120117
1772593650703513000,5.26351318359375,0.023782342672348022,1.262777328491211,0.0336550772190094
1772593650723777000,5.283777099609375,0.05465060472488403,1.632521629333496,0.06513091921806335
1772593650744040000,5.3040400390625,0.12139931321144104,2.0582141876220703,0.08995276689529419
1772593650764304000,5.324303955078125,0.19152075052261353,2.256340980529785,0.06937569379806519
1772593650784568000,5.344568115234375,0.2644473910331726,2.229013442993164,-0.032862596213817596
1772593650804831000,5.3648310546875,0.27666592597961426,1.8828601837158203,-0.15807241201400757
1772593650825095000,5.385094970703125,0.21857428550720215,1.226938247680664,-0.1906954050064087
1772593650845359000,5.405359130859375,0.059693098068237305,0.3264274597167969,-0.06594991683959961
1772593650865622000,5.4256220703125,-0.12539196014404297,-0.6821804046630859,0.153609037399292
1772593650885886000,5.445885986328125,-0.3021388053894043,-1.7219467163085938,0.4019050598144531
1772593650906150000,5.46614990234375,-0.41916370391845703,-2.4358596801757812,0.5745327472686768
1772593650926413000,5.4864130859375,-0.4747309684753418,-2.8708200454711914,0.6749827861785889
1772593650946677000,5.506677001953125,-0.47263407707214355,-3.0265798568725586,0.682929515838623
1772593650966941000,5.52694091796875,-0.43393492698669434,-2.9016075134277344,0.5858538150787354
1772593650987204000,5.5472041015625,-0.3286588191986084,-2.4575023651123047,0.38717222213745117
1772593651007468000,5.567468017578125,-0.19485259056091309,-1.804203987121582,0.15784740447998047
1772593651027732000,5.58773193359375,-0.0652916431427002,-1.1224327087402344,0.0030556991696357727
1772593651047995000,5.607994873046875,-0.0011042840778827667,-0.4245147705078125,-0.03139603137969971
1772593651068259000,5.628259033203125,-0.013968884944915771,0.23234081268310547,0.031231999397277832
1772593651088523000,5.64852294921875,-0.07739174365997314,0.7363567352294922,0.1286318302154541
1772593651108786000,5.668785888671875,-0.1155310869216919,0.8859195709228516,0.15704607963562012
1772593651129050000,5.689050048828125,-0.1089022159576416,0.8429126739501953,0.12771522998809814
1772593651149314000,5.70931396484375,-0.08036971092224121,0.642430305480957,0.07302629947662354
1772593651169577000,5.729576904296875,-0.04853510856628418,0.40101146697998047,0.02568197250366211
1772593651189841000,5.7498408203125,-0.00738215446472168,0.06322097778320312,0.00016958639025688171
1772593651210105000,5.77010498046875,0.02106654644012451,-0.20636558532714844,0.013109683990478516
1772593651230368000,5.790367919921875,0.028848588466644287,-0.38812923431396484,0.04908311367034912
1772593651250632000,5.8106318359375,0.02066713571548462,-0.5022802352905273,0.08599519729614258
1772593651270896000,5.830896240234375,0.005206301808357239,-0.509800910949707,0.1037282943725586
1772593651291160000,5.85116015625,0.0015773400664329529,-0.3601865768432617,0.07853937149047852
1772593651311423000,5.871423095703125,0.00020767748355865479,-0.013861656188964844,0.003055572509765625
1772593651331687000,5.89168701171875,-0.015946805477142334,0.3392210006713867,-0.07171094417572021
1772593651351951000,5.911951171875,-0.025935053825378418,0.33081817626953125,-0.0671689510345459
1772593651372214000,5.932214111328125,-0.015501201152801514,0.15729427337646484,-0.03005063533782959
1772593651392478000,5.95247802734375,0.001865983009338379,-0.01694202423095703,0.003044605255126953
1772593651412742000,5.972741943359375,0.03318476676940918,-0.2748861312866211,0.04619908332824707
1772593651433005000,5.993005126953125,0.07079863548278809,-0.5422353744506836,0.0859140157699585
1772593651453269000,6.01326904296875,0.1259777545928955,-0.9099645614624023,0.14920544624328613
1772593651473533000,6.033532958984375,0.18259239196777344,-1.3485393524169922,0.2265183925628662
1772593651493796000,6.053796142578125,0.19648635387420654,-1.760024070739746,0.29673707485198975
1772593651514060000,6.07406005859375,0.1968919038772583,-2.240809440612793,0.3588569164276123
1772593651534324000,6.094323974609375,0.160539448261261,-2.7014970779418945,0.38218021392822266
1772593651554587000,6.1145869140625,0.09841841459274292,-2.8918962478637695,0.3138763904571533
1772593651574851000,6.13485107421875,0.04855068027973175,-2.9953670501708984,0.21030592918395996
1772593651595115000,6.155114990234375,-0.0030365586280822754,-3.0226364135742188,0.10032540559768677
1772593651615378000,6.1753779296875,-0.054039716720581055,-2.9807863235473633,0.03552883863449097
1772593651635642000,6.19564208984375,-0.10049852728843689,-2.8730955123901367,0.0027906978502869606
1772593651655906000,6.215906005859375,-0.14016187191009521,-2.6862030029296875,-0.026256151497364044
1772593651676169000,6.2361689453125,-0.14641350507736206,-2.3267345428466797,-0.04793816804885864
1772593651696433000,6.256432861328125,-0.1231183409690857,-1.9568243026733398,-0.0449863076210022
1772593651716697000,6.276697021484375,-0.0937044620513916,-1.501626968383789,-0.026128455996513367
1772593651736960000,6.2969599609375,-0.06400948762893677,-1.0436820983886719,-0.00681854784488678
1772593651757224000,6.317223876953125,-0.036659836769104004,-0.5132360458374023,0.009316131472587585
1772593651777488000,6.33748779296875,0.0010396242141723633,0.014431953430175781,-0.0006825923919677734
1772593651797751000,6.3577509765625,0.03414416313171387,0.5179128646850586,-0.04090535640716553
1772593651818015000,6.378014892578125,0.08405762910842896,1.0220985412597656,-0.09342086315155029
1772593651838279000,6.39827880859375,0.14820259809494019,1.4690322875976562,-0.12957793474197388
1772593651858542000,6.4185419921875,0.2455652356147766,1.9999852180480957,-0.1484634280204773
1772593651878806000,6.438805908203125,0.3340771794319153,2.4559364318847656,-0.14118081331253052
1772593651899070000,6.459070068359375,0.3898480534553528,2.8075900077819824,-0.10865095257759094
1772593651919333000,6.4793330078125,0.4440596103668213,2.8688607215881348,-0.16031715273857117
1772593651939597000,6.49959716796875,0.46164631843566895,2.743220806121826,-0.3206709623336792
1772593651959861000,6.519861083984375,0.42360973358154297,2.327932834625244,-0.4744870662689209
1772593651980124000,6.5401240234375,0.37627744674682617,1.7001385688781738,-0.5132951736450195
1772593652000388000,6.56038818359375,0.25579118728637695,0.9675254821777344,-0.3750441074371338
1772593652020652000,6.580652099609375,0.06741786003112793,0.23622417449951172,-0.10529613494873047
1772593652040915000,6.6009150390625,-0.12707734107971191,-0.4466409683227539,0.22119855880737305
1772593652061179000,6.621178955078125,-0.3601243495941162,-1.3696012496948242,0.7100300788879395
1772593652081443000,6.641443115234375,-0.5227923393249512,-2.2289257049560547,1.1671147346496582
1772593652101706000,6.6617060546875,-0.595228910446167,-2.7592344284057617,1.4508380889892578
1772593652121970000,6.681969970703125,-0.5535988807678223,-2.8385744094848633,1.4376716613769531
1772593652142234000,6.702234130859375,-0.46835947036743164,-2.639641761779785,1.2362589836120605
1772593652162497000,6.7224970703125,-0.28801143169403076,-2.257451057434082,0.9546151161193848
1772593652182761000,6.742760986328125,-0.1251659393310547,-1.869084358215332,0.7369136810302734
1772593652203025000,6.76302490234375,-0.01966729760169983,-1.6139469146728516,0.5988001823425293
1772593652223288000,6.7832880859375,0.0630444884300232,-1.429244041442871,0.5114195346832275
1772593652243552000,6.803552001953125,0.11349248886108398,-1.3238582611083984,0.4526956081390381
1772593652263816000,6.82381591796875,0.11711251735687256,-0.9657173156738281,0.31606197357177734
1772593652284079000,6.8440791015625,0.09620118141174316,-0.6468219757080078,0.21077680587768555
1772593652304343000,6.864343017578125,0.09497714042663574,-0.5720062255859375,0.19295549392700195
1772593652324607000,6.88460693359375,0.12802338600158691,-0.6677722930908203,0.2498476505279541
1772593652344870000,6.904869873046875,0.1715104579925537,-0.7849454879760742,0.3418233394622803
1772593652365134000,6.925134033203125,0.16269278526306152,-0.7573051452636719,0.3747272491455078
1772593652385398000,6.94539794921875,0.1061100959777832,-0.5746088027954102,0.2978029251098633
1772593652405661000,6.965660888671875,0.0417177677154541,-0.250518798828125,0.13542747497558594
1772593652425925000,6.985925048828125,-0.009430170059204102,0.060512542724609375,-0.0342411994934082
1772593652446189000,7.00618896484375,-0.0533907413482666,0.36599063873291016,-0.2231745719909668
1772593652466452000,7.026451904296875,-0.08153605461120605,0.575371265411377,-0.3717041015625
1772593652486716000,7.0467158203125,-0.11181306838989258,0.8203678131103516,-0.5502643585205078
1772593652506980000,7.06697998046875,-0.13858568668365479,0.9921655654907227,-0.68243408203125
1772593652527243000,7.087242919921875,-0.14662247896194458,1.1460871696472168,-0.7799296379089355
1772593652547507000,7.1075068359375,-0.14290082454681396,1.2635478973388672,-0.8140320777893066
1772593652567771000,7.12777099609375,-0.10284698009490967,1.0965032577514648,-0.6514167785644531
1772593652588035000,7.14803515625,-0.06961512565612793,0.7187089920043945,-0.4054536819458008
1772593652608298000,7.168298095703125,-0.026278197765350342,0.2637147903442383,-0.14070653915405273
1772593652628562000,7.18856201171875,0.02412569522857666,-0.23454761505126953,0.12101364135742188
1772593652648826000,7.208826171875,0.07385855913162231,-0.7064142227172852,0.3474903106689453
1772593652669089000,7.229089111328125,0.09733760356903076,-1.1170806884765625,0.5427274703979492
1772593652689353000,7.24935302734375,0.10123193264007568,-1.6247529983520508,0.7908568382263184
1772593652709617000,7.269616943359375,0.05240362882614136,-2.037424087524414,0.9858245849609375
1772593652729880000,7.289880126953125,-0.01916731894016266,-2.443934440612793,1.1604785919189453
1772593652750144000,7.31014404296875,-0.10471177101135254,-2.702237129211426,1.2809863090515137
1772593652770408000,7.330407958984375,-0.14217770099639893,-2.6283798217773438,1.2594499588012695
1772593652790671000,7.350671142578125,-0.13425391912460327,-2.4217348098754883,1.1691718101501465
1772593652810935000,7.37093505859375,-0.08939450979232788,-2.2002134323120117,1.0690999031066895
1772593652831199000,7.391198974609375,-0.008313991129398346,-1.784562110900879,0.8278193473815918
1772593652851462000,7.4114619140625,0.02884235978126526,-1.3625478744506836,0.5991854667663574
1772593652871726000,7.43172607421875,0.03393977880477905,-0.9407491683959961,0.3896307945251465
1772593652891990000,7.451989990234375,0.026752054691314697,-0.6222209930419922,0.2386155128479004
1772593652912253000,7.4722529296875,0.0278814435005188,-0.48267364501953125,0.177262544631958
1772593652932517000,7.49251708984375,0.027333319187164307,-0.3736419677734375,0.13401532173156738
1772593652952781000,7.512781005859375,0.026962637901306152,-0.3093442916870117,0.10746455192565918
1772593652973044000,7.5330439453125,0.012885868549346924,-0.15730953216552734,0.04973936080932617
1772593652993308000,7.553307861328125,-0.001973271369934082,0.02594757080078125,-0.007014751434326172
1772593653013572000,7.573572021484375,-0.014389365911483765,0.2804679870605469,-0.06331205368041992
1772593653033835000,7.5938349609375,-0.000500386580824852,0.4463462829589844,-0.09115850925445557
1772593653054099000,7.614098876953125,0.020905673503875732,0.5900583267211914,-0.10825800895690918
1772593653074363000,7.63436279296875,0.03237193822860718,0.7132949829101562,-0.12510204315185547
1772593653094626000,7.6546259765625,0.04205140471458435,0.9036779403686523,-0.16379261016845703
1772593653114890000,7.674889892578125,0.054516732692718506,1.1106338500976562,-0.2121356725692749
1772593653135154000,7.69515380859375,0.06767231225967407,1.142059326171875,-0.2447221279144287
1772593653155417000,7.7154169921875,0.05489999055862427,0.8317661285400391,-0.21136713027954102
1772593653175681000,7.735680908203125,0.008185923099517822,0.13565826416015625,-0.045134782791137695
1772593653195945000,7.755945068359375,-0.046730220317840576,-0.7362356185913086,0.31201601028442383
1772593653216208000,7.776207763671875,-0.09330999851226807,-1.7742376327514648,0.895115852355957
1772593653236472000,7.79647216796875,-0.10066479444503784,-2.938404083251953,1.6613521575927734
1772593653256736000,7.816736083984375,-0.07922205328941345,-4.052603721618652,2.460178852081299
1772593653276999000,7.8369990234375,-0.03623553365468979,-5.059844017028809,3.1489429473876953
1772593653297263000,7.85726318359375,0.02546616643667221,-5.822100639343262,3.6249189376831055
1772593653317527000,7.877527099609375,0.09777994453907013,-6.315943717956543,3.8172988891601562
1772593653337790000,7.8977900390625,0.24660921096801758,-6.521008491516113,3.806918144226074
1772593653358054000,7.918053955078125,0.3875468373298645,-6.404735565185547,3.5579233169555664
1772593653378318000,7.938318115234375,0.5051450729370117,-5.970587730407715,3.065143585205078
1772593653398581000,7.9585810546875,0.5550761222839355,-5.282980918884277,2.481015205383301
1772593653418845000,7.978844970703125,0.4687768220901489,-4.402290344238281,1.9486804008483887
1772593653439109000,7.999109130859375,0.3249596357345581,-3.382078170776367,1.4968090057373047
1772593653459372000,8.0193720703125,0.20048731565475464,-2.3537607192993164,1.0922489166259766
1772593653479636000,8.039635986328125,0.10112529993057251,-1.398397445678711,0.7075700759887695
1772593653499900000,8.05989990234375,0.030843496322631836,-0.5453119277954102,0.31577157974243164
1772593653520163000,8.0801630859375,-0.00730624794960022,0.14191341400146484,-0.09868001937866211
1772593653540427000,8.100427001953125,-0.03449377417564392,0.6266427040100098,-0.5396289825439453
1772593653560691000,8.12069091796875,-0.07168608903884888,0.8636026382446289,-0.9553647041320801
1772593653580954000,8.1409541015625,-0.11868059635162354,0.8436183929443359,-1.2396950721740723
1772593653601218000,8.161218017578125,-0.17976129055023193,0.6600527763366699,-1.2890315055847168
1772593653621482000,8.18148193359375,-0.2990678548812866,0.5499613285064697,-1.3647809028625488
1772593653641745000,8.201744873046875,-0.5098633766174316,0.5005841255187988,-1.5170769691467285
1772593653662009000,8.222009033203125,-0.7678327560424805,0.438320517539978,-1.6328673362731934
1772593653682273000,8.24227294921875,-0.9997165203094482,0.33188319206237793,-1.657224178314209
1772593653702536000,8.262535888671875,-1.2395734786987305,0.20987141132354736,-1.6548128128051758
1772593653722800000,8.282800048828125,-1.4397382736206055,0.07355061173439026,-1.6029696464538574
1772593653743064000,8.30306396484375,-1.6695289611816406,-0.04331961274147034,-1.5533113479614258
1772593653763327000,8.323326904296875,-1.877906322479248,-0.1386285424232483,-1.4617056846618652
1772593653783591000,8.3435908203125,-2.019990921020508,-0.20724689960479736,-1.2956395149230957
1772593653803855000,8.363855224609376,-2.0813984870910645,-0.2681835889816284,-1.0826749801635742
1772593653824118000,8.384117919921875,-2.0687975883483887,-0.31985676288604736,-0.8901705741882324
1772593653844382000,8.4043818359375,-2.0401158332824707,-0.3903595209121704,-0.7454588413238525
1772593653864646000,8.42464599609375,-1.9414758682250977,-0.43736934661865234,-0.6094112396240234
1772593653884910000,8.44491015625,-1.7120890617370605,-0.432816743850708,-0.44857585430145264
1772593653905173000,8.465173095703125,-1.308462142944336,-0.3423640727996826,-0.29129326343536377
1772593653925437000,8.48543701171875,-0.8889970779418945,-0.23178672790527344,-0.1761683225631714
1772593653945701000,8.505701171875,-0.49591827392578125,-0.13419055938720703,-0.09362876415252686
1772593653965964000,8.525964111328125,-0.1743612289428711,-0.04920482635498047,-0.03185927867889404
1772593653986228000,8.54622802734375,-0.014889717102050781,-0.004443645477294922,-0.0026906728744506836
