time,seconds_elapsed,z,y,x
1772593645759177000,0.319177001953125,8.076839447021484,0.7643488645553589,2.5785553455352783
1772593645779441000,0.33944091796875,9.647136688232422,0.7532756924629211,2.6210522651672363
1772593645799704000,0.3597041015625,10.628759384155273,0.7469909191131592,2.630030632019043
1772593645819968000,0.379968017578125,10.644620895385742,0.7646481394767761,2.6180596351623535
1772593645840232000,0.40023193359375,9.90241813659668,-0.09307458996772766,2.6063878536224365
1772593645860495000,0.4204951171875,9.839869499206543,-0.14664486050605774,2.603694438934326
1772593645880759000,0.440759033203125,9.770438194274902,-0.21458032727241516,3.409044027328491
1772593645901023000,0.46102294921875,9.705794334411621,-0.2720411717891693,4.175487995147705
1772593645921286000,0.481285888671875,9.6710786819458,-0.3064578175544739,4.214992046356201
1772593645941550000,0.501550048828125,9.66299819946289,-0.30795419216156006,4.256890773773193
1772593645961814000,0.52181396484375,9.617507934570312,-0.26066872477531433,4.281730651855469
1772593645982077000,0.542076904296875,8.885480880737305,-0.19273324310779572,4.306570529937744
1772593646002341000,0.562341064453125,8.892963409423828,0.651522159576416,4.284723281860352
1772593646022605000,0.58260498046875,8.949825286865234,0.6688801050186157,4.223970413208008
1772593646042868000,0.602867919921875,8.995016098022461,0.6886322498321533,3.2977135181427
1772593646063132000,0.6231318359375,8.999205589294434,0.6634931564331055,3.2959179878234863
1772593646083396000,0.64339599609375,8.974964141845703,0.6320692300796509,3.3198599815368652
1772593646103660000,0.663659912109375,9.029132843017578,0.6545149087905884,4.18416690826416
1772593646123923000,0.6839228515625,9.077615737915039,0.6317699551582336,4.222474098205566
1772593646144187000,0.704186767578125,9.094375610351562,0.5485714673995972,4.193743705749512
1772593646164451000,0.724451171875,9.138069152832031,0.5156511664390564,4.109048843383789
1772593646184714000,0.7447138671875,9.877877235412598,0.47494974732398987,3.0615854263305664
1772593646204978000,0.76497802734375,9.965266227722168,0.4737526476383209,2.3005285263061523
1772593646225242000,0.7852421875,9.947010040283203,0.4423287510871887,1.5280991792678833
1772593646245505000,0.805505126953125,9.9586820602417,0.38815996050834656,1.4865000247955322
1772593646265769000,0.82576904296875,9.975440979003906,0.31184476613998413,1.492186188697815
1772593646286033000,0.846032958984375,9.997288703918457,-0.529417872428894,1.4927847385406494
1772593646306296000,0.866296142578125,10.776900291442871,-0.5755062103271484,1.5257049798965454
1772593646326560000,0.88656005859375,10.771214485168457,-0.6497265100479126,1.5906476974487305
1772593646346824000,0.906823974609375,10.704176902770996,-1.4080898761749268,1.622370958328247
1772593646367087000,0.927087158203125,9.794678688049316,-2.3325510025024414,1.6699557304382324
1772593646387351000,0.94735107421875,8.464401245117188,-3.265691041946411,1.6801310777664185
1772593646407615000,0.967614990234375,7.682993412017822,-4.08510684967041,0.7389104962348938
1772593646427878000,0.9878779296875,8.658330917358398,-4.147655010223389,-0.0071826050989329815
1772593646448142000,1.00814208984375,9.461286544799805,-5.097854137420654,1.1327567100524902
1772593646468406000,1.028406005859375,9.497797966003418,-5.117606163024902,1.1596914529800415
1772593646488669000,1.0486689453125,9.527725219726562,-5.07570743560791,1.9841946363449097
1772593646508933000,1.06893310546875,4.998195171356201,-4.2182841300964355,8.387487411499023
1772593646529197000,1.089197021484375,1.3021464347839355,-0.7984662652015686,8.439860343933105
1772593646549460000,1.1094599609375,1.260547161102295,0.2073977291584015,9.302072525024414
1772593646569724000,1.129723876953125,1.2186486721038818,0.23852235078811646,9.231143951416016
1772593646589988000,1.149988037109375,1.1543045043945312,0.13856442272663116,5.931933879852295
1772593646610251000,1.1702509765625,1.160290002822876,-1.789067268371582,5.8616042137146
1772593646630515000,1.190514892578125,-0.06793547421693802,-3.1944637298583984,6.919242858886719
1772593646650779000,1.21077880859375,-1.61069917678833,-4.555567264556885,8.366238594055176
1772593646671042000,1.2310419921875,-2.6647465229034424,-5.355230808258057,9.29309368133545
1772593646691306000,1.251305908203125,-2.6770167350769043,-6.33565616607666,9.355642318725586
1772593646711570000,1.27156982421875,-2.6126725673675537,-8.541613578796387,9.427168846130371
1772593646731833000,1.2918330078125,-1.5095441341400146,-11.8225679397583,9.406219482421875
1772593646752097000,1.312096923828125,-0.5102642178535461,-13.844770431518555,7.7201032638549805
1772593646772361000,1.33236083984375,0.8445546627044678,-13.822324752807617,5.540482044219971
1772593646792624000,1.3526240234375,0.8975263833999634,-11.809399604797363,3.70742130279541
1772593646812888000,1.37288818359375,0.08619125932455063,-10.609306335449219,2.8326399326324463
1772593646833152000,1.393152099609375,0.010474632494151592,-10.532392501831055,1.8142063617706299
1772593646853415000,1.413414794921875,-0.8864531517028809,-10.472238540649414,0.4058171808719635
1772593646873679000,1.43367919921875,-0.9184756278991699,-10.431536674499512,0.3109469413757324
1772593646893943000,1.453943115234375,-0.9582792520523071,-10.45158863067627,-0.431255578994751
1772593646914206000,1.4742060546875,-1.015440821647644,-11.82376480102539,-0.35254621505737305
1772593646934470000,1.494469970703125,-1.787870168685913,-11.896489143371582,-0.2968810200691223
1772593646954734000,1.514734130859375,-1.801337480545044,-11.871648788452148,-0.2555810213088989
1772593646974997000,1.5349970703125,-1.8121113777160645,-10.24927806854248,-0.24241292476654053
1772593646995261000,1.555260986328125,-1.7968484163284302,-8.844779968261719,-0.2621650993824005
1772593647015525000,1.575525146484375,-1.7375918626785278,-7.411550521850586,-0.30945056676864624
1772593647035788000,1.5957880859375,-0.8095394372940063,-6.6127848625183105,-0.3292027413845062
1772593647056052000,1.616052001953125,-0.7897872924804688,-6.612186431884766,-0.31214404106140137
1772593647076316000,1.63631591796875,-0.8089408874511719,-7.719205379486084,0.8388684391975403
1772593647096579000,1.6565791015625,-2.553715467453003,-9.950601577758789,3.078045606613159
1772593647116843000,1.676843017578125,-4.0527849197387695,-12.53873348236084,5.318718910217285
1772593647137107000,1.69710693359375,-4.082113742828369,-13.391069412231445,6.089951515197754
1772593647157370000,1.7173701171875,-2.930203676223755,-12.076054573059082,5.1472344398498535
1772593647177634000,1.737634033203125,-2.896984100341797,-12.050017356872559,2.9005753993988037
1772593647197898000,1.75789794921875,-2.160767078399658,-12.108076095581055,1.1848305463790894
1772593647218161000,1.778160888671875,-1.0525509119033813,-12.151471138000488,1.0890624523162842
1772593647238425000,1.798425048828125,-0.11941081285476685,-12.102989196777344,1.027711033821106
1772593647258689000,1.81868896484375,-0.05386953800916672,-10.665570259094238,0.9843161702156067
1772593647278952000,1.838951904296875,0.8122329115867615,-9.27453899383545,0.20799627900123596
1772593647299216000,1.8592158203125,1.6989853382110596,-8.486248016357422,-0.5608417391777039
1772593647319480000,1.87947998046875,2.814084768295288,-8.543109893798828,-0.6443395614624023
1772593647339743000,1.899742919921875,2.874837636947632,-9.316437721252441,-0.7104793787002563
1772593647360007000,1.9200068359375,2.0009541511535645,-9.346963882446289,-0.6392518281936646
1772593647380271000,1.94027099609375,0.7697358727455139,-9.412205696105957,0.5614402890205383
1772593647420798000,1.9807978515625,0.6901286244392395,-9.47146224975586,1.6089035272598267
1772593647441062000,2.001061767578125,0.6832453012466431,-9.495404243469238,1.5975310802459717
1772593647461326000,2.021326171875,0.7323264479637146,-9.518447875976562,1.5532383918762207
1772593647481589000,2.041589111328125,0.7775170207023621,-9.523236274719238,1.4933832883834839
1772593647501853000,2.06185302734375,0.7646481394767761,-9.530718803405762,1.4419080018997192
1772593647522117000,2.0821171875,0.7502829432487488,-9.54209041595459,0.6697779297828674
1772593647542380000,2.102380126953125,0.7751228213310242,-9.54777717590332,0.689530074596405
1772593647562644000,2.12264404296875,0.7703344225883484,-9.562142372131348,0.707486629486084
1772593647582908000,2.142907958984375,0.7487865686416626,-9.588777542114258,0.6898293495178223
1772593647603171000,2.163171142578125,0.7793126702308655,-9.620500564575195,0.71766197681427
1772593647623435000,2.18343505859375,0.7655459642410278,-9.648633003234863,0.7604582905769348
1772593647643699000,2.203698974609375,0.7478887438774109,-9.66958236694336,1.5203180313110352
1772593647663962000,2.223962158203125,0.729034423828125,-9.718363761901855,1.5702970027923584
1772593647684226000,2.24422607421875,0.7466916441917419,-10.475231170654297,1.6157869100570679
1772593647704490000,2.264489990234375,1.6490063667297363,-10.476428031921387,1.6900070905685425
1772593647724753000,2.2847529296875,1.6343419551849365,-10.545560836791992,2.7940332889556885
1772593647745017000,2.30501708984375,1.5957354307174683,-11.55172348022461,3.9148190021514893
1772593647765281000,2.325281005859375,1.55712890625,-12.422016143798828,4.884769916534424
1772593647785544000,2.3455439453125,0.7164648771286011,-13.396157264709473,4.95001220703125
1772593647805808000,2.36580810546875,-0.025737667456269264,-13.420697212219238,4.932354927062988
1772593647826072000,2.386072021484375,-0.7864952683448792,-13.382988929748535,4.841973781585693
1772593647846335000,2.4063349609375,-0.7939771413803101,-12.618939399719238,3.4629135131835938
1772593647866599000,2.426598876953125,-0.7149685025215149,-12.56297492980957,2.2457611560821533
1772593647886863000,2.446863037109375,0.20949265360832214,-11.780669212341309,1.183034896850586
1772593647907126000,2.4671259765625,0.21787235140800476,-10.98040771484375,1.1192892789840698
1772593647927390000,2.487389892578125,0.22385786473751068,-10.914566993713379,1.061229944229126
1772593647947654000,2.50765380859375,0.23163901269435883,-10.130764961242676,0.13527239859104156
1772593647967917000,2.5279169921875,0.23104046285152435,-10.098742485046387,0.13916297256946564
1772593647988181000,2.548180908203125,0.22595278918743134,-10.104129791259766,0.20141221582889557
1772593648008445000,2.56844482421875,0.228047713637352,-10.091560363769531,1.0091559886932373
1772593648028708000,2.5887080078125,0.23792380094528198,-10.04427433013916,0.9825205206871033
1772593648048972000,2.608971923828125,0.26485857367515564,-9.058761596679688,0.9394248723983765
1772593648069236000,2.629236083984375,0.26485857367515564,-8.987833023071289,0.1852513551712036
1772593648089499000,2.649498779296875,0.22625206410884857,-8.206725120544434,0.14395137131214142
1772593648109763000,2.66976318359375,0.14993688464164734,-7.333739280700684,-0.8430582880973816
1772593648130027000,2.690027099609375,-0.558447539806366,-7.257723331451416,-0.9184756278991699
1772593648150290000,2.7102900390625,-0.6045359373092651,-6.423942565917969,-1.6846201419830322
1772593648170554000,2.73055419921875,-0.6631938815116882,-5.6135053634643555,-1.7163434028625488
1772593648190818000,2.750818115234375,-0.7173627018928528,-5.550058841705322,-1.6956933736801147
1772593648211081000,2.7710810546875,-1.534683346748352,-5.568015098571777,-0.7107786536216736
1772593648231345000,2.791344970703125,-2.385223388671875,-7.427711486816406,1.0097545385360718
1772593648251609000,2.811609130859375,-4.115931987762451,-10.519224166870117,3.8582561016082764
1772593648271872000,2.8318720703125,-5.621286392211914,-13.868412971496582,6.5622076988220215
1772593648292136000,2.852135986328125,-5.66228723526001,-14.873080253601074,7.312191486358643
1772593648312400000,2.87239990234375,-4.535216331481934,-13.313258171081543,6.001964569091797
1772593648332663000,2.8926630859375,-3.6239235401153564,-12.220603942871094,3.5404257774353027
1772593648352927000,2.912927001953125,-2.4046764373779297,-12.247838020324707,2.6833014488220215
1772593648373191000,2.93319091796875,-0.09846154600381851,-12.984055519104004,1.9354127645492554
1772593648393454000,2.9534541015625,0.7413046956062317,-11.297340393066406,1.9039889574050903
1772593648413718000,2.973718017578125,0.7170634269714355,-9.79647445678711,0.811634361743927
1772593648433982000,2.99398193359375,0.7167641520500183,-9.700706481933594,-0.13706804811954498
1772593648454245000,3.0142451171875,0.7861959934234619,-9.716567993164062,-1.3560160398483276
1772593648474509000,3.034509033203125,1.6265608072280884,-10.777199745178223,-1.4164695739746094
1772593648494773000,3.05477294921875,2.5031378269195557,-10.813411712646484,-1.4293384552001953
1772593648515036000,3.075035888671875,2.4717140197753906,-10.825682640075684,-1.4039000272750854
1772593648535300000,3.095300048828125,1.2458827495574951,-10.732008934020996,-0.4537012279033661
1772593648555564000,3.11556396484375,1.1869255304336548,-9.813833236694336,0.42377370595932007
1772593648575827000,3.135826904296875,1.1635819673538208,-9.79527759552002,0.4926069974899292
1772593648596091000,3.1560908203125,1.136048674583435,-9.78989028930664,1.2907739877700806
1772593648616355000,3.17635498046875,1.1441291570663452,-9.740809440612793,1.3395558595657349
1772593648636618000,3.196617919921875,1.1234791278839111,-9.668983459472656,1.3787609338760376
1772593648656882000,3.2168818359375,1.0456676483154297,-9.59835433959961,1.4290391206741333
1772593648677146000,3.23714599609375,0.24121582508087158,-9.531915664672852,1.4155718088150024
1772593648697410000,3.25741015625,0.17567454278469086,-9.549273490905762,1.361402988433838
1772593648717673000,3.2776728515625,0.1529296338558197,-9.589376449584961,1.315613865852356
1772593648737937000,3.29793701171875,0.13257892429828644,-9.62947940826416,1.2668319940567017
1772593648758201000,3.318201171875,0.12988543510437012,-9.68574333190918,1.2255319356918335
1772593648778464000,3.338464111328125,0.12270283699035645,-9.745597839355469,1.2168530225753784
1772593648798728000,3.35872802734375,0.11522095650434494,-9.80096435546875,1.235408067703247
1772593648818992000,3.3789921875,0.1355716735124588,-9.871891975402832,1.324292778968811
1772593648839255000,3.399255126953125,0.1660977452993393,-9.935637474060059,2.2574329376220703
1772593648859519000,3.41951904296875,0.2397194504737854,-9.994894027709961,2.304718494415283
1772593648879783000,3.439782958984375,0.27473464608192444,-10.053253173828125,3.210325241088867
1772593648900046000,3.460046142578125,0.26485857367515564,-11.114482879638672,4.124012470245361
1772593648920310000,3.48031005859375,0.2510918974876404,-11.203666687011719,5.189731597900391
1772593648940574000,3.500573974609375,0.16519992053508759,-12.6365966796875,5.9771246910095215
1772593648960837000,3.520837158203125,-0.772429347038269,-13.700221061706543,5.9340291023254395
1772593648981101000,3.54110107421875,-0.8200140595436096,-13.777433395385742,4.882076740264893
1772593649001365000,3.561364990234375,-0.7439981698989868,-13.8468656539917,3.631704807281494
1772593649021628000,3.5816279296875,0.4785410761833191,-13.851953506469727,2.2155344486236572
1772593649041892000,3.60189208984375,1.2665326595306396,-12.98585033416748,1.448791265487671
1772593649062156000,3.622156005859375,1.282394289970398,-11.862371444702148,1.4870985746383667
1772593649082419000,3.6424189453125,1.3084312677383423,-10.489895820617676,1.5131354331970215
1772593649102683000,3.662682861328125,1.2997522354125977,-9.645340919494629,1.5451579093933105
1772593649122947000,3.682947021484375,1.2847884893417358,-9.700108528137207,1.6080057621002197
1772593649143210000,3.7032099609375,1.3087304830551147,-10.475829124450684,1.6295535564422607
1772593649163474000,3.723473876953125,2.1320366859436035,-10.518027305603027,1.6002246141433716
1772593649183738000,3.743738037109375,2.167351007461548,-10.482114791870117,1.5313912630081177
1772593649204001000,3.7640009765625,2.2260091304779053,-9.595062255859375,0.7356184720993042
1772593649224265000,3.784264892578125,2.2882583141326904,-9.512462615966797,0.004489128012210131
1772593649244529000,3.80452880859375,2.3178865909576416,-8.600870132446289,-0.05386953800916672
1772593649264792000,3.8247919921875,2.3337481021881104,-8.573336601257324,-0.9130886793136597
1772593649285056000,3.845055908203125,2.3633763790130615,-7.807491779327393,-0.9693524241447449
1772593649305320000,3.86531982421875,2.426523447036743,-7.739256858825684,-1.7187376022338867
1772593649325583000,3.8855830078125,2.464531421661377,-6.9823899269104,-1.7513585090637207
1772593649345847000,3.905846923828125,2.4229321479797363,-7.007828235626221,-1.801337480545044
1772593649366111000,3.926111083984375,1.3608044385910034,-7.985560417175293,-1.8522143363952637
1772593649386374000,3.946373779296875,0.5174468159675598,-8.910919189453125,-1.8719664812088013
1772593649406638000,3.96663818359375,-0.9002198576927185,-10.157401084899902,-1.8225860595703125
1772593649426902000,3.986902099609375,-2.3989901542663574,-11.07258415222168,-1.0019733905792236
1772593649447165000,4.0071650390625,-2.4007856845855713,-11.092934608459473,-1.0307037830352783
1772593649467429000,4.02742919921875,-0.4779425263404846,-11.054328918457031,-2.1443068981170654
1772593649487693000,4.047693115234375,1.0489596128463745,-10.995670318603516,-3.4093432426452637
1772593649507956000,4.0679560546875,1.082777738571167,-10.937910079956055,-4.922478675842285
1772593649528220000,4.088219970703125,0.3001730442047119,-11.88930606842041,-4.911705017089844
1772593649548484000,4.108484130859375,0.29628247022628784,-14.507964134216309,-2.9712042808532715
1772593649568747000,4.1287470703125,0.279223769903183,-15.391425132751465,-0.4076128304004669
1772593649589011000,4.149010986328125,0.23612813651561737,-13.808259010314941,0.5614402890205383
1772593649609275000,4.16927490234375,0.2660556733608246,-11.372159004211426,1.4520833492279053
1772593649629538000,4.1895380859375,0.3372831642627716,-9.245209693908691,1.4209587574005127
1772593649649802000,4.209802001953125,1.3150153160095215,-8.21540355682373,1.3506290912628174
1772593649670066000,4.23006591796875,2.2478561401367188,-8.255207061767578,0.49649757146835327
1772593649690329000,4.2503291015625,2.1942858695983887,-10.159794807434082,0.4390367269515991
1772593649710593000,4.270593017578125,1.192013144493103,-10.24239444732666,0.3878606855869293
1772593649730857000,4.29085693359375,0.46088382601737976,-10.27202320098877,0.35913026332855225
1772593649751120000,4.311119873046875,0.45160630345344543,-10.237008094787598,0.3827729821205139
1772593649771384000,4.331384033203125,0.4411316514015198,-10.212467193603516,0.42377370595932007
1772593649791648000,4.35164794921875,0.39953240752220154,-10.204686164855957,0.48063600063323975
1772593649811911000,4.371910888671875,0.3636193871498108,-10.19840145111084,1.2228385210037231
1772593649832175000,4.392175048828125,0.33339259028434753,-10.233716011047363,1.2868833541870117
1772593649852439000,4.41243896484375,0.3283049166202545,-10.23311710357666,1.3434463739395142
1772593649872702000,4.432701904296875,0.35583823919296265,-10.195109367370605,1.3637971878051758
1772593649892966000,4.4529658203125,0.43993455171585083,-10.175955772399902,1.4047977924346924
1772593649913230000,4.47322998046875,1.3410521745681763,-10.111910820007324,1.4140753746032715
1772593649933493000,4.493492919921875,1.4027029275894165,-9.318831443786621,1.3874398469924927
1772593649953757000,4.5137568359375,1.4778209924697876,-9.315838813781738,1.3410521745681763
1772593649974021000,4.534021240234375,2.2188265323638916,-9.317035675048828,1.2704232931137085
1772593649994285000,4.55428515625,2.202366352081299,-9.309554100036621,0.27473464608192444
1772593650014548000,4.5745478515625,2.1927895545959473,-9.28650951385498,0.2106897532939911
1772593650034812000,4.59481201171875,2.2257096767425537,-9.264063835144043,0.15771803259849548
1772593650055076000,4.615076171875,2.24127197265625,-9.267655372619629,0.14365209639072418
1772593650075339000,4.635339111328125,2.2691047191619873,-9.340678215026855,0.16430209577083588
1772593650095603000,4.65560302734375,2.288557529449463,-10.148122787475586,0.2406172752380371
1772593650115867000,4.675866943359375,2.3166894912719727,-10.208277702331543,0.3076549172401428
1772593650136130000,4.696130126953125,2.333448886871338,-10.920552253723145,0.358830988407135
1772593650156394000,4.71639404296875,2.372953176498413,-11.776180267333984,1.0693103075027466
1772593650176658000,4.736657958984375,2.442384958267212,-12.731765747070312,1.1414356231689453
1772593650196921000,4.756921142578125,2.4133553504943848,-12.779949188232422,1.171961784362793
1772593650217185000,4.77718505859375,1.2231377363204956,-12.801796913146973,1.1698668003082275
1772593650237449000,4.797448974609375,-0.13377602398395538,-12.756905555725098,1.1429320573806763
1772593650257712000,4.817712158203125,-1.1662755012512207,-11.966219902038574,1.0986392498016357
1772593650277976000,4.83797607421875,-1.9728221893310547,-11.91893482208252,1.0492589473724365
1772593650298240000,4.858239990234375,-2.011129379272461,-11.877335548400879,1.0348936319351196
1772593650318503000,4.8785029296875,-2.033275842666626,-11.809100151062012,1.0411784648895264
1772593650338767000,4.89876708984375,-1.9692308902740479,-10.975020408630371,0.999878466129303
1772593650359031000,4.919031005859375,0.08379705995321274,-10.913968086242676,0.2759317457675934
1772593650379294000,4.9392939453125,1.5005658864974976,-10.102633476257324,0.23732523620128632
1772593650399558000,4.959557861328125,2.362478494644165,-10.046968460083008,0.16639702022075653
1772593650419822000,4.979822021484375,2.3466169834136963,-9.2841157913208,0.10384850203990936
1772593650440085000,5.0000849609375,1.2165536880493164,-9.257779121398926,0.05626374110579491
1772593650460349000,5.020348876953125,0.33758243918418884,-9.264063835144043,0.0347159244120121
1772593650480613000,5.040613037109375,0.2941875457763672,-10.087369918823242,0.03711012750864029
1772593650500876000,5.0608759765625,0.25408464670181274,-10.151116371154785,0.07332243025302887
1772593650521140000,5.081139892578125,0.2059013396501541,-10.23072338104248,0.12240356206893921
1772593650541404000,5.10140380859375,0.15741875767707825,-10.884040832519531,0.1313818246126175
1772593650561667000,5.1216669921875,0.12330138683319092,-10.0487642288208,0.09247604012489319
1772593650581931000,5.141930908203125,0.07062894850969315,-9.974244117736816,-0.7104793787002563
1772593650602195000,5.16219482421875,-0.002693476853892207,-9.164705276489258,-0.7463923692703247
1772593650622458000,5.1824580078125,-0.060453593730926514,-8.379706382751465,-0.7999626398086548
1772593650642722000,5.20272216796875,-0.8032546639442444,-7.3017168045043945,-0.8415619134902954
1772593650662986000,5.222986083984375,-0.801459014415741,-7.233781337738037,-0.8702923059463501
1772593650683249000,5.243248779296875,-0.8373720645904541,-6.483797550201416,-0.8684966564178467
1772593650703513000,5.26351318359375,-0.8735843300819397,-6.4520745277404785,-0.8735843300819397
1772593650723777000,5.283777099609375,-0.9166799783706665,-6.452672958374023,-0.8571242094039917
1772593650744040000,5.3040400390625,-1.6639702320098877,-6.496666431427002,0.012569558806717396
1772593650764304000,5.324303955078125,-1.6953940391540527,-7.933486461639404,1.1569979190826416
1772593650784568000,5.344568115234375,-2.4600422382354736,-9.951498985290527,2.702754497528076
1772593650804831000,5.3648310546875,-2.5342624187469482,-11.945270538330078,4.678868770599365
1772593650825095000,5.385094970703125,-3.4332852363586426,-13.683760643005371,5.584774971008301
1772593650845359000,5.405359130859375,-2.692878246307373,-15.488090515136719,4.685751914978027
1772593650865622000,5.4256220703125,-2.65906023979187,-16.87283706665039,3.412635326385498
1772593650885886000,5.445885986328125,-1.8136078119277954,-16.847997665405273,2.3807342052459717
1772593650906150000,5.46614990234375,-1.7256208658218384,-13.592182159423828,1.0845733880996704
1772593650926413000,5.4864130859375,-0.8595184087753296,-10.91606330871582,0.1041477769613266
1772593650946677000,5.506677001953125,-0.8259995579719543,-8.374618530273438,-0.7281365990638733
1772593650966941000,5.52694091796875,-0.7643488645553589,-7.2230072021484375,-1.9479823112487793
1772593650987204000,5.5472041015625,-0.028131870552897453,-6.436811447143555,-3.354276657104492
1772593651007468000,5.567468017578125,1.1555016040802002,-6.506841659545898,-4.2422261238098145
1772593651027732000,5.58773193359375,2.6542718410491943,-7.6333136558532715,-4.189254283905029
1772593651047995000,5.607994873046875,3.3859996795654297,-8.407238960266113,-3.1531636714935303
1772593651068259000,5.628259033203125,3.2956185340881348,-9.525930404663086,-1.76602303981781
1772593651088523000,5.64852294921875,1.8154034614562988,-10.878055572509766,-0.38636431097984314
1772593651108786000,5.668785888671875,0.2819172441959381,-11.781268119812012,1.1767501831054688
1772593651129050000,5.689050048828125,-0.8571242094039917,-11.749545097351074,2.2143373489379883
1772593651149314000,5.70931396484375,-0.8696937561035156,-10.895712852478027,2.3035213947296143
1772593651169577000,5.729576904296875,-0.7835025191307068,-10.102034568786621,2.3442227840423584
1772593651189841000,5.7498408203125,-0.004489128012210131,-10.05923843383789,2.3475148677825928
1772593651210105000,5.77010498046875,0.009876081719994545,-9.163507461547852,2.329258918762207
1772593651230368000,5.790367919921875,0.006284779403358698,-9.114127159118652,2.2514474391937256
1772593651250632000,5.8106318359375,0.06853402405977249,-9.101557731628418,1.478419542312622
1772593651270896000,5.830896240234375,0.1505354344844818,-9.113529205322266,1.4254478216171265
1772593651291160000,5.85116015625,1.2177507877349854,-9.103652954101562,0.7015010714530945
1772593651311423000,5.871423095703125,1.280897855758667,-8.26119327545166,0.6362590789794922
1772593651331687000,5.89168701171875,2.051830768585205,-8.305785179138184,0.6215946078300476
1772593651351951000,5.911951171875,2.0353708267211914,-10.957962036132812,1.5439608097076416
1772593651372214000,5.932214111328125,1.2557587623596191,-11.890204429626465,1.577479600906372
1772593651392478000,5.95247802734375,1.2883797883987427,-11.883620262145996,1.6068086624145508
1772593651412742000,5.972741943359375,1.3467384576797485,-11.816582679748535,1.6570868492126465
1772593651433005000,5.993005126953125,1.3311761617660522,-11.818378448486328,1.7301100492477417
1772593651453269000,6.01326904296875,1.3515268564224243,-12.599785804748535,2.612074136734009
1772593651473533000,6.033532958984375,0.42197805643081665,-13.476661682128906,2.5785553455352783
1772593651493796000,6.053796142578125,-0.8906430602073669,-13.47875690460205,1.5074492692947388
1772593651514060000,6.07406005859375,-0.9675567746162415,-13.418004035949707,0.501285970211029
1772593651534324000,6.094323974609375,-1.0262147188186646,-13.374309539794922,-0.8801683783531189
1772593651554587000,6.1145869140625,-1.0286089181900024,-13.368024826049805,-2.2741923332214355
1772593651574851000,6.13485107421875,-0.9723451733589172,-13.299490928649902,-3.163937568664551
1772593651595115000,6.155114990234375,-0.9100959300994873,-12.35557746887207,-3.104980230331421
1772593651615378000,6.1753779296875,-0.8409633636474609,-11.429020881652832,-1.0740987062454224
1772593651635642000,6.19564208984375,-0.7832032442092896,-10.704774856567383,0.33010056614875793
1772593651655906000,6.215906005859375,-0.7254431247711182,-10.653000831604004,1.2701239585876465
1772593651676169000,6.2361689453125,-0.6874351501464844,-9.805453300476074,1.3036428689956665
1772593651696433000,6.256432861328125,-0.6563105583190918,-9.774627685546875,1.3036428689956665
1772593651716697000,6.276697021484375,-0.6239888072013855,-8.880094528198242,1.2363059520721436
1772593651736960000,6.2969599609375,-0.6254851818084717,-8.81395435333252,0.37559038400650024
1772593651757224000,6.317223876953125,-1.7372926473617554,-7.984064102172852,0.3001730442047119
1772593651777488000,6.33748779296875,-0.6545149087905884,-7.925405979156494,-0.419883131980896
1772593651797751000,6.3577509765625,0.034416649490594864,-7.168539047241211,-0.4258686304092407
1772593651818015000,6.378014892578125,-1.9144635200500488,-6.169259071350098,-0.4082113802433014
1772593651838279000,6.39827880859375,-1.9413982629776,-6.0995283126831055,-0.35434186458587646
1772593651858542000,6.4185419921875,-1.8635867834091187,-5.218461990356445,-0.28550854325294495
1772593651878806000,6.438805908203125,-1.0791864395141602,-5.187935829162598,-0.2513911724090576
1772593651899070000,6.459070068359375,-0.3794809579849243,-6.3069257736206055,-0.19033902883529663
1772593651919333000,6.4793330078125,-1.581070899963379,-7.969399452209473,2.3696610927581787
1772593651939597000,6.49959716796875,-1.6382324695587158,-9.37629222869873,4.590881824493408
1772593651959861000,6.519861083984375,-3.1633388996124268,-10.666467666625977,6.807613372802734
1772593651980124000,6.5401240234375,-4.238635063171387,-11.448773384094238,7.6333136558532715
1772593652000388000,6.56038818359375,-4.312855243682861,-11.434408187866211,7.637503623962402
1772593652020652000,6.580652099609375,-5.062539577484131,-11.378743171691895,6.507440090179443
1772593652040915000,6.6009150390625,-3.378817081451416,-11.41016674041748,6.446388244628906
1772593652061179000,6.621178955078125,-2.259827136993408,-14.075811386108398,6.382043838500977
1772593652081443000,6.641443115234375,-0.3654150366783142,-14.058154106140137,4.905120849609375
1772593652101706000,6.6617060546875,0.4537012279033661,-11.808202743530273,2.937086820602417
1772593652121970000,6.681969970703125,0.41689038276672363,-9.694421768188477,1.062427043914795
1772593652142234000,6.702234130859375,0.46477439999580383,-8.879495620727539,-0.008678981103003025
1772593652162497000,6.7224970703125,2.7503392696380615,-8.864232063293457,0.8610147833824158
1772593652182761000,6.742760986328125,2.7335798740386963,-8.913911819458008,3.4234092235565186
1772593652203025000,6.76302490234375,1.7157447338104248,-9.763554573059082,4.467580318450928
1772593652223288000,6.7832880859375,0.9507973790168762,-9.848848342895508,4.535216331481934
1772593652243552000,6.803552001953125,0.9825205206871033,-10.589853286743164,4.475660800933838
1772593652263816000,6.82381591796875,1.073500156402588,-10.59583854675293,3.6927568912506104
1772593652284079000,6.8440791015625,1.9267338514328003,-10.60272216796875,3.6343982219696045
1772593652304343000,6.864343017578125,1.9506758451461792,-10.530896186828613,3.638288736343384
1772593652324607000,6.88460693359375,2.836231231689453,-9.262269020080566,4.488829135894775
1772593652344870000,6.904869873046875,2.8296470642089844,-7.8098859786987305,5.474940776824951
1772593652365134000,6.925134033203125,1.941697597503662,-6.739078998565674,5.503371715545654
1772593652385398000,6.94539794921875,-0.5057750940322876,-6.69837760925293,4.4759602546691895
1772593652405661000,6.965660888671875,-0.5796960592269897,-5.95946741104126,4.455609321594238
1772593652425925000,6.985925048828125,-0.5949591398239136,-5.957372188568115,4.55227518081665
1772593652446189000,7.00618896484375,-0.5147533416748047,-6.046855449676514,5.390544891357422
1772593652466452000,7.026451904296875,0.2630629241466522,-7.2119340896606445,4.38348388671875
1772593652486716000,7.0467158203125,1.0627262592315674,-7.283760070800781,3.287238836288452
1772593652506980000,7.06697998046875,1.86508309841156,-8.156745910644531,3.2456395626068115
1772593652527243000,7.087242919921875,1.8590975999832153,-8.078635215759277,3.169623851776123
1772593652547507000,7.1075068359375,1.834557056427002,-8.078934669494629,3.1414918899536133
1772593652567771000,7.12777099609375,0.943913996219635,-10.376470565795898,4.1844658851623535
1772593652588035000,7.14803515625,0.1876455545425415,-11.54813289642334,5.0254292488098145
1772593652608298000,7.168298095703125,0.19812019169330597,-11.587337493896484,5.076904773712158
1772593652628562000,7.18856201171875,0.24809914827346802,-11.539154052734375,5.962160587310791
1772593652648826000,7.208826171875,0.21517887711524963,-11.587936401367188,5.9753289222717285
1772593652669089000,7.229089111328125,-0.9989806413650513,-11.644200325012207,5.963357925415039
1772593652689353000,7.24935302734375,-1.0740987062454224,-12.460622787475586,5.897218227386475
1772593652709617000,7.269616943359375,-1.8363527059555054,-12.498331069946289,5.044283866882324
1772593652729880000,7.289880126953125,-1.8192939758300781,-12.475885391235352,4.278438568115234
1772593652750144000,7.31014404296875,-1.755847692489624,-10.637139320373535,4.264671802520752
1772593652770408000,7.330407958984375,-0.7763199210166931,-9.41100788116455,4.314052104949951
1772593652790671000,7.350671142578125,0.15562310814857483,-9.352350234985352,4.378695487976074
1772593652810935000,7.37093505859375,1.954267144203186,-9.31494140625,4.323628902435303
1772593652831199000,7.391198974609375,4.223670959472656,-8.196249961853027,1.986289620399475
1772593652851462000,7.4114619140625,2.8993782997131348,-8.160037994384766,1.8926163911819458
1772593652871726000,7.43172607421875,0.4183867573738098,-8.225279808044434,1.9039889574050903
1772593652891990000,7.451989990234375,-0.47973817586898804,-10.212766647338867,1.9701287746429443
1772593652912253000,7.4722529296875,-0.449810653924942,-11.531672477722168,3.103783130645752
1772593652932517000,7.49251708984375,-0.39953240752220154,-11.555913925170898,3.119046211242676
1772593652952781000,7.512781005859375,-0.449810653924942,-10.227131843566895,3.042132616043091
1772593652973044000,7.5330439453125,-1.3278840780258179,-8.786720275878906,1.1408370733261108
1772593652993308000,7.553307861328125,-0.4528034031391144,-8.713098526000977,-0.13617022335529327
1772593653013572000,7.573572021484375,-0.4429273009300232,-7.894880294799805,-0.19452889263629913
1772593653033835000,7.5938349609375,-0.4282628297805786,-7.0802531242370605,-0.23433248698711395
1772593653054099000,7.614098876953125,-0.4073135554790497,-7.037755966186523,-0.21428105235099792
1772593653074363000,7.63436279296875,-0.43005847930908203,-7.090727806091309,0.9741408228874207
1772593653094626000,7.6546259765625,-0.4893149733543396,-8.206425666809082,2.1302409172058105
1772593653114890000,7.674889892578125,-0.5620388388633728,-9.282320022583008,3.5254619121551514
1772593653135154000,7.69515380859375,-1.2165536880493164,-10.757746696472168,4.9275665283203125
1772593653155417000,7.7154169921875,-1.1650784015655518,-12.453141212463379,6.963834762573242
1772593653175681000,7.735680908203125,-1.1411364078521729,-13.796586990356445,9.603741645812988
1772593653195945000,7.755945068359375,-1.1165958642959595,-14.673463821411133,10.722731590270996
1772593653216208000,7.776207763671875,0.21218612790107727,-15.596428871154785,11.555315017700195
1772593653236472000,7.79647216796875,1.1734580993652344,-16.593313217163086,11.545738220214844
1772593653256736000,7.816736083984375,1.0908581018447876,-16.669330596923828,10.410287857055664
1772593653276999000,7.8369990234375,1.0414776802062988,-16.604387283325195,8.793603897094727
1772593653297263000,7.85726318359375,1.0875661373138428,-15.819687843322754,6.906972408294678
1772593653317527000,7.877527099609375,1.095347285270691,-14.892233848571777,4.339191436767578
1772593653337790000,7.8977900390625,2.1721394062042236,-13.532925605773926,3.519177198410034
1772593653358054000,7.918053955078125,2.2218191623687744,-12.251429557800293,2.6156654357910156
1772593653378318000,7.938318115234375,2.213439464569092,-10.842142105102539,1.7830817699432373
1772593653398581000,7.9585810546875,1.30543851852417,-9.167398452758789,1.721431016921997
1772593653418845000,7.978844970703125,-0.4315548539161682,-7.674015045166016,4.2416276931762695
1772593653439109000,7.999109130859375,-1.184531331062317,-6.471826553344727,7.0557122230529785
1772593653459372000,8.0193720703125,-1.182137131690979,-5.7451863288879395,7.984363555908203
1772593653479636000,8.039635986328125,-1.191115379333496,-5.681739807128906,7.971494674682617
1772593653499900000,8.05989990234375,-1.1345523595809937,-4.732738018035889,7.886200904846191
1772593653520163000,8.0801630859375,0.06165069341659546,-3.702333688735962,7.042244911193848
1772593653540427000,8.100427001953125,1.8456302881240845,-2.492962598800659,7.104793548583984
1772593653560691000,8.12069091796875,3.2124202251434326,-1.301847219467163,7.152677536010742
1772593653580954000,8.1409541015625,4.029142379760742,-0.38905778527259827,7.119458198547363
1772593653601218000,8.161218017578125,5.034707069396973,-0.3663128614425659,7.025784969329834
1772593653621482000,8.18148193359375,5.822998046875,-0.3438672125339508,5.995380401611328
1772593653641745000,8.201744873046875,6.984484672546387,-0.32531216740608215,5.1152119636535645
1772593653662009000,8.222009033203125,6.965630531311035,-0.24690204858779907,4.345775127410889
1772593653682273000,8.24227294921875,5.858611583709717,-0.1759738177061081,4.256591320037842
1772593653702536000,8.262535888671875,5.027225017547607,0.713771402835846,3.2375593185424805
1772593653722800000,8.282800048828125,5.053561210632324,1.4876971244812012,2.393303871154785
1772593653743064000,8.30306396484375,5.836764335632324,1.5430630445480347,1.4766238927841187
1772593653763327000,8.323326904296875,6.596324920654297,1.5831658840179443,1.4194623231887817
1772593653783591000,8.3435908203125,7.588721752166748,1.6573861837387085,1.400607943534851
1772593653803855000,8.363855224609376,8.615534782409668,1.7220295667648315,1.3733739852905273
1772593653824118000,8.384117919921875,8.696040153503418,1.7893664836883545,1.338358759880066
1772593653844382000,8.4043818359375,8.74152946472168,2.5246856212615967,1.316511631011963
1772593653864646000,8.42464599609375,8.770259857177734,2.5417444705963135,1.2964602708816528
1772593653884910000,8.44491015625,8.824728012084961,2.555510997772217,1.2979565858840942
1772593653905173000,8.465173095703125,9.660005569458008,2.5896284580230713,1.316511631011963
1772593653925437000,8.48543701171875,9.698013305664062,2.6249427795410156,1.3670891523361206
1772593653945701000,8.505701171875,9.699809074401855,3.4192192554473877,1.4170681238174438
1772593653965964000,8.525964111328125,9.637859344482422,3.4641106128692627,1.4395138025283813
1772593653986228000,8.54622802734375,8.822932243347168,3.5045127868652344,1.4410101175308228
1772593654006492000,8.566491943359376,8.834005355834961,3.560776472091675,1.4775217771530151
