time,seconds_elapsed,z,y,x
1772389588592599000,0.25759912109375,-0.12968599796295166,0.040768999606370926,0.13242200016975403
1772389588612655900,0.27765576171875,-0.05734800174832344,0.10541500151157379,0.14833800494670868
1772389588632713000,0.297712890625,0.07652000337839127,0.051530998200178146,0.05706999823451042
1772389588652770000,0.31777001953125,0.1420159935951233,-0.00037399999564513564,0.07285600155591965
1772389588672827000,0.337826904296875,0.2568129897117615,-0.04269900172948837,-0.10491400212049484
1772389588692884000,0.357884033203125,0.08865000307559967,-0.0077599999494850636,-0.17753100395202637
1772389588712940800,0.37794091796875,-0.2810789942741394,-0.021407999098300934,0.08917400240898132
1772389588732998000,0.397997802734375,-0.3208630084991455,-0.011525999754667282,0.03933899849653244
1772389588753054700,0.4180546875,-0.1726900041103363,-0.022019999101758003,-0.14852799475193024
1772389588773111600,0.438111572265625,0.005847000051289797,0.04878399893641472,-0.1516219973564148
1772389588793168600,0.458168701171875,0.20147700607776642,0.02062699943780899,-0.046897999942302704
1772389588813225700,0.478225830078125,0.2115820050239563,-0.028297999873757362,0.018480999395251274
1772389588833282600,0.498282470703125,0.13806499540805817,-0.009038000367581844,0.06278499960899353
1772389588853339400,0.51833935546875,0.10085199773311615,0.03516799956560135,-0.019370999187231064
1772389588873396500,0.538396484375,0.06148200109601021,0.020135000348091125,-0.08189699798822403
1772389588893453300,0.558453369140625,0.09398499876260757,0.04490799829363823,0.0776820033788681
1772389588913510400,0.578510498046875,0.22398799657821655,0.09512700140476227,0.09494499862194061
1772389588933567500,0.5985673828125,0.21358999609947205,0.053700998425483704,-0.10644300282001495
1772389588953624300,0.618624267578125,-0.18512700498104095,-0.13943900167942047,-0.20755399763584137
1772389588973681400,0.638681396484375,-0.47530099749565125,-0.08995100110769272,-0.19644300639629364
1772389588993738200,0.65873828125,-0.40744099020957947,-0.04156100004911423,-0.06915400177240372
1772389589013795000,0.678795166015625,-0.1459529995918274,-0.022048000246286392,0.015876000747084618
1772389589033852200,0.69885205078125,0.11363700032234192,-0.02163800038397312,0.014299999922513962
1772389589053909000,0.718908935546875,0.2589089870452881,-0.049309998750686646,0.04424000158905983
1772389589073966000,0.738966064453125,0.2551270127296448,-0.028248000890016556,0.050592001527547836
1772389589094023200,0.759023193359375,0.04170199856162071,-0.0737989991903305,0.03087400086224079
1772389589114080000,0.779080078125,-0.16583800315856934,0.016961000859737396,0.09909900277853012
1772389589134137000,0.79913720703125,-0.07907000184059143,0.04476799815893173,0.03927899897098541
1772389589154194000,0.81919384765625,0.17354300618171692,0.07341500371694565,-0.010975999757647514
1772389589174251000,0.8392509765625,0.19883500039577484,0.04193200170993805,-0.011981000192463398
1772389589194308000,0.85930810546875,0.09346699714660645,0.03514600172638893,-0.09598500281572342
1772389589214365000,0.879364990234375,-0.08362500369548798,0.028116999194025993,-0.046386998146772385
1772389589234422000,0.899422119140625,-0.04450000077486038,0.04169199988245964,0.01888900063931942
1772389589254478800,0.919478759765625,0.04519899934530258,0.06615400314331055,-0.05448799952864647
1772389589274536000,0.939535888671875,0.06495899707078934,-0.07187599688768387,-0.06038999930024147
1772389589294593000,0.959593017578125,0.1319669932126999,-0.06470099836587906,-0.08111199736595154
1772389589314649900,0.97964990234375,0.15597400069236755,-0.047759998589754105,-0.0760900005698204
1772389589334707000,0.99970703125,0.09357900172472,-0.04460899904370308,-0.011272000148892403
1772389589354763800,1.019763671875,0.11166299879550934,0.012311999686062336,0.07338199764490128
1772389589374820900,1.03982080078125,0.1541299968957901,0.048250000923871994,0.07390499860048294
1772389589394877700,1.059877685546875,0.0929040014743805,0.04659999907016754,0.0439240001142025
1772389589414934800,1.079934814453125,-0.16167600452899933,0.04848000034689903,-0.012860000133514404
1772389589434991900,1.099991943359375,-0.3933410048484802,0.04278299957513809,0.026511000469326973
1772389589455049000,1.120049072265625,-0.3394719958305359,0.0742269977927208,0.11880899965763092
1772389589475105800,1.140105712890625,-0.13957799971103668,0.05538100004196167,0.09104699641466141
1772389589495162600,1.16016259765625,-0.11966200172901154,-0.03169399872422218,0.10323700308799744
1772389589515219700,1.1802197265625,-0.03573000058531761,-0.07015500217676163,-0.00380899989977479
1772389589535276800,1.20027685546875,0.15541499853134155,-0.056122999638319016,-0.012647000141441822
1772389589555333600,1.220333740234375,0.24673199653625488,-0.028898000717163086,0.08188100159168243
1772389589575390700,1.240390625,0.1341859996318817,0.020880000665783882,0.004705000203102827
1772389589595447800,1.26044775390625,-0.040651001036167145,0.004705000203102827,0.005363999865949154
1772389589615504600,1.280504638671875,-0.13332000374794006,0.006163000129163265,0.03469099849462509
1772389589635561700,1.300561767578125,0.051743000745773315,0.029729999601840973,0.030153000727295876
1772389589655618600,1.32061865234375,0.10859400033950806,0.05658499896526337,-0.11987700313329697
1772389589675675600,1.340675537109375,-0.06272400170564651,0.012467999942600727,-0.042302001267671585
1772389589695732700,1.360732666015625,-0.013379000127315521,0.007575000170618296,0.05815799906849861
1772389589715789600,1.38078955078125,0.07889600098133087,-0.0187389999628067,-0.020672999322414398
1772389589735846400,1.400846435546875,-0.01928200013935566,-0.00699200015515089,0.046661000698804855
1772389589755903500,1.420903564453125,-0.026626000180840492,0.0016060000052675605,0.09332899749279022
1772389589775960300,1.440960205078125,0.08589799702167511,0.04368399828672409,-0.053335998207330704
1772389589796017400,1.461017333984375,0.09751900285482407,0.010147999972105026,-0.045069001615047455
1772389589816074500,1.481074462890625,0.07401499897241592,-0.031881000846624374,0.019943999126553535
1772389589836131300,1.50113134765625,0.049612000584602356,0.000893999997060746,0.02715500071644783
1772389589856188400,1.5211884765625,0.05328899994492531,0.018316000699996948,0.008124000392854214
1772389589876245200,1.541245361328125,-0.01256799977272749,-0.037346001714468,0.018498999997973442
1772389589896302300,1.56130224609375,-0.07325399667024612,0.0029219998978078365,-0.05640000104904175
1772389589916359200,1.581359130859375,-0.04020300135016441,-0.08966200053691864,-0.058720000088214874
1772389589936416300,1.601416259765625,0.05823700129985809,0.012268999591469765,0.005022999830543995
1772389589956473300,1.621473388671875,0.13458900153636932,0.02901500090956688,0.0016189999878406525
1772389589976530200,1.6415302734375,0.09647099673748016,0.021611999720335007,-0.045903999358415604
1772389589996587300,1.661587158203125,-0.06842199712991714,0.04049000144004822,0.05447600036859512
1772389590016644400,1.681644287109375,-0.15073800086975098,0.039590999484062195,0.034779999405145645
1772389590036701200,1.701701171875,-0.14539000391960144,0.014872999861836433,0.0910239964723587
1772389590056758300,1.72175830078125,-0.0011119999689981341,0.011897999793291092,0.060819000005722046
1772389590076815000,1.741815185546875,0.1447100043296814,0.005518000107258558,-0.06574399769306183
1772389590096872200,1.7618720703125,0.0501680001616478,-0.05318399891257286,-0.030194999650120735
1772389590116929300,1.78192919921875,-0.02706499956548214,0.012651000171899796,0.08864299952983856
1772389590136986400,1.801986328125,0.09354700148105621,0.027721000835299492,-0.05308400094509125
1772389590157043200,1.822043212890625,0.090038001537323,-0.016222000122070312,-0.08486700057983398
1772389590177100300,1.842100341796875,0.07762999832630157,-0.018578000366687775,0.014504999853670597
1772389590197157400,1.862157470703125,0.07970400154590607,0.04993699863553047,0.02680400013923645
1772389590217214200,1.882214111328125,-0.05543600022792816,0.0015490000369027257,-0.007356000132858753
1772389590237271000,1.90227099609375,-0.15154899656772614,-0.025158999487757683,-0.018685000017285347
1772389590257328400,1.922328369140625,-0.07323899865150452,-0.016126999631524086,-0.061347998678684235
1772389590277385200,1.94238525390625,-0.01459100004285574,-0.00010099999781232327,0.002920999890193343
1772389590297442300,1.9624423828125,-0.030873000621795654,-0.012880999594926834,0.09993699938058853
1772389590317499100,1.9824990234375,-0.07829800248146057,0.0488939993083477,0.05914900079369545
1772389590337556000,2.002555908203125,0.008561000227928162,-0.037682998925447464,-0.01988000050187111
1772389590357613300,2.02261328125,0.022048000246286392,-0.050946999341249466,-0.039103999733924866
1772389590377670100,2.042670166015625,0.012039000168442726,0.041641999036073685,0.07591599971055984
1772389590397727000,2.06272705078125,0.11843100190162659,0.05811399966478348,0.07433299720287323
1772389590417784000,2.0827841796875,0.13874399662017822,0.013690000399947166,-0.0781330019235611
1772389590437841200,2.102841064453125,0.08859600126743317,-0.00824700016528368,-0.015305999666452408
1772389590457898200,2.122898193359375,0.06847599893808365,0.012601000256836414,-0.033045001327991486
1772389590477955000,2.142955078125,-0.0636179968714714,0.022081000730395317,-0.062435999512672424
1772389590498012200,2.16301220703125,-0.07169400155544281,0.040063999593257904,-0.02514900080859661
1772389590518069000,2.183069091796875,0.02664400078356266,-0.03514700010418892,0.006279999855905771
1772389590538126000,2.2031259765625,-0.015483999624848366,-0.05051799863576889,-0.12297499924898148
1772389590558183200,2.22318310546875,0.045212000608444214,-0.058014001697301865,-0.13517999649047852
1772389590578240000,2.243239990234375,0.0017689999658614397,-0.021611999720335007,0.08145499974489212
1772389590598297000,2.263297119140625,-0.08658400177955627,0.07470899820327759,0.24196399748325348
1772389590618354200,2.283354248046875,-0.06366699934005737,0.07896800339221954,0.1471710056066513
1772389590638411000,2.303410888671875,0.04906599968671799,-0.01922599971294403,-0.022261999547481537
1772389590658468000,2.323468017578125,0.13125300407409668,-0.08017999678850174,-0.08100999891757965
1772389590678525000,2.34352490234375,0.1146019995212555,-0.008944000117480755,0.002391000045463443
1772389590698582300,2.363582275390625,0.01488099992275238,0.04084400087594986,-0.013286000117659569
1772389590718639000,2.38363916015625,-0.03769399970769882,-0.012923999689519405,-0.016228999942541122
1772389590738696000,2.403696044921875,0.057844001799821854,0.01606000028550625,-0.049782998859882355
1772389590758753000,2.4237529296875,-0.009723999537527561,0.0032480000518262386,-0.075825996696949
1772389590778809900,2.443809814453125,-0.08777900040149689,-0.008600999601185322,-0.04546099901199341
1772389590798867200,2.4638671875,0.12337599694728851,0.03311900049448013,-0.02676899917423725
1772389590818924000,2.483924072265625,0.13630099594593048,0.02089500054717064,-0.019814999774098396
1772389590838980900,2.50398095703125,-0.043758001178503036,-0.013683999888598919,0.08014699816703796
1772389590859038000,2.524037841796875,0.02579200081527233,0.008252999745309353,0.0985179990530014
1772389590879094800,2.5440947265625,0.07263399660587311,-0.012597999535501003,-0.0779850035905838
1772389590899152000,2.56415185546875,-0.053091999143362045,-0.06367699801921844,-0.020788000896573067
1772389590919209000,2.584208984375,-0.15527400374412537,0.00825599953532219,-0.008630000054836273
1772389590939265800,2.604265869140625,-0.09381899982690811,0.06580500304698944,-0.014903999865055084
1772389590959323000,2.624322998046875,-0.07665500044822693,0.012643000110983849,0.04407599940896034
1772389590979379700,2.644379638671875,-0.04612400010228157,-0.04588500037789345,0.016061000525951385
1772389590999436500,2.6644365234375,0.11670000106096268,-0.027108000591397285,-0.05195099860429764
1772389591019494000,2.684493896484375,0.1621599942445755,0.024713000282645226,-0.007160000037401915
1772389591039550700,2.70455078125,0.15052799880504608,0.015769999474287033,-0.012128000147640705
1772389591059607800,2.72460791015625,0.007621999830007553,0.02621600031852722,0.05189700052142143
1772389591079664600,2.74466455078125,-0.08750200271606445,0.05537300184369087,0.07831700146198273
1772389591099721700,2.7647216796875,0.044397998601198196,-0.0213019996881485,-0.08294499665498734
1772389591119778600,2.784778564453125,0.15071800351142883,-0.018641000613570213,-0.1991560012102127
1772389591139835600,2.804835693359375,0.039774999022483826,0.002686999971047044,0.013473999686539173
1772389591159892700,2.824892822265625,0.030220000073313713,0.009348999708890915,0.05077899992465973
1772389591179949600,2.844949462890625,0.010576000437140465,-0.038120001554489136,0.004623000044375658
1772389591200006700,2.865006591796875,-0.0739390030503273,-0.0016949999844655395,0.06849800050258636
1772389591220063500,2.8850634765625,-0.009550999850034714,0.005843000020831823,0.11639899760484695
1772389591240120600,2.90512060546875,0.11155799776315689,-0.0217250008136034,-0.04848000034689903
1772389591260177700,2.925177734375,-0.0907529965043068,0.021019000560045242,0.045214999467134476
1772389591280234500,2.945234375,-0.17260199785232544,0.04161600023508072,0.13937200605869293
1772389591300291600,2.96529150390625,-0.01488099992275238,0.000493000028654933,0.01949699968099594
1772389591320348400,2.985348388671875,0.1064940020442009,-0.04200499877333641,-0.06280100345611572
1772389591340405200,3.0054052734375,0.025994999334216118,-0.04480399936437607,-0.003840999910607934
1772389591360462300,3.02546240234375,-0.01760300062596798,0.006554999854415655,0.006525999866425991
1772389591380519400,3.04551953125,-0.03488200157880783,0.0468440018594265,0.07962100207805634
1772389591400576300,3.065576171875,-0.04390599951148033,0.01667499914765358,0.06529700011014938
1772389591420633300,3.08563330078125,-0.05592399835586548,0.021340999752283096,-0.0909620001912117
1772389591440690200,3.105690185546875,-0.08473899960517883,0.04187199845910072,-0.08796899765729904
1772389591460747000,3.1257470703125,-0.07979100197553635,-0.0073020001873373985,0.03842400014400482
1772389591480804000,3.14580419921875,0.04976600036025047,0.02535800077021122,0.0731389969587326
1772389591500861200,3.165861083984375,0.14141300320625305,0.006686000153422356,-0.05828800052404404
1772389591520918000,3.18591796875,0.15312999486923218,-0.05624999850988388,-0.06582999974489212
1772389591540975000,3.20597509765625,0.05530399829149246,-0.04259999841451645,0.027334999293088913
1772389591561032000,3.226031982421875,-0.02855600044131279,0.0235190000385046,0.06026799976825714
1772389591581089000,3.246089111328125,-0.2028450071811676,0.05321500077843666,0.09221400320529938
1772389591601145900,3.266145751953125,-0.17747600376605988,0.05937200039625168,0.13537099957466125
1772389591621202700,3.28620263671875,-0.08678100258111954,0.005098000168800354,0.09309700131416321
1772389591641259800,3.306259765625,-0.09582400321960449,-0.023920999839901924,-0.010320999659597874
1772389591661316900,3.32631689453125,0.0537399984896183,-0.047936998307704926,-0.10185699909925461
1772389591681374000,3.3463740234375,0.2093919962644577,-0.050349000841379166,-0.062286000698804855
1772389591701430800,3.3664306640625,0.2075130045413971,0.0005200000014156103,0.022971000522375107
1772389591721488000,3.38648779296875,0.15241000056266785,0.05961700156331062,0.012776000425219536
1772389591741544700,3.406544677734375,0.011528000235557556,0.03969300165772438,0.0006210000137798488
1772389591761601500,3.4266015625,-0.10197599977254868,-0.01384500041604042,0.10369700193405151
1772389591781658600,3.44665869140625,-0.008781000040471554,0.0057230000384151936,0.034956999123096466
1772389591801715700,3.4667158203125,0.10017400234937668,0.0013790000230073929,-0.050432998687028885
1772389591821772500,3.4867724609375,0.09693899750709534,-0.030097000300884247,0.021252000704407692
1772389591841829600,3.50682958984375,0.03755100071430206,-0.039278000593185425,-0.002196999965235591
1772389591861886500,3.526886474609375,-0.18275800347328186,0.02057800069451332,0.08624099940061569
1772389591881943600,3.546943603515625,-0.17500600218772888,0.010862000286579132,0.07859300076961517
1772389591902000400,3.56700048828125,-0.0056050000712275505,-0.020109999924898148,-0.15552499890327454
1772389591922057200,3.58705712890625,-0.03168400004506111,0.004712000023573637,-0.05561999976634979
1772389591942114300,3.6071142578125,0.06505200266838074,0.05177000164985657,0.08190300315618515
1772389591962171400,3.62717138671875,0.10964199900627136,0.03181599825620651,0.04072299972176552
1772389591982228200,3.647228271484375,-0.10588599741458893,0.003851999994367361,0.03817800059914589
1772389592002285300,3.667285400390625,-0.1591089963912964,0.04548199847340584,0.07054200023412704
1772389592022342100,3.687342041015625,-0.0008870000019669533,-0.024413999170064926,-0.111565001308918
1772389592042399000,3.70739892578125,0.08329000324010849,-0.07953000068664551,-0.07965199649333954
1772389592062456000,3.7274560546875,0.09543199837207794,-0.046025000512599945,-0.0429220013320446
1772389592082513000,3.747512939453125,0.032345000654459,-0.031220000237226486,-0.053536999970674515
1772389592102570000,3.767570068359375,-0.07812300324440002,0.0038240000139921904,0.05476899817585945
1772389592122626800,3.787626708984375,-0.014498000033199787,-0.0009399999980814755,0.042215000838041306
1772389592142684000,3.807683837890625,0.006000000052154064,0.0528470017015934,-0.010227000340819359
1772389592162740700,3.82774072265625,-0.015999000519514084,0.019077999517321587,0.12541800737380981
1772389592182797800,3.8477978515625,0.040800001472234726,0.06566199660301208,0.06993400305509567
1772389592202855000,3.86785498046875,-0.019359000027179718,0.018130000680685043,-0.04965199902653694
1772389592222911700,3.887911865234375,-0.06748700141906738,-0.018295999616384506,0.010677999816834927
1772389592242968600,3.907968505859375,0.050009001046419144,-0.006635999772697687,0.015742000192403793
1772389592263025700,3.928025634765625,0.012807000428438187,0.034690000116825104,-0.10580500215291977
1772389592283082500,3.94808251953125,-0.16175299882888794,-0.03544799983501434,-0.06784400343894958
1772389592303139600,3.9681396484375,-0.141402006149292,-0.0595569983124733,0.008923999965190887
1772389592323196400,3.988196533203125,0.11487700045108795,-0.03964700177311897,-0.10965999960899353
1772389592343253200,4.008253173828125,0.03990200161933899,-0.04131700098514557,-0.0029279999434947968
1772389592363310300,4.028310302734375,-0.040077999234199524,0.043744999915361404,0.10085699707269669
1772389592383367400,4.048367431640625,0.02873699925839901,0.044596001505851746,0.02868499979376793
1772389592403424300,4.06842431640625,-0.0610090009868145,0.03727699816226959,-0.011451000347733498
1772389592423481300,4.0884814453125,-0.018407000228762627,-0.04697699844837189,0.07883799821138382
1772389592443538200,4.1085380859375,0.2228730022907257,-0.025583000853657722,0.011870999820530415
1772389592463595000,4.128594970703125,0.2222989946603775,0.021133000031113625,0.007096000015735626
1772389592483652000,4.148652099609375,0.025039000436663628,-0.011092999950051308,0.057677000761032104
1772389592503709000,4.168708984375,-0.03996799886226654,0.010324999690055847,-0.05545699968934059
1772389592523766000,4.18876611328125,0.06962499767541885,-0.036538999527692795,-0.09636600315570831
1772389592543822800,4.20882275390625,0.09570000320672989,-0.05003099888563156,-0.05549300089478493
1772389592563879700,4.228879638671875,0.12695999443531036,0.06717400252819061,0.08200500160455704
1772389592583936800,4.248936767578125,-0.07843100279569626,0.023339999839663506,0.10560400038957596
1772389592603993600,4.26899365234375,-0.15074500441551208,0.09707099944353104,0.19328300654888153
1772389592624050400,4.289050537109375,-0.13979600369930267,-0.05834199860692024,-0.1245729997754097
1772389592644107500,4.309107421875,-0.01663699932396412,0.005326000042259693,-0.10365799814462662
1772389592664164400,4.329164306640625,0.0906900018453598,0.04026100039482117,0.0458730012178421
1772389592684221400,4.349221435546875,0.1101519986987114,-0.01179100014269352,-0.07130099833011627
1772389592704278300,4.3692783203125,-0.039877999573946,0.0041669998317956924,-0.016240999102592468
1772389592724335400,4.38933544921875,-0.18310199677944183,0.028133999556303024,0.08620599657297134
1772389592744392200,4.40939208984375,-0.08488199859857559,0.008906999602913857,0.005764999892562628
1772389592764449300,4.42944921875,0.12169399857521057,-0.024872999638319016,-0.10258699953556061
1772389592784506000,4.449506103515625,0.10855499655008316,0.0009009999921545386,0.013930000364780426
1772389592804563000,4.46956298828125,-0.10115499794483185,0.04871999844908714,0.13354399800300598
1772389592824620000,4.4896201171875,-0.09212400019168854,0.02377600036561489,0.0532350018620491
1772389592844676900,4.5096767578125,-0.014499000273644924,-0.08657900243997574,-0.10701099783182144
1772389592864734000,4.52973388671875,0.11320000141859055,-0.13646300137043,-0.1048090010881424
1772389592884790800,4.549790771484375,0.19776000082492828,0.03082899935543537,0.021751999855041504
1772389592904847600,4.56984765625,0.11020799726247787,0.06306199729442596,0.11740099638700485
1772389592924904700,4.58990478515625,0.04016600176692009,0.023250000551342964,0.051520999521017075
1772389592944961500,4.60996142578125,-0.0638670027256012,0.028200000524520874,0.05081700161099434
1772389592965018400,4.630018310546875,-0.025492999702692032,0.053759001195430756,0.04225299879908562
1772389592985075500,4.650075439453125,0.1036050021648407,0.010208000428974628,-0.03099600039422512
1772389593005132300,4.67013232421875,0.03888300061225891,0.012165999971330166,-0.1359969973564148
1772389593025189400,4.690189453125,-0.10489200055599213,0.024932000786066055,-0.03439699858427048
1772389593045246200,4.71024609375,-0.039914000779390335,0.044746000319719315,0.07968100160360336
1772389593065303300,4.73030322265625,0.16006800532341003,-0.0066019999794662,-0.0722540020942688
1772389593085360000,4.750360107421875,0.06645400077104568,-0.04128099977970123,-0.005803000181913376
1772389593105417000,4.7704169921875,-0.07323499768972397,-0.08902499824762344,0.022556999698281288
1772389593125474000,4.79047412109375,-0.12338799983263016,-0.023220999166369438,-0.013154000043869019
1772389593145531100,4.81053125,0.04288899898529053,-0.05297600105404854,-0.0025229998864233494
1772389593165588000,4.830587890625,-0.0024880000855773687,-0.021580999717116356,0.037980999797582626
1772389593185645000,4.85064501953125,-0.1603900045156479,0.07713499665260315,0.1663839966058731
1772389593205702000,4.870701904296875,-0.053911998867988586,0.0689070001244545,0.12750700116157532
1772389593225758700,4.8907587890625,0.05606900155544281,-0.015273000113666058,-0.06119300052523613
1772389593245815800,4.91081591796875,-0.025544000789523125,-0.0010179999517276883,0.03344399854540825
1772389593265872600,4.93087255859375,0.08436399698257446,0.04158399999141693,0.057955000549554825
1772389593285929500,4.950929443359375,0.22909100353717804,0.01406800001859665,-0.04403499886393547
1772389593305986600,4.970986572265625,0.1488730013370514,0.07845400273799896,0.02397100068628788
1772389593326043400,4.99104345703125,-0.11530099809169769,-0.010034999810159206,0.011977000162005424
1772389593346100200,5.011100341796875,-0.29704099893569946,-0.15762899816036224,-0.2664180099964142
1772389593366157300,5.0311572265625,-0.030432000756263733,0.045896001160144806,-0.07873400300741196
1772389593386214100,5.051214111328125,0.11565300077199936,0.031116999685764313,0.11861199885606766
1772389593406271200,5.071271240234375,0.1589220017194748,-0.02310599945485592,0.04128900170326233
1772389593426328000,5.091328125,0.12393800169229507,-0.0032850001007318497,0.06583099812269211
1772389593446385200,5.11138525390625,-0.008049000054597855,0.028571000322699547,0.09266500174999237
1772389593466442000,5.13144189453125,0.08476000279188156,-0.019541999325156212,0.0797320008277893
1772389593486498800,5.151498779296875,0.05500800162553787,0.053164999932050705,0.04698599874973297
1772389593506555600,5.1715556640625,-0.03439300134778023,-0.016666999086737633,-0.008810999803245068
1772389593526612700,5.19161279296875,0.04128500074148178,0.06506499648094177,0.15055100619792938
1772389593546669600,5.211669677734375,-0.11257100105285645,-0.030347000807523727,-0.09235899895429611
1772389593566726700,5.2317265625,-0.21885700523853302,0.006920999847352505,-0.06668700277805328
1772389593586783500,5.251783447265625,-0.11748500168323517,0.020736999809741974,0.05225000157952309
1772389593606840300,5.27184033203125,0.13961100578308105,0.0565899983048439,-0.025398999452590942
1772389593626897400,5.2918974609375,0.25568899512290955,-0.025926999747753143,-0.04111900180578232
1772389593646954200,5.311954345703125,0.14855100214481354,0.0368570014834404,-0.03849500045180321
1772389593667011000,5.332010986328125,-0.020357999950647354,0.022285999730229378,-0.00039599998854100704
1772389593687068000,5.35206787109375,-0.0010870000114664435,-0.024569999426603317,0.010882000438869
1772389593707125000,5.372125,0.04473000019788742,0.0547420009970665,-0.0008929999894462526
1772389593727181800,5.392181884765625,0.0165839996188879,0.026993999257683754,0.011284999549388885
1772389593747238700,5.41223876953125,-0.09153199940919876,-0.04000300168991089,0.0354279987514019
1772389593767295700,5.432295654296875,-0.0620260015130043,-0.029603000730276108,0.04354200139641762
1772389593787352600,5.4523525390625,0.009579000063240528,-0.014081999659538269,-0.0011660000309348106
1772389593807409700,5.47240966796875,-0.013136000372469425,-0.013666000217199326,0.07186699658632278
1772389593827466500,5.492466552734375,0.03508999943733215,0.016265999525785446,0.08229299634695053
1772389593847523300,5.5125234375,0.0976720005273819,0.017013000324368477,0.008233999833464622
1772389593867580400,5.532580322265625,0.012538000009953976,-0.01918799988925457,-0.02221200056374073
1772389593887637200,5.55263720703125,-0.06436900049448013,0.024647999554872513,0.02622999995946884
1772389593907694000,5.572694091796875,-0.07629500329494476,0.030919000506401062,0.005783999804407358
1772389593927751200,5.592751220703125,0.042162999510765076,-0.028862999752163887,-0.11937200278043747
1772389593947808000,5.61280810546875,0.13693000376224518,-0.0038900000508874655,-0.12429700046777725
1772389593967864800,5.63286474609375,0.0679439976811409,0.020085999742150307,0.08776099979877472
1772389593987921700,5.652921630859375,-0.08804400265216827,0.03926900029182434,0.04380900040268898
1772389594007978800,5.672978759765625,-0.05683499947190285,-0.012583999894559383,-0.06655199825763702
1772389594028035600,5.69303564453125,0.08093100041151047,-0.027667000889778137,-0.08604200184345245
1772389594048092700,5.7130927734375,0.0607450008392334,-0.018132999539375305,0.02716599963605404
1772389594068149500,5.7331494140625,-0.07380300015211105,0.05989199876785278,0.1041330024600029
1772389594088206300,5.753206298828125,-0.04544299840927124,0.0023129999171942472,0.0737060010433197
1772389594108263400,5.773263427734375,-0.0019539999775588512,0.009050999768078327,-0.004234000109136105
1772389594128320300,5.7933203125,-0.03836299851536751,-0.013558999635279179,0.027011999860405922
1772389594148377000,5.813377197265625,0.0061079999431967735,-0.00684799998998642,0.027209000661969185
1772389594168434200,5.83343408203125,0.08168700337409973,-0.024677999317646027,-0.0334319993853569
1772389594188491000,5.853490966796875,0.07654999941587448,-0.02934199944138527,0.01885399967432022
1772389594208547800,5.8735478515625,0.2524389922618866,0.04132499918341637,-0.009716000407934189
1772389594228605000,5.89360498046875,0.34595099091529846,0.037060000002384186,-0.01737299934029579
1772389594248661800,5.913661865234375,0.20396099984645844,0.008848000317811966,0.013300999999046326
1772389594268718800,5.93371875,-0.011230000294744968,-0.016119999811053276,-0.001357999979518354
1772389594288775700,5.953775634765625,-0.2345840036869049,0.011901999823749065,0.0029120000544935465
1772389594308832500,5.97383251953125,-0.28766700625419617,0.06872200220823288,-0.008868999779224396
1772389594328889300,5.993889404296875,-0.1765339970588684,-0.00022200000239536166,-0.026295000687241554
1772389594348946200,6.0139462890625,-0.0284269992262125,-0.015376999974250793,-0.015436000190675259
1772389594369003000,6.0340029296875,0.008457999676465988,0.004497000016272068,0.08365000039339066
1772389594389060000,6.05406005859375,0.07716599851846695,-0.03640099987387657,0.09331999719142914
1772389594409117000,6.074116943359375,0.12333299964666367,-0.02112100087106228,0.055456001311540604
1772389594429174000,6.094174072265625,0.02026600018143654,0.031103000044822693,0.041165001690387726
1772389594449230800,6.11423095703125,-0.11978600174188614,0.04568200185894966,0.057732000946998596
1772389594469287700,6.13428759765625,-0.08222900331020355,0.02854599989950657,0.06538499891757965
1772389594489344500,6.154344482421875,0.02781599946320057,0.013237000443041325,0.04030799865722656
1772389594509401600,6.174401611328125,0.14065299928188324,-0.055810000747442245,-0.0437530018389225
1772389594529458400,6.19445849609375,0.09572199732065201,-0.07584799826145172,-0.11180199682712555
1772389594549515500,6.214515625,-0.042621999979019165,-0.031877998262643814,0.01935799978673458
1772389594569572400,6.234572265625,0.006701999809592962,-0.007903000339865685,0.03708599880337715
1772389594589629200,6.254629150390625,0.022160999476909637,-0.011921999976038933,-0.047129999846220016
1772389594609686300,6.274686279296875,-0.01827000081539154,0.022461000829935074,-0.00890399981290102
1772389594629743000,6.2947431640625,-0.007416000124067068,0.06036899983882904,0.027276000007987022
1772389594649800000,6.314800048828125,-0.028332000598311424,0.07469499856233597,0.06421999633312225
1772389594669856800,6.334856689453125,-0.07866600155830383,0.04455599933862686,0.060975998640060425
1772389594689913600,6.35491357421875,0.05386599898338318,0.03404499962925911,0.0007810000097379088
1772389594709970700,6.374970703125,0.19269299507141113,0.0040350002236664295,-0.06657399982213974
1772389594730027500,6.395027587890625,0.1429540067911148,-0.015970999374985695,-0.07245899736881256
1772389594750084400,6.41508447265625,-0.08323600143194199,-0.018377000465989113,-0.06596799939870834
1772389594770141400,6.435141357421875,-0.17938800156116486,0.012497999705374241,0.0448249988257885
1772389594790198300,6.4551982421875,-0.09951099753379822,0.0059980000369250774,0.032660000026226044
1772389594810255000,6.475255126953125,0.023591000586748123,-0.016800999641418457,0.0029279999434947968
1772389594830312000,6.49531201171875,0.11487200111150742,-0.02064099907875061,0.06554199755191803
1772389594850369000,6.515369140625,0.13749800622463226,0.03548699989914894,0.11163400113582611
1772389594870425900,6.53542578125,-0.02040099911391735,-0.004410000052303076,0.11650700122117996
1772389594890482400,6.555482421875,-0.08912099897861481,-0.04192899912595749,0.13160499930381775
1772389594910539500,6.57553955078125,0.10550300031900406,-0.023941999301314354,0.05488400161266327
1772389594930596400,6.595596435546875,0.10920199751853943,-0.0231539998203516,-0.05369200184941292
1772389594950653200,6.615653076171875,-0.10463699698448181,-0.03532300144433975,-0.018153000622987747
1772389594970710300,6.635710205078125,-0.08930999785661697,0.04774099960923195,0.023876000195741653
1772389594990767000,6.65576708984375,-0.015448000282049179,0.06299400329589844,-0.005698000080883503
1772389595010824000,6.675823974609375,0.01804099977016449,0.06399500370025635,0.02024099975824356
1772389595030881000,6.695881103515625,0.05843299999833107,0.04559599980711937,-0.03500699996948242
1772389595050937900,6.715937744140625,0.04274599999189377,0.07087600231170654,-0.0760049968957901
1772389595070994700,6.73599462890625,-0.05140199884772301,0.049501001834869385,-0.011203999631106853
1772389595091051500,6.756051513671875,-0.04912199825048447,-0.023598000407218933,0.025436000898480415
1772389595111108400,6.7761083984375,-0.037696998566389084,-0.00367900007404387,-0.00044999999227002263
1772389595131165200,6.796165283203125,0.09304100275039673,-0.0261439997702837,-0.10035999864339828
1772389595151222300,6.81622216796875,0.028032999485731125,-0.0033140000887215137,-0.07068800181150436
1772389595171279000,6.836279052734375,-0.09597299993038177,0.03734700009226799,0.14664900302886963
1772389595191336000,6.8563359375,-0.04077799990773201,0.01787799969315529,0.10371900349855423
1772389595211393000,6.87639306640625,0.02497600018978119,-0.05209700018167496,-0.09462399780750275
1772389595231449900,6.896449951171875,0.06398099660873413,-0.07047799974679947,-0.039698999375104904
1772389595251506700,6.916506591796875,0.024785000830888748,-0.0395830012857914,0.07784000039100647
1772389595271563800,6.936563720703125,-0.051371000707149506,0.002733000088483095,0.07747200131416321
1772389595291620600,6.95662060546875,-0.06829699873924255,0.03898699954152107,0.05957699939608574
1772389595311677400,6.976677490234375,0.014960999600589275,0.013589000329375267,0.06686200201511383
1772389595331734300,6.996734375,0.1127690002322197,-0.05952800065279007,-0.015309999696910381
1772389595351791000,7.016791015625,0.07501500099897385,-0.04602200165390968,-0.07144799828529358
1772389595371848000,7.036847900390625,0.10081200301647186,0.0167820006608963,0.03244100138545036
1772389595391905000,7.056905029296875,0.09745000302791595,0.06542500108480453,0.06275299936532974
1772389595411961900,7.0769619140625,-0.023639999330043793,0.04434100165963173,-0.028196999803185463
1772389595432018700,7.097018798828125,0.027487000450491905,0.02587299980223179,-0.11295700073242188
1772389595452075500,7.117075439453125,0.06038999930024147,0.026297999545931816,-0.08236599713563919
1772389595472132400,7.13713232421875,-0.002087000058963895,0.015438999980688095,-0.0050929998978972435
1772389595492189400,7.157189453125,0.01032899972051382,-0.022048000246286392,-0.005673999898135662
1772389595512246300,7.177246337890625,-0.020535999909043312,-0.03843799978494644,-0.05653899908065796
1772389595532303000,7.19730322265625,-0.0508279986679554,-0.02914999984204769,-0.03963100165128708
1772389595552360000,7.21735986328125,-0.019863000139594078,-0.02332100085914135,0.01869400031864643
1772389595572417000,7.2374169921875,-0.05988999828696251,-0.0010560000082477927,0.09095499664545059
1772389595592473600,7.2574736328125,-0.011912000365555286,0.048753999173641205,0.09436400234699249
1772389595612530400,7.277530517578125,0.052069999277591705,0.023802999407052994,0.04269099980592728
1772389595632587500,7.29758740234375,0.06085599958896637,-0.011357000097632408,0.058952998369932175
1772389595652644400,7.317644287109375,0.1598840057849884,-0.005886000115424395,0.024762000888586044
1772389595672701200,7.337701171875,0.2159080058336258,-0.03110799938440323,-0.09379000216722488
1772389595692758300,7.35775830078125,0.26632601022720337,-0.057686999440193176,-0.09023100137710571
1772389595712815000,7.377815185546875,0.20026099681854248,0.036249998956918716,-0.020184999331831932
1772389595732872000,7.397871826171875,-0.07739099860191345,0.06579899787902832,0.025451000779867172
1772389595752928800,7.4179287109375,-0.3267120122909546,0.059838999062776566,-0.021237999200820923
1772389595772985600,7.437985595703125,-0.33976998925209045,0.03827099874615669,-0.03458999842405319
1772389595793042700,7.458042724609375,-0.18141600489616394,0.015417000278830528,-0.06207200139760971
1772389595813099500,7.478099609375,0.025266999378800392,0.021933000534772873,0.04234100133180618
1772389595833156000,7.498156005859375,0.05621299892663956,-0.012853000313043594,0.14267300069332123
1772389595853213200,7.518213134765625,0.09297099709510803,0.016116999089717865,0.12773799896240234
1772389595873270000,7.53827001953125,0.07277599722146988,0.012892999686300755,0.02938999980688095
1772389595893326800,7.558326904296875,0.023821000009775162,-0.012884999625384808,-0.04368700087070465
1772389595913384000,7.578384033203125,0.08945699781179428,-0.03670699894428253,-0.03814899921417236
1772389595933440800,7.598440673828125,0.15636500716209412,-0.027766000479459763,-0.00812000036239624
1772389595953497600,7.61849755859375,0.03309199959039688,0.020186999812722206,-0.06569600105285645
1772389595973554200,7.63855419921875,-0.11192499846220016,0.06574899703264236,-0.02935599908232689
1772389595993611000,7.658611083984375,-0.06474000215530396,0.07179900258779526,-0.0178849995136261
1772389596013668000,7.678668212890625,-0.05499200150370598,-0.020958999171853065,-0.000707999977748841
1772389596033725000,7.698724853515625,0.05120600014925003,0.008031000383198261,-0.014166000299155712
1772389596053781800,7.71878173828125,0.2209639996290207,0.006424999795854092,-0.0017330000409856439
1772389596073838800,7.7388388671875,0.12717099487781525,-0.025258999317884445,0.07141300290822983
1772389596093895400,7.7588955078125,-0.0990620031952858,-0.013007000088691711,0.003530000103637576
1772389596113952500,7.778952392578125,-0.0944489985704422,0.007193999830633402,-0.05477499961853027
1772389596134009300,7.79900927734375,0.04123999923467636,0.05375400185585022,-0.0094200000166893
1772389596154066200,7.819066162109375,0.09379199892282486,-0.041795000433921814,0.004463000223040581
1772389596174123000,7.839123046875,0.07343299686908722,-0.059836000204086304,-0.058028001338243484
1772389596194179800,7.859179931640625,-0.11405300348997116,0.03053000010550022,0.04957599937915802
1772389596214236700,7.879236572265625,-0.08484199643135071,0.010824999772012234,0.0892610028386116
1772389596234293500,7.89929345703125,0.08332599699497223,-0.03853899985551834,-0.03418999910354614
1772389596254350600,7.9193505859375,0.10506000369787216,-0.06923100352287292,-0.01775199919939041
1772389596274407400,7.939407470703125,0.05524799972772598,-0.0169840008020401,0.05139800161123276
1772389596294464300,7.95946435546875,-0.07259999960660934,0.033612001687288284,0.006717999931424856
1772389596314521000,7.97952099609375,-0.14448000490665436,0.02368899993598461,0.046973999589681625
1772389596334578000,7.999577880859375,-0.01398400031030178,0.022151000797748566,0.06237899884581566
1772389596354635000,8.019635009765626,0.17041200399398804,0.006521000061184168,-0.06849599629640579
1772389596374691800,8.03969189453125,0.07712899893522263,-0.009983000345528126,-0.08359599858522415
1772389596394748700,8.059748779296875,-0.03829599916934967,0.0072130002081394196,-0.022877000272274017
1772389596414805500,8.079805419921875,0.05816299840807915,0.02896999940276146,-0.0071020000614225864
1772389596434862300,8.0998623046875,0.009730000048875809,0.011176999658346176,-0.001680999994277954
1772389596454919200,8.119919189453125,-0.14741499722003937,-0.051858000457286835,-0.03014500066637993
1772389596474976000,8.13997607421875,-0.09473200142383575,-0.034286998212337494,-0.06571599841117859
1772389596495033000,8.160033203125,0.10581299662590027,0.005369999911636114,-0.01097199972718954
1772389596515090000,8.18008984375,0.019850999116897583,0.019494999200105667,0.05122099816799164
1772389596535146500,8.200146484375,-0.0377190001308918,0.023594999685883522,0.0673770010471344
1772389596555203600,8.22020361328125,-0.04377499967813492,0.010877000167965889,-0.005297999829053879
1772389596575260400,8.240260498046876,-0.16301999986171722,-0.01609800010919571,-0.061838001012802124
1772389596595317000,8.26031689453125,-0.09601599723100662,0.010320000350475311,0.028929000720381737
1772389596615373800,8.280373779296875,0.19278700649738312,0.01945599913597107,0.00634300010278821
1772389596635431000,8.300430908203126,0.10702899843454361,-0.01323499996215105,-0.10852500051259995
1772389596655487700,8.32048779296875,-0.21517600119113922,-0.04098699986934662,-0.04442000016570091
1772389596675544600,8.340544677734375,-0.19534100592136383,-0.03438999876379967,0.0772629976272583
1772389596695601200,8.36060107421875,-0.029872000217437744,0.002887000096961856,0.010610999539494514
1772389596715658200,8.380658203125,0.008901000022888184,-0.03209000080823898,-0.06271100044250488
1772389596735715000,8.400715087890624,0.09912099689245224,0.006326999980956316,0.017030000686645508
1772389596755772000,8.42077197265625,0.247297003865242,0.021060999482870102,0.08402399718761444
1772389596775829000,8.4408291015625,0.0810369998216629,-0.008748999796807766,0.09281899780035019
1772389596795885600,8.460885498046874,-0.07836899906396866,0.04899900034070015,-0.029743999242782593
1772389596815942400,8.4809423828125,-0.05149500072002411,0.031199999153614044,-0.08299499750137329
1772389596835999500,8.50099951171875,-0.06439600139856339,-0.05743899941444397,-0.03359600156545639
1772389596856056300,8.521056396484376,0.0004820000031031668,-0.0035510000307112932,0.013123000040650368
1772389596876113200,8.541113037109374,0.12118600308895111,0.04675799980759621,0.004898000042885542
1772389596896170000,8.561169921875,0.14254899322986603,-0.05619199946522713,-0.04968100041151047
1772389596916226800,8.581226806640625,0.11243899911642075,-0.08095300197601318,-0.19654500484466553
1772389596936283600,8.60128369140625,-0.17484800517559052,0.028836999088525772,0.010762999765574932
1772389596956340700,8.6213408203125,-0.35587799549102783,0.061468999832868576,0.21741099655628204
1772389596976397300,8.641397216796875,-0.16230200231075287,0.05877399817109108,0.06272800266742706
1772389596996454100,8.6614541015625,0.09815700352191925,-0.03777899965643883,-0.13141599297523499
1772389597016511200,8.68151123046875,0.0977260023355484,-0.10862299799919128,-0.11313299834728241
1772389597036568000,8.701568115234375,0.08218000084161758,-0.023698000237345695,-0.012106000445783138
1772389597056624600,8.721624755859375,-0.011055000126361847,0.03064100071787834,0.10551399737596512
1772389597076681700,8.741681640625,-0.10484399646520615,0.04371299967169762,0.09801100194454193
1772389597096738600,8.761738525390625,-0.012675000354647636,0.07737000286579132,0.04000899940729141
1772389597116795100,8.781795166015625,0.12345899641513824,-0.05330299958586693,-0.12479200214147568
1772389597136852200,8.801852294921876,0.12756699323654175,-0.05384200066328049,-0.09423299878835678
1772389597156909000,8.821908935546874,0.09245400130748749,0.06412599980831146,-0.0009869999485090375
1772389597176966000,8.8419658203125,0.12036299705505371,0.07050099968910217,0.05121000111103058
1772389597197022700,8.862022705078125,0.09628999978303909,-0.05879800021648407,0.02576800063252449
1772389597217079600,8.88207958984375,-0.026166999712586403,-0.054239001125097275,-0.11378499865531921
1772389597237136400,8.902136474609375,0.03266499936580658,-0.0073899999260902405,-0.07982800155878067
1772389597257193200,8.922193115234375,-0.04106700047850609,-0.011512000113725662,0.0745370015501976
1772389597277250300,8.942250244140626,-0.013652999885380268,-0.0036100000143051147,0.0980290025472641
1772389597297307000,8.962306884765624,0.049876000732183456,0.01471100002527237,-0.02717600017786026
1772389597317363700,8.98236376953125,-0.06329800188541412,0.03096799924969673,0.09745900332927704
1772389597337420500,9.002420654296875,-0.14983800053596497,0.009575000032782555,0.07956700026988983
1772389597357477600,9.0224775390625,-0.02227099984884262,0.030060000717639923,-0.0803460031747818
1772389597377534200,9.0425341796875,0.09098300337791443,-0.031151000410318375,-0.054676998406648636
1772389597397591300,9.06259130859375,-0.011212999932467937,-0.00012099999730708078,-0.022141000255942345
1772389597417648000,9.082648193359375,-0.024170000106096268,0.05510300025343895,-0.07371299713850021
1772389597437705000,9.102705078125,0.026263000443577766,-0.02231699973344803,-0.1389700025320053
1772389597457761500,9.122761474609375,0.04021000117063522,-0.02185400016605854,-0.03277600184082985
1772389597477818600,9.142818603515625,0.0745680034160614,0.041714999824762344,0.00977800041437149
1772389597497875500,9.16287548828125,0.017254000529646873,0.03177199885249138,-0.03377699851989746
1772389597517932300,9.182932373046874,-0.1237960010766983,-0.005781000014394522,0.05297800153493881
1772389597537988900,9.20298876953125,-0.08223599940538406,0.041774000972509384,0.10798200219869614
1772389597558046000,9.2230458984375,0.10300999879837036,0.03102000057697296,0.0991860032081604
1772389597578102800,9.243102783203126,0.04800799861550331,-0.049584001302719116,0.0009490000084042549
1772389597598159400,9.263159423828125,-0.1071930006146431,0.017930999398231506,-0.028039999306201935
1772389597618216400,9.283216552734375,0.061445001512765884,-0.029652999714016914,-0.0032319999299943447
1772389597638273300,9.303273193359376,0.07395599782466888,-0.010122000239789486,0.0014140000566840172
1772389597658330000,9.323330078125,-0.06083500012755394,0.07990100234746933,0.010731000453233719
1772389597678387000,9.343386962890625,0.04493099823594093,0.029519999399781227,-0.0186149999499321
1772389597698443800,9.36344384765625,0.1639450043439865,-0.05478199943900108,-0.11009100079536438
1772389597718500600,9.38350048828125,0.022355999797582626,-0.05022599920630455,-0.08087299764156342
1772389597738557400,9.403557373046874,-0.006914000026881695,0.027017999440431595,0.06970100104808807
1772389597758614300,9.4236142578125,0.02486800029873848,0.027215000241994858,0.05415999889373779
1772389597778671000,9.443671142578125,-0.012904999777674675,-0.022227000445127487,-0.019871000200510025
1772389597798728000,9.46372802734375,0.0016749999485909939,-0.05218200013041496,-0.04869600012898445
1772389597818785000,9.483784912109375,-0.05865899845957756,-0.026544999331235886,0.11384200304746628
1772389597838841600,9.503841552734375,-0.04852699860930443,0.05556200072169304,0.08147300034761429
1772389597858898400,9.5238984375,-0.015620999969542027,0.021250000223517418,0.05557800084352493
1772389597878955300,9.543955322265624,0.12350200116634369,-0.009398999623954296,0.018062999472022057
1772389597899012400,9.564012451171875,0.11960099637508392,0.009279999881982803,-0.029549000784754753
1772389597919069000,9.58406884765625,-0.0019180000526830554,-0.03257500007748604,-0.023638999089598656
1772389597939125800,9.604125732421876,-0.019133999943733215,-0.00686000008136034,-0.0669109970331192
1772389597959182600,9.6241826171875,-0.18890699744224548,0.04250999912619591,-0.07672899961471558
1772389597979239700,9.64423974609375,-0.0823260024189949,-0.04839099943637848,-0.07658299803733826
1772389597999296300,9.664296142578126,0.16773800551891327,-0.030712999403476715,0.030733000487089157
1772389598019353000,9.68435302734375,0.20459100604057312,0.05542900040745735,-0.04821300134062767
1772389598039410200,9.70441015625,0.031672000885009766,-0.0708559975028038,-0.04416999965906143
1772389598059466800,9.724466796875,0.18613800406455994,0.029714999720454216,0.0374629981815815
1772389598079523800,9.74452392578125,-0.051888998597860336,-0.005026999861001968,0.1355700045824051
1772389598099580700,9.76458056640625,0.12888799607753754,-0.08242200314998627,0.11565600335597992
1772389598119637500,9.784637451171875,0.2623099982738495,-0.021936999633908272,-0.01867399923503399
1772389598139693300,9.804693359375,-0.2173510044813156,0.09205000102519989,-0.024538999423384666
