time,seconds_elapsed,z,y,x
1772389588592599000,0.25759912109375,0.09721250087022781,0.0008249999955296516,0.09075000137090683
1772389588612655900,0.27765576171875,0.0705375000834465,-0.031212499365210533,0.050324998795986176
1772389588632713000,0.297712890625,0.057750001549720764,-0.004537499975413084,0.04496249929070473
1772389588652770000,0.31777001953125,0.06311249732971191,-0.010862499475479126,0.08868750184774399
1772389588672827000,0.337826904296875,0.029012499377131462,-0.031212499365210533,0.09721250087022781
1772389588692884000,0.357884033203125,0.05678749829530716,0.0625625029206276,0.18246249854564667
1772389588712940800,0.37794091796875,0.06627500057220459,0.0849749967455864,0.2143625020980835
1772389588732998000,0.397997802734375,0.0193875003606081,0.02736249938607216,0.08648750185966492
1772389588753054700,0.4180546875,0.020487500354647636,-0.00989999994635582,0.004537499975413084
1772389588773111600,0.438111572265625,0.04606249928474426,-0.06531249731779099,-0.045512501150369644
1772389588793168600,0.458168701171875,0.05458749830722809,-0.09831249713897705,-0.05939999967813492
1772389588813225700,0.478225830078125,0.055687498301267624,-0.11742500215768814,-0.02213750034570694
1772389588833282600,0.498282470703125,0.04606249928474426,-0.11852499842643738,-0.0008249999955296516
1772389588853339400,0.51833935546875,0.023649999871850014,-0.12058749794960022,0.006599999964237213
1772389588873396500,0.538396484375,0.03437500074505806,-0.1046374961733818,0.03973750025033951
1772389588893453300,0.558453369140625,0.04496249929070473,-0.12484999746084213,0.06311249732971191
1772389588913510400,0.578510498046875,0.008799999952316284,-0.12815000116825104,0.08868750184774399
1772389588933567500,0.5985673828125,-0.003987499978393316,-0.05884999781847,0.1919499933719635
1772389588953624300,0.618624267578125,0.00989999994635582,-0.0034374999813735485,0.28888750076293945
1772389588973681400,0.638681396484375,0.033275000751018524,-0.01732499897480011,0.20377500355243683
1772389588993738200,0.65873828125,0.0471624992787838,-0.011962499469518661,0.07273750007152557
1772389589013795000,0.678795166015625,0.050324998795986176,-0.04399999976158142,-0.017875000834465027
1772389589033852200,0.69885205078125,0.042899999767541885,-0.04179999977350235,-0.05829999968409538
1772389589053909000,0.718908935546875,0.0471624992787838,-0.006599999964237213,-0.03698749840259552
1772389589073966000,0.738966064453125,0.027912499383091927,0.028462499380111694,0.011962499469518661
1772389589094023200,0.759023193359375,0.025849999859929085,0.08387500047683716,0.059950001537799835
1772389589114080000,0.779080078125,0.016224998980760574,0.060499999672174454,0.029012499377131462
1772389589134137000,0.79913720703125,-0.01677500084042549,0.03272499889135361,-0.06902500241994858
1772389589154194000,0.81919384765625,-0.0147124994546175,0.03272499889135361,-0.07961250096559525
1772389589174251000,0.8392509765625,-0.021037500351667404,0.03162499889731407,-0.035887498408555984
1772389589194308000,0.85930810546875,-0.017875000834465027,0.043449997901916504,0.008799999952316284
1772389589214365000,0.879364990234375,-0.01677500084042549,0.03918749839067459,0.0056374999694526196
1772389589234422000,0.899422119140625,-0.04235000163316727,-0.015124999918043613,-0.040150001645088196
1772389589254478800,0.919478759765625,-0.06476250290870667,-0.055687498301267624,-0.05403750017285347
1772389589274536000,0.939535888671875,-0.05403750017285347,-0.06104999780654907,-0.023237500339746475
1772389589294593000,0.959593017578125,-0.04661250114440918,-0.07383749634027481,-0.005087499972432852
1772389589314649900,0.97964990234375,-0.038087498396635056,-0.08016250282526016,0.03217500075697899
1772389589334707000,0.99970703125,-0.021037500351667404,-0.09927500039339066,0.07699999958276749
1772389589354763800,1.019763671875,-0.01677500084042549,-0.1461624950170517,0.09721250087022781
1772389589374820900,1.03982080078125,-0.02419999986886978,-0.18988749384880066,0.12278749793767929
1772389589394877700,1.059877685546875,-0.01993750035762787,-0.24213749170303345,0.16747500002384186
1772389589414934800,1.079934814453125,-0.011412499472498894,-0.2484624981880188,0.19415000081062317
1772389589434991900,1.099991943359375,0.015124999918043613,-0.21230000257492065,0.18136249482631683
1772389589455049000,1.120049072265625,0.00989999994635582,-0.16224999725818634,0.08868750184774399
1772389589475105800,1.140105712890625,0.0056374999694526196,-0.08758749812841415,0.04399999976158142
1772389589495162600,1.16016259765625,0.007699999958276749,-0.0695749968290329,0.030112499371170998
1772389589515219700,1.1802197265625,-0.0019249999895691872,-0.07699999958276749,-0.02956249937415123
1772389589535276800,1.20027685546875,0.00989999994635582,-0.07273750007152557,-0.04661250114440918
1772389589555333600,1.220333740234375,0.0013749999925494194,-0.048262499272823334,-0.015675000846385956
1772389589575390700,1.240390625,-0.010449999943375587,-0.023649999871850014,0.029012499377131462
1772389589595447800,1.26044775390625,-0.011412499472498894,0.005087499972432852,0.03753750026226044
1772389589615504600,1.280504638671875,-0.015675000846385956,0.01677500084042549,0.0013749999925494194
1772389589635561700,1.300561767578125,-0.025299999862909317,0.009349999949336052,-0.03492499887943268
1772389589655618600,1.32061865234375,-0.018837500363588333,0.02419999986886978,0.0002749999985098839
1772389589675675600,1.340675537109375,0.002337499987334013,0.030662499368190765,0.0056374999694526196
1772389589695732700,1.360732666015625,-0.009349999949336052,0.030662499368190765,-0.030662499368190765
1772389589715789600,1.38078955078125,-0.0147124994546175,0.03492499887943268,-0.02213750034570694
1772389589735846400,1.400846435546875,-0.005087499972432852,0.04661250114440918,-0.0008249999955296516
1772389589755903500,1.420903564453125,-0.013612499460577965,0.04661250114440918,-0.025299999862909317
1772389589775960300,1.440960205078125,-0.017875000834465027,0.03698749840259552,-0.03272499889135361
1772389589796017400,1.461017333984375,-0.0028874999843537807,0.04235000163316727,-0.003987499978393316
1772389589816074500,1.481074462890625,0.0013749999925494194,0.040150001645088196,0.0002749999985098839
1772389589836131300,1.50113134765625,-0.007149999961256981,0.017875000834465027,0.0013749999925494194
1772389589856188400,1.5211884765625,-0.015675000846385956,0.026399999856948853,0.00989999994635582
1772389589876245200,1.541245361328125,-0.01251249946653843,0.026399999856948853,0.033275000751018524
1772389589896302300,1.56130224609375,-0.0147124994546175,0.028462499380111694,0.022687500342726707
1772389589916359200,1.581359130859375,-0.009349999949336052,0.028462499380111694,0.00989999994635582
1772389589936416300,1.601416259765625,0.0002749999985098839,-0.002337499987334013,0.006599999964237213
1772389589956473300,1.621473388671875,-0.005087499972432852,-0.010862499475479126,0.021587500348687172
1772389589976530200,1.6415302734375,0.011962499469518661,0.0008249999955296516,0.07590000331401825
1772389589996587300,1.661587158203125,0.018424998968839645,0.0028874999843537807,0.08442500233650208
1772389590016644400,1.681644287109375,0.01732499897480011,0.017875000834465027,0.06531249731779099
1772389590036701200,1.701701171875,0.0193875003606081,0.005087499972432852,0.03217500075697899
1772389590056758300,1.72175830078125,0.004537499975413084,-0.023649999871850014,-0.02213750034570694
1772389590076815000,1.741815185546875,-0.0019249999895691872,-0.01732499897480011,-0.035887498408555984
1772389590096872200,1.7618720703125,0.01732499897480011,0.003987499978393316,0.00989999994635582
1772389590116929300,1.78192919921875,0.006599999964237213,-0.025849999859929085,-0.009349999949336052
1772389590136986400,1.801986328125,-0.008249999955296516,-0.030112499371170998,-0.026399999856948853
1772389590157043200,1.822043212890625,0.0013749999925494194,-0.01732499897480011,0.004537499975413084
1772389590177100300,1.842100341796875,0.0013749999925494194,-0.027912499383091927,0.021587500348687172
1772389590197157400,1.862157470703125,-0.01251249946653843,-0.035475000739097595,0.03863750025629997
1772389590217214200,1.882214111328125,-0.0147124994546175,-0.014162499457597733,0.07163749635219574
1772389590237271000,1.90227099609375,-0.015675000846385956,-0.03753750026226044,0.04399999976158142
1772389590257328400,1.922328369140625,-0.009349999949336052,-0.05348749831318855,0.014162499457597733
1772389590277385200,1.94238525390625,0.00989999994635582,-0.04399999976158142,0.0364375002682209
1772389590297442300,1.9624423828125,0.008799999952316284,-0.010862499475479126,0.0471624992787838
1772389590317499100,1.9824990234375,-0.003987499978393316,0.007149999961256981,0.030112499371170998
1772389590337556000,2.002555908203125,-0.01251249946653843,0.009349999949336052,0.0056374999694526196
1772389590357613300,2.02261328125,-0.0008249999955296516,0.0028874999843537807,0.0034374999813735485
1772389590377670100,2.042670166015625,0.0056374999694526196,-0.01732499897480011,-0.007149999961256981
1772389590397727000,2.06272705078125,-0.01677500084042549,0.0028874999843537807,-0.008249999955296516
1772389590417784000,2.0827841796875,-0.0147124994546175,0.01251249946653843,0.027912499383091927
1772389590437841200,2.102841064453125,-0.0028874999843537807,0.0008249999955296516,0.0471624992787838
1772389590457898200,2.122898193359375,-0.010449999943375587,0.008249999955296516,0.05884999781847
1772389590477955000,2.142955078125,-0.005087499972432852,-0.002337499987334013,0.07369999587535858
1772389590498012200,2.16301220703125,0.0002749999985098839,-0.006599999964237213,0.04606249928474426
1772389590518069000,2.183069091796875,0.0034374999813735485,-0.011962499469518661,0.04496249929070473
1772389590538126000,2.2031259765625,-0.0028874999843537807,-0.016224998980760574,0.029012499377131462
1772389590558183200,2.22318310546875,0.02474999986588955,0.009349999949336052,0.010862499475479126
1772389590578240000,2.243239990234375,0.04922499880194664,0.011412499472498894,0.042899999767541885
1772389590598297000,2.263297119140625,0.03437500074505806,0.011412499472498894,0.030112499371170998
1772389590618354200,2.283354248046875,0.0056374999694526196,0.015675000846385956,-0.011412499472498894
1772389590638411000,2.303410888671875,-0.003987499978393316,0.025299999862909317,-0.018975000828504562
1772389590658468000,2.323468017578125,0.00989999994635582,0.02419999986886978,0.0034374999813735485
1772389590678525000,2.34352490234375,0.011962499469518661,0.008249999955296516,0.023649999871850014
1772389590698582300,2.363582275390625,-0.0008249999955296516,0.02213750034570694,0.031212499365210533
1772389590718639000,2.38363916015625,-0.005087499972432852,0.010449999943375587,0.0193875003606081
1772389590738696000,2.403696044921875,-0.010449999943375587,-0.004537499975413084,0.007699999958276749
1772389590758753000,2.4237529296875,-0.0028874999843537807,0.026399999856948853,0.0471624992787838
1772389590778809900,2.443809814453125,0.006599999964237213,0.021037500351667404,0.023649999871850014
1772389590798867200,2.4638671875,0.004537499975413084,-0.0056374999694526196,-0.0008249999955296516
1772389590818924000,2.483924072265625,0.010862499475479126,0.02213750034570694,0.05348749831318855
1772389590838980900,2.50398095703125,0.018424998968839645,0.006187499966472387,0.07699999958276749
1772389590859038000,2.524037841796875,-0.006187499966472387,-0.02474999986588955,0.04496249929070473
1772389590879094800,2.5440947265625,-0.01993750035762787,-0.011962499469518661,0.05142499879002571
1772389590899152000,2.56415185546875,-0.003987499978393316,-0.0193875003606081,0.06737499684095383
1772389590919209000,2.584208984375,-0.005087499972432852,-0.030112499371170998,0.035475000739097595
1772389590939265800,2.604265869140625,0.0013749999925494194,-0.015124999918043613,-0.0019249999895691872
1772389590959323000,2.624322998046875,0.004537499975413084,0.017875000834465027,-0.003987499978393316
1772389590979379700,2.644379638671875,-0.005087499972432852,0.02213750034570694,-0.028462499380111694
1772389590999436500,2.6644365234375,0.0002749999985098839,0.02213750034570694,-0.038087498396635056
1772389591019494000,2.684493896484375,0.0034374999813735485,0.026399999856948853,-0.007149999961256981
1772389591039550700,2.70455078125,0.006599999964237213,0.010449999943375587,0.013062499463558197
1772389591059607800,2.72460791015625,0.0056374999694526196,0.018837500363588333,0.03217500075697899
1772389591079664600,2.74466455078125,-0.008249999955296516,0.01677500084042549,0.00989999994635582
1772389591099721700,2.7647216796875,-0.030662499368190765,-0.002337499987334013,-0.026399999856948853
1772389591119778600,2.784778564453125,-0.006187499966472387,0.0028874999843537807,0.0002749999985098839
1772389591139835600,2.804835693359375,0.01732499897480011,-0.010862499475479126,0.033275000751018524
1772389591159892700,2.824892822265625,0.0034374999813735485,-0.03753750026226044,0.027912499383091927
1772389591179949600,2.844949462890625,0.0002749999985098839,-0.035475000739097595,0.04606249928474426
1772389591200006700,2.865006591796875,0.0034374999813735485,-0.0705375000834465,0.042899999767541885
1772389591220063500,2.8850634765625,-0.02419999986886978,-0.09927500039339066,0.0034374999813735485
1772389591240120600,2.90512060546875,-0.02736249938607216,-0.08552499860525131,0.027912499383091927
1772389591260177700,2.925177734375,-0.01251249946653843,-0.09404999762773514,0.06311249732971191
1772389591280234500,2.945234375,-0.030662499368190765,-0.12594999372959137,0.0002749999985098839
1772389591300291600,2.96529150390625,-0.045512501150369644,-0.11316250264644623,-0.030662499368190765
1772389591320348400,2.985348388671875,-0.03272499889135361,-0.11316250264644623,0.010862499475479126
1772389591340405200,3.0054052734375,-0.02956249937415123,-0.12388750165700912,0.022687500342726707
1772389591360462300,3.02546240234375,-0.035887498408555984,-0.08442500233650208,0.023649999871850014
1772389591380519400,3.04551953125,-0.026399999856948853,-0.07699999958276749,0.03973750025033951
1772389591400576300,3.065576171875,-0.047712501138448715,-0.07699999958276749,0.031212499365210533
1772389591420633300,3.08563330078125,-0.04867500066757202,-0.05678749829530716,0.00989999994635582
1772389591440690200,3.105690185546875,-0.018837500363588333,-0.031212499365210533,0.018424998968839645
1772389591460747000,3.1257470703125,-0.006187499966472387,-0.04496249929070473,-0.01677500084042549
1772389591480804000,3.14580419921875,-0.01251249946653843,-0.04399999976158142,-0.035887498408555984
1772389591500861200,3.165861083984375,-0.009349999949336052,-0.014162499457597733,-0.008249999955296516
1772389591520918000,3.18591796875,0.013062499463558197,-0.033275000751018524,0.03973750025033951
1772389591540975000,3.20597509765625,0.022687500342726707,-0.04179999977350235,0.06421250104904175
1772389591561032000,3.226031982421875,0.018424998968839645,-0.027912499383091927,0.07796250283718109
1772389591581089000,3.246089111328125,0.023649999871850014,-0.0034374999813735485,0.07590000331401825
1772389591601145900,3.266145751953125,0.013062499463558197,-0.013062499463558197,0.00989999994635582
1772389591621202700,3.28620263671875,-0.007149999961256981,0.028462499380111694,-0.02956249937415123
1772389591641259800,3.306259765625,-0.018837500363588333,0.02956249937415123,-0.06476250290870667
1772389591661316900,3.32631689453125,-0.015675000846385956,0.011412499472498894,-0.09776250272989273
1772389591681374000,3.3463740234375,-0.0008249999955296516,0.009349999949336052,-0.0775500014424324
1772389591701430800,3.3664306640625,0.002337499987334013,-0.0013749999925494194,-0.04124999791383743
1772389591721488000,3.38648779296875,-0.0008249999955296516,0.010449999943375587,-0.0019249999895691872
1772389591741544700,3.406544677734375,0.004537499975413084,0.03698749840259552,0.03863750025629997
1772389591761601500,3.4266015625,0.002337499987334013,0.02956249937415123,0.029012499377131462
1772389591781658600,3.44665869140625,-0.0147124994546175,-0.011962499469518661,-0.018975000828504562
1772389591801715700,3.4667158203125,-0.017875000834465027,-0.010862499475479126,-0.006187499966472387
1772389591821772500,3.4867724609375,-0.010449999943375587,-0.020487500354647636,0.018424998968839645
1772389591841829600,3.50682958984375,-0.015675000846385956,-0.0193875003606081,0.040699999779462814
1772389591861886500,3.526886474609375,-0.009349999949336052,-0.0013749999925494194,0.050324998795986176
1772389591881943600,3.546943603515625,-0.03492499887943268,-0.0193875003606081,-0.006187499966472387
1772389591902000400,3.56700048828125,-0.03162499889731407,-0.031212499365210533,-0.025299999862909317
1772389591922057200,3.58705712890625,0.006599999964237213,-0.03217500075697899,-0.011412499472498894
1772389591942114300,3.6071142578125,0.0034374999813735485,-0.04606249928474426,-0.02419999986886978
1772389591962171400,3.62717138671875,-0.007149999961256981,-0.027912499383091927,0.011962499469518661
1772389591982228200,3.647228271484375,-0.003987499978393316,0.0008249999955296516,0.033275000751018524
1772389592002285300,3.667285400390625,-0.0147124994546175,-0.029012499377131462,-0.018975000828504562
1772389592022342100,3.687342041015625,-0.02213750034570694,-0.027912499383091927,-0.04124999791383743
1772389592042399000,3.70739892578125,0.0002749999985098839,-0.023649999871850014,-0.017875000834465027
1772389592062456000,3.7274560546875,0.0013749999925494194,-0.018424998968839645,0.004537499975413084
1772389592082513000,3.747512939453125,0.0056374999694526196,0.009349999949336052,0.031212499365210533
1772389592102570000,3.767570068359375,0.00989999994635582,0.009349999949336052,0.035475000739097595
1772389592122626800,3.787626708984375,-0.005087499972432852,-0.00989999994635582,0.00989999994635582
1772389592142684000,3.807683837890625,-0.003987499978393316,0.0028874999843537807,0.020487500354647636
1772389592162740700,3.82774072265625,-0.008249999955296516,0.005087499972432852,0.020487500354647636
1772389592182797800,3.8477978515625,-0.02419999986886978,0.0019249999895691872,0.0193875003606081
1772389592202855000,3.86785498046875,-0.01993750035762787,0.017875000834465027,0.040699999779462814
1772389592222911700,3.887911865234375,-0.0147124994546175,0.01251249946653843,0.033275000751018524
1772389592242968600,3.907968505859375,-0.023099999874830246,0.010449999943375587,0.02694999985396862
1772389592263025700,3.928025634765625,-0.02213750034570694,0.025299999862909317,0.05458749830722809
1772389592283082500,3.94808251953125,-0.013612499460577965,0.038087498396635056,0.04922499880194664
1772389592303139600,3.9681396484375,-0.01677500084042549,0.02213750034570694,-0.017875000834465027
1772389592323196400,3.988196533203125,-0.0147124994546175,0.02956249937415123,-0.027499999850988388
1772389592343253200,4.008253173828125,0.008799999952316284,0.04441250115633011,0.0193875003606081
1772389592363310300,4.028310302734375,0.002337499987334013,0.06902500241994858,0.004537499975413084
1772389592383367400,4.048367431640625,-0.006187499966472387,0.07535000145435333,-0.0028874999843537807
1772389592403424300,4.06842431640625,0.007699999958276749,0.09129999577999115,-0.0028874999843537807
1772389592423481300,4.0884814453125,0.00989999994635582,0.08923749625682831,-0.0317624993622303
1772389592443538200,4.1085380859375,0.0002749999985098839,0.052937500178813934,-0.03382499888539314
1772389592463595000,4.128594970703125,-0.0008249999955296516,0.05939999967813492,0.014162499457597733
1772389592483652000,4.148652099609375,-0.013612499460577965,0.05829999968409538,0.03753750026226044
1772389592503709000,4.168708984375,-0.01677500084042549,0.023099999874830246,0.013062499463558197
1772389592523766000,4.18876611328125,-0.010449999943375587,0.026399999856948853,0.015124999918043613
1772389592543822800,4.20882275390625,0.008799999952316284,0.011412499472498894,0.04606249928474426
1772389592563879700,4.228879638671875,0.006599999964237213,-0.04179999977350235,0.06201250106096268
1772389592583936800,4.248936767578125,-0.011412499472498894,0.003987499978393316,0.06943749636411667
1772389592603993600,4.26899365234375,-0.04977500066161156,-0.042899999767541885,0.05252499878406525
1772389592624050400,4.289050537109375,-0.04235000163316727,-0.031212499365210533,0.016224998980760574
1772389592644107500,4.309107421875,-0.009349999949336052,-0.035475000739097595,-0.005087499972432852
1772389592664164400,4.329164306640625,-0.017875000834465027,-0.04606249928474426,-0.011412499472498894
1772389592684221400,4.349221435546875,-0.023099999874830246,-0.02694999985396862,0.016224998980760574
1772389592704278300,4.3692783203125,-0.006187499966472387,-0.004537499975413084,0.04399999976158142
1772389592724335400,4.38933544921875,-0.0147124994546175,0.006187499966472387,0.010862499475479126
1772389592744392200,4.40939208984375,-0.02956249937415123,-0.002337499987334013,-0.04235000163316727
1772389592764449300,4.42944921875,-0.021037500351667404,-0.002337499987334013,-0.05087500065565109
1772389592784506000,4.449506103515625,-0.0019249999895691872,0.02956249937415123,-0.005087499972432852
1772389592804563000,4.46956298828125,-0.003987499978393316,0.052937500178813934,0.014162499457597733
1772389592824620000,4.4896201171875,-0.021037500351667404,0.05403750017285347,-0.010449999943375587
1772389592844676900,4.5096767578125,-0.017875000834465027,0.06476250290870667,-0.005087499972432852
1772389592864734000,4.52973388671875,0.010862499475479126,0.03698749840259552,-0.01251249946653843
1772389592884790800,4.549790771484375,0.021587500348687172,0.03162499889731407,0.0013749999925494194
1772389592904847600,4.56984765625,0.0034374999813735485,0.03162499889731407,0.011962499469518661
1772389592924904700,4.58990478515625,-0.009349999949336052,0.01251249946653843,0.02474999986588955
1772389592944961500,4.60996142578125,-0.011412499472498894,0.0147124994546175,0.030112499371170998
1772389592965018400,4.630018310546875,-0.018837500363588333,0.015675000846385956,0.014162499457597733
1772389592985075500,4.650075439453125,-0.025299999862909317,-0.0002749999985098839,0.027912499383091927
1772389593005132300,4.67013232421875,-0.015675000846385956,-0.0034374999813735485,0.0471624992787838
1772389593025189400,4.690189453125,0.010862499475479126,-0.011962499469518661,0.0471624992787838
1772389593045246200,4.71024609375,0.002337499987334013,-0.042899999767541885,0.0056374999694526196
1772389593065303300,4.73030322265625,-0.005087499972432852,-0.05142499879002571,0.020487500354647636
1772389593085360000,4.750360107421875,0.0034374999813735485,-0.03753750026226044,0.06104999780654907
1772389593105417000,4.7704169921875,0.002337499987334013,-0.040699999779462814,0.06737499684095383
1772389593125474000,4.79047412109375,-0.0019249999895691872,-0.04606249928474426,0.03217500075697899
1772389593145531100,4.81053125,0.0002749999985098839,-0.050324998795986176,0.018424998968839645
1772389593165588000,4.830587890625,0.010862499475479126,-0.03437500074505806,0.050324998795986176
1772389593185645000,4.85064501953125,0.004537499975413084,-0.03863750025629997,0.02474999986588955
1772389593205702000,4.870701904296875,-0.028462499380111694,-0.042899999767541885,-0.035887498408555984
1772389593225758700,4.8907587890625,-0.02419999986886978,-0.020487500354647636,-0.027499999850988388
1772389593245815800,4.91081591796875,-0.006187499966472387,-0.020487500354647636,-0.008249999955296516
1772389593265872600,4.93087255859375,-0.023099999874830246,-0.040699999779462814,-0.03492499887943268
1772389593285929500,4.950929443359375,-0.03162499889731407,-0.03753750026226044,-0.010449999943375587
1772389593305986600,4.970986572265625,-0.04867500066757202,-0.023649999871850014,0.04606249928474426
1772389593326043400,4.99104345703125,-0.10202500224113464,-0.057750001549720764,0.11742500215768814
1772389593346100200,5.011100341796875,-0.026399999856948853,0.018837500363588333,0.03217500075697899
1772389593366157300,5.0311572265625,0.010862499475479126,0.0028874999843537807,-0.03272499889135361
1772389593386214100,5.051214111328125,0.004537499975413084,-0.0002749999985098839,-0.027499999850988388
1772389593406271200,5.071271240234375,-0.0008249999955296516,-0.006599999964237213,-0.005087499972432852
1772389593426328000,5.091328125,0.0013749999925494194,0.0028874999843537807,0.033275000751018524
1772389593446385200,5.11138525390625,-0.0019249999895691872,0.013612499460577965,0.0471624992787838
1772389593466442000,5.13144189453125,-0.01677500084042549,-0.02694999985396862,0.0364375002682209
1772389593486498800,5.151498779296875,-0.05719999969005585,-0.10889999568462372,0.07796250283718109
1772389593506555600,5.1715556640625,0.0013749999925494194,-0.0002749999985098839,0.05458749830722809
1772389593526612700,5.19161279296875,-0.028462499380111694,-0.03437500074505806,0.07273750007152557
1772389593546669600,5.211669677734375,-0.03382499888539314,-0.006599999964237213,0.07369999587535858
1772389593566726700,5.2317265625,-0.015675000846385956,0.018837500363588333,0.029012499377131462
1772389593586783500,5.251783447265625,-0.015675000846385956,-0.008799999952316284,-0.0317624993622303
1772389593606840300,5.27184033203125,-0.023099999874830246,-0.033275000751018524,-0.045512501150369644
1772389593626897400,5.2918974609375,-0.017875000834465027,-0.015124999918043613,0.0034374999813735485
1772389593646954200,5.311954345703125,-0.0028874999843537807,-0.011962499469518661,0.059950001537799835
1772389593667011000,5.332010986328125,-0.006187499966472387,-0.021587500348687172,0.06847500056028366
1772389593687068000,5.35206787109375,-0.006187499966472387,-0.03437500074505806,0.0471624992787838
1772389593707125000,5.372125,-0.003987499978393316,-0.04922499880194664,0.0471624992787838
1772389593727181800,5.392181884765625,0.0013749999925494194,-0.0193875003606081,0.06421250104904175
1772389593747238700,5.41223876953125,0.007699999958276749,-0.033275000751018524,0.06421250104904175
1772389593767295700,5.432295654296875,0.0034374999813735485,-0.030112499371170998,0.03437500074505806
1772389593787352600,5.4523525390625,0.008799999952316284,-0.027912499383091927,0.04179999977350235
1772389593807409700,5.47240966796875,0.007699999958276749,-0.040699999779462814,0.03217500075697899
1772389593827466500,5.492466552734375,-0.005087499972432852,-0.03753750026226044,0.0056374999694526196
1772389593847523300,5.5125234375,-0.005087499972432852,-0.0471624992787838,0.022687500342726707
1772389593867580400,5.532580322265625,-0.0008249999955296516,-0.048262499272823334,0.04496249929070473
1772389593887637200,5.55263720703125,-0.0028874999843537807,-0.0193875003606081,0.03753750026226044
1772389593907694000,5.572694091796875,-0.015675000846385956,-0.018424998968839645,0.016224998980760574
1772389593927751200,5.592751220703125,-0.02419999986886978,-0.042899999767541885,-0.007149999961256981
1772389593947808000,5.61280810546875,0.0056374999694526196,-0.03973750025033951,0.008799999952316284
1772389593967864800,5.63286474609375,0.014162499457597733,-0.018424998968839645,0.05348749831318855
1772389593987921700,5.652921630859375,-0.0028874999843537807,-0.021587500348687172,0.048262499272823334
1772389594007978800,5.672978759765625,-0.006187499966472387,-0.021587500348687172,0.00989999994635582
1772389594028035600,5.69303564453125,0.00989999994635582,-0.033275000751018524,0.004537499975413084
1772389594048092700,5.7130927734375,0.020487500354647636,-0.014162499457597733,0.03437500074505806
1772389594068149500,5.7331494140625,0.018424998968839645,0.0028874999843537807,0.03863750025629997
1772389594088206300,5.753206298828125,0.007699999958276749,-0.0013749999925494194,0.010862499475479126
1772389594108263400,5.773263427734375,0.008799999952316284,-0.0034374999813735485,-0.0008249999955296516
1772389594128320300,5.7933203125,0.014162499457597733,0.017875000834465027,0.004537499975413084
1772389594148377000,5.813377197265625,0.0056374999694526196,0.02736249938607216,-0.007149999961256981
1772389594168434200,5.83343408203125,0.006599999964237213,0.02956249937415123,0.0034374999813735485
1772389594188491000,5.853490966796875,0.004537499975413084,-0.0034374999813735485,0.00989999994635582
1772389594208547800,5.8735478515625,-0.003987499978393316,-0.050324998795986176,0.006599999964237213
1772389594228605000,5.89360498046875,-0.011412499472498894,-0.08442500233650208,0.06531249731779099
1772389594248661800,5.913661865234375,-0.011412499472498894,-0.09404999762773514,0.12815000116825104
1772389594268718800,5.93371875,-0.018837500363588333,-0.10037499666213989,0.1611499935388565
1772389594288775700,5.953775634765625,-0.01993750035762787,-0.08758749812841415,0.14836250245571136
1772389594308832500,5.97383251953125,-0.015675000846385956,-0.09075000137090683,0.09721250087022781
1772389594328889300,5.993889404296875,-0.01677500084042549,-0.08332499861717224,0.042899999767541885
1772389594348946200,6.0139462890625,0.008799999952316284,-0.08648750185966492,0.016224998980760574
1772389594369003000,6.0340029296875,0.008799999952316284,-0.07383749634027481,0.0056374999694526196
1772389594389060000,6.05406005859375,-0.0019249999895691872,-0.05884999781847,0.004537499975413084
1772389594409117000,6.074116943359375,-0.013612499460577965,-0.057750001549720764,0.021587500348687172
1772389594429174000,6.094174072265625,-0.008249999955296516,-0.05142499879002571,0.03973750025033951
1772389594449230800,6.11423095703125,-0.01251249946653843,-0.04496249929070473,0.029012499377131462
1772389594469287700,6.13428759765625,-0.01677500084042549,-0.027912499383091927,-0.006187499966472387
1772389594489344500,6.154344482421875,-0.02956249937415123,-0.030112499371170998,-0.02213750034570694
1772389594509401600,6.174401611328125,-0.040150001645088196,-0.022687500342726707,-0.02419999986886978
1772389594529458400,6.19445849609375,-0.03492499887943268,0.007149999961256981,0.016224998980760574
1772389594549515500,6.214515625,-0.030662499368190765,0.01251249946653843,0.022687500342726707
1772389594569572400,6.234572265625,-0.043449997901916504,-0.008799999952316284,0.0034374999813735485
1772389594589629200,6.254629150390625,-0.04235000163316727,-0.0056374999694526196,0.013062499463558197
1772389594609686300,6.274686279296875,-0.03382499888539314,-0.010862499475479126,0.0056374999694526196
1772389594629743000,6.2947431640625,-0.02419999986886978,-0.013062499463558197,0.0013749999925494194
1772389594649800000,6.314800048828125,-0.028462499380111694,0.005087499972432852,0.006599999964237213
1772389594669856800,6.334856689453125,-0.03162499889731407,-0.0034374999813735485,-0.011412499472498894
1772389594689913600,6.35491357421875,-0.03272499889135361,-0.02474999986588955,-0.03698749840259552
1772389594709970700,6.374970703125,-0.02419999986886978,-0.042899999767541885,-0.013612499460577965
1772389594730027500,6.395027587890625,-0.015675000846385956,-0.031212499365210533,0.03437500074505806
1772389594750084400,6.41508447265625,-0.0008249999955296516,-0.022687500342726707,0.06531249731779099
1772389594770141400,6.435141357421875,0.002337499987334013,-0.033275000751018524,0.02474999986588955
1772389594790198300,6.4551982421875,-0.006187499966472387,-0.033275000751018524,-0.01251249946653843
1772389594810255000,6.475255126953125,0.0002749999985098839,-0.0364375002682209,-0.018975000828504562
1772389594830312000,6.49531201171875,0.007699999958276749,-0.040699999779462814,-0.010449999943375587
1772389594850369000,6.515369140625,0.002337499987334013,-0.031212499365210533,0.011962499469518661
1772389594870425900,6.53542578125,-0.0019249999895691872,-0.020487500354647636,0.04179999977350235
1772389594890482400,6.555482421875,-0.017875000834465027,-0.02694999985396862,0.022687500342726707
1772389594910539500,6.57553955078125,-0.030662499368190765,-0.031212499365210533,0.011962499469518661
1772389594930596400,6.595596435546875,-0.028462499380111694,-0.013062499463558197,0.06943749636411667
1772389594950653200,6.615653076171875,-0.023099999874830246,0.0028874999843537807,0.06847500056028366
1772389594970710300,6.635710205078125,-0.026399999856948853,-0.021587500348687172,0.025849999859929085
1772389594990767000,6.65576708984375,-0.03492499887943268,-0.03217500075697899,0.008799999952316284
1772389595010824000,6.675823974609375,-0.04124999791383743,-0.03863750025629997,0.0013749999925494194
1772389595030881000,6.695881103515625,-0.03162499889731407,-0.03863750025629997,0.0034374999813735485
1772389595050937900,6.715937744140625,-0.015675000846385956,-0.03973750025033951,0.027912499383091927
1772389595070994700,6.73599462890625,-0.007149999961256981,-0.029012499377131462,0.0364375002682209
1772389595091051500,6.756051513671875,-0.010449999943375587,-0.016224998980760574,0.022687500342726707
1772389595111108400,6.7761083984375,-0.011412499472498894,-0.013062499463558197,0.014162499457597733
1772389595131165200,6.796165283203125,-0.009349999949336052,-0.006599999964237213,0.010862499475479126
1772389595151222300,6.81622216796875,0.018424998968839645,0.005087499972432852,0.04922499880194664
1772389595171279000,6.836279052734375,0.021587500348687172,0.01251249946653843,0.040699999779462814
1772389595191336000,6.8563359375,0.0002749999985098839,0.02736249938607216,0.020487500354647636
1772389595211393000,6.87639306640625,0.0034374999813735485,0.03918749839067459,0.02694999985396862
1772389595231449900,6.896449951171875,0.023649999871850014,0.05087500065565109,0.03753750026226044
1772389595251506700,6.916506591796875,0.0193875003606081,0.04867500066757202,0.04399999976158142
1772389595271563800,6.936563720703125,0.00989999994635582,0.06476250290870667,0.033275000751018524
1772389595291620600,6.95662060546875,0.008799999952316284,0.055137500166893005,0.0056374999694526196
1772389595311677400,6.976677490234375,-0.0019249999895691872,0.05087500065565109,-0.028462499380111694
1772389595331734300,6.996734375,-0.011412499472498894,0.05403750017285347,-0.026399999856948853
1772389595351791000,7.016791015625,-0.0019249999895691872,0.04661250114440918,-0.015675000846385956
1772389595371848000,7.036847900390625,-0.0028874999843537807,0.03162499889731407,-0.02213750034570694
1772389595391905000,7.056905029296875,-0.0147124994546175,0.02956249937415123,0.0034374999813735485
1772389595411961900,7.0769619140625,-0.021037500351667404,0.01677500084042549,0.010862499475479126
1772389595432018700,7.097018798828125,-0.01251249946653843,0.006187499966472387,-0.011412499472498894
1772389595452075500,7.117075439453125,0.0013749999925494194,0.003987499978393316,0.006599999964237213
1772389595472132400,7.13713232421875,0.002337499987334013,-0.0034374999813735485,0.008799999952316284
1772389595492189400,7.157189453125,-0.003987499978393316,-0.0056374999694526196,0.014162499457597733
1772389595512246300,7.177246337890625,-0.0028874999843537807,-0.0002749999985098839,0.025849999859929085
1772389595532303000,7.19730322265625,0.004537499975413084,0.0028874999843537807,0.016224998980760574
1772389595552360000,7.21735986328125,0.007699999958276749,0.0028874999843537807,0.01732499897480011
1772389595572417000,7.2374169921875,0.004537499975413084,0.0019249999895691872,0.016224998980760574
1772389595592473600,7.2574736328125,-0.006187499966472387,-0.008799999952316284,0.0013749999925494194
1772389595612530400,7.277530517578125,-0.009349999949336052,-0.0013749999925494194,0.013062499463558197
1772389595632587500,7.29758740234375,-0.008249999955296516,0.007149999961256981,0.027912499383091927
1772389595652644400,7.317644287109375,-0.01251249946653843,0.007149999961256981,0.042899999767541885
1772389595672701200,7.337701171875,-0.011412499472498894,-0.02474999986588955,0.08016250282526016
1772389595692758300,7.35775830078125,-0.006187499966472387,-0.06737499684095383,0.11316250264644623
1772389595712815000,7.377815185546875,-0.01251249946653843,-0.0812624990940094,0.16321249306201935
1772389595732872000,7.397871826171875,-0.02419999986886978,-0.059950001537799835,0.20473749935626984
1772389595752928800,7.4179287109375,-0.02419999986886978,-0.05458749830722809,0.18342499434947968
1772389595772985600,7.437985595703125,-0.013612499460577965,-0.07273750007152557,0.10573749989271164
1772389595793042700,7.458042724609375,0.002337499987334013,-0.0705375000834465,0.030112499371170998
1772389595813099500,7.478099609375,0.016224998980760574,-0.05678749829530716,-0.0008249999955296516
1772389595833156000,7.498156005859375,0.011962499469518661,-0.03863750025629997,-0.0028874999843537807
1772389595853213200,7.518213134765625,0.0002749999985098839,-0.007699999958276749,-0.0019249999895691872
1772389595873270000,7.53827001953125,-0.010449999943375587,0.010449999943375587,0.006599999964237213
1772389595893326800,7.558326904296875,-0.008249999955296516,0.025299999862909317,0.0013749999925494194
1772389595913384000,7.578384033203125,-0.003987499978393316,0.005087499972432852,-0.009349999949336052
1772389595933440800,7.598440673828125,-0.0147124994546175,0.009349999949336052,-0.0019249999895691872
1772389595953497600,7.61849755859375,-0.011412499472498894,0.04441250115633011,0.0364375002682209
1772389595973554200,7.63855419921875,-0.006187499966472387,0.04441250115633011,0.021587500348687172
1772389595993611000,7.658611083984375,-0.0028874999843537807,0.045512501150369644,-0.009349999949336052
1772389596013668000,7.678668212890625,0.0034374999813735485,0.05197500064969063,-0.023237500339746475
1772389596033725000,7.698724853515625,0.007699999958276749,0.028462499380111694,-0.04441250115633011
1772389596053781800,7.71878173828125,0.008799999952316284,0.023099999874830246,-0.028462499380111694
1772389596073838800,7.7388388671875,0.0013749999925494194,0.047712501138448715,0.020487500354647636
1772389596093895400,7.7588955078125,-0.0008249999955296516,0.03918749839067459,0.02694999985396862
1772389596113952500,7.778952392578125,0.004537499975413084,0.0147124994546175,-0.023237500339746475
1772389596134009300,7.79900927734375,0.011962499469518661,0.018837500363588333,-0.02956249937415123
1772389596154066200,7.819066162109375,0.002337499987334013,0.026399999856948853,-0.02213750034570694
1772389596174123000,7.839123046875,0.01732499897480011,0.03162499889731407,0.018424998968839645
1772389596194179800,7.859179931640625,0.0193875003606081,0.045512501150369644,0.015124999918043613
1772389596214236700,7.879236572265625,0.0034374999813735485,0.021037500351667404,-0.03272499889135361
1772389596234293500,7.89929345703125,-0.0008249999955296516,-0.0013749999925494194,-0.04124999791383743
1772389596254350600,7.9193505859375,0.010862499475479126,0.009349999949336052,-0.009349999949336052
1772389596274407400,7.939407470703125,0.002337499987334013,0.021037500351667404,0.008799999952316284
1772389596294464300,7.95946435546875,-0.0028874999843537807,0.030662499368190765,0.01732499897480011
1772389596314521000,7.97952099609375,-0.0008249999955296516,0.023099999874830246,-0.005087499972432852
1772389596334578000,7.999577880859375,-0.013612499460577965,0.011412499472498894,-0.043449997901916504
1772389596354635000,8.019635009765626,-0.02419999986886978,0.015675000846385956,-0.02956249937415123
1772389596374691800,8.03969189453125,-0.009349999949336052,0.02213750034570694,0.013062499463558197
1772389596394748700,8.059748779296875,-0.005087499972432852,-0.0056374999694526196,-0.0028874999843537807
1772389596414805500,8.079805419921875,-0.008249999955296516,-0.025849999859929085,-0.007149999961256981
1772389596434862300,8.0998623046875,-0.013612499460577965,0.006187499966472387,0.02694999985396862
1772389596454919200,8.119919189453125,-0.013612499460577965,0.0028874999843537807,0.029012499377131462
1772389596474976000,8.13997607421875,-0.009349999949336052,-0.033275000751018524,-0.026399999856948853
1772389596495033000,8.160033203125,-0.0028874999843537807,-0.04179999977350235,-0.01677500084042549
1772389596515090000,8.18008984375,-0.0028874999843537807,-0.023649999871850014,0.020487500354647636
1772389596535146500,8.200146484375,-0.010449999943375587,-0.0193875003606081,0.018424998968839645
1772389596555203600,8.22020361328125,-0.01251249946653843,-0.007699999958276749,0.02694999985396862
1772389596575260400,8.240260498046876,-0.0019249999895691872,0.007149999961256981,0.023649999871850014
1772389596595317000,8.26031689453125,0.002337499987334013,-0.014162499457597733,-0.030662499368190765
1772389596615373800,8.280373779296875,-0.0147124994546175,-0.022687500342726707,-0.03918749839067459
1772389596635431000,8.300430908203126,-0.008249999955296516,0.028462499380111694,0.03217500075697899
1772389596655487700,8.32048779296875,0.0034374999813735485,0.05623750016093254,0.03973750025033951
1772389596675544600,8.340544677734375,0.0034374999813735485,0.06366249918937683,-0.01677500084042549
1772389596695601200,8.36060107421875,-0.006187499966472387,0.08181250095367432,-0.047712501138448715
1772389596715658200,8.380658203125,0.013062499463558197,0.05939999967813492,-0.03698749840259552
1772389596735715000,8.400715087890624,0.025849999859929085,0.021037500351667404,-0.052937500178813934
1772389596755772000,8.42077197265625,0.015124999918043613,0.03492499887943268,-0.023237500339746475
1772389596775829000,8.4408291015625,0.0013749999925494194,0.043449997901916504,0.030112499371170998
1772389596795885600,8.460885498046874,-0.009349999949336052,0.015675000846385956,0.006599999964237213
1772389596815942400,8.4809423828125,-0.010449999943375587,0.02736249938607216,-0.008249999955296516
1772389596835999500,8.50099951171875,0.002337499987334013,0.023099999874830246,-0.0008249999955296516
1772389596856056300,8.521056396484376,0.0013749999925494194,-0.002337499987334013,-0.02419999986886978
1772389596876113200,8.541113037109374,-0.005087499972432852,-0.015124999918043613,-0.017875000834465027
1772389596896170000,8.561169921875,-0.010449999943375587,-0.01732499897480011,0.013062499463558197
1772389596916226800,8.581226806640625,0.007699999958276749,-0.027912499383091927,0.06104999780654907
1772389596936283600,8.60128369140625,0.040699999779462814,-0.002337499987334013,0.09501250088214874
1772389596956340700,8.6213408203125,0.022687500342726707,0.015675000846385956,0.04922499880194664
1772389596976397300,8.641397216796875,-0.003987499978393316,0.009349999949336052,-0.035887498408555984
1772389596996454100,8.6614541015625,-0.0008249999955296516,0.028462499380111694,-0.05403750017285347
1772389597016511200,8.68151123046875,0.020487500354647636,0.05087500065565109,-0.02213750034570694
1772389597036568000,8.701568115234375,0.035475000739097595,0.05623750016093254,-0.005087499972432852
1772389597056624600,8.721624755859375,0.02474999986588955,0.07108750194311142,0.016224998980760574
1772389597076681700,8.741681640625,0.00989999994635582,0.07328750193119049,-0.010449999943375587
1772389597096738600,8.761738525390625,-0.007149999961256981,0.04441250115633011,-0.055137500166893005
1772389597116795100,8.781795166015625,-0.010449999943375587,0.0668250024318695,-0.047712501138448715
1772389597136852200,8.801852294921876,0.018424998968839645,0.06476250290870667,-0.005087499972432852
1772389597156909000,8.821908935546874,0.025849999859929085,0.04441250115633011,0.013062499463558197
1772389597176966000,8.8419658203125,0.013062499463558197,0.04661250114440918,0.018424998968839645
1772389597197022700,8.862022705078125,-0.0019249999895691872,0.05829999968409538,0.055687498301267624
1772389597217079600,8.88207958984375,-0.005087499972432852,0.03918749839067459,0.06627500057220459
1772389597237136400,8.902136474609375,0.002337499987334013,0.017875000834465027,0.04922499880194664
1772389597257193200,8.922193115234375,0.0056374999694526196,0.008249999955296516,0.06421250104904175
1772389597277250300,8.942250244140626,-0.015675000846385956,-0.025849999859929085,0.03863750025629997
1772389597297307000,8.962306884765624,-0.017875000834465027,-0.027912499383091927,0.05142499879002571
1772389597317363700,8.98236376953125,-0.011412499472498894,-0.008799999952316284,0.057750001549720764
1772389597337420500,9.002420654296875,-0.028462499380111694,-0.02694999985396862,0.033275000751018524
1772389597357477600,9.0224775390625,-0.02956249937415123,-0.03973750025033951,-0.0028874999843537807
1772389597377534200,9.0425341796875,-0.02419999986886978,-0.011962499469518661,0.020487500354647636
1772389597397591300,9.06259130859375,-0.021037500351667404,-0.011962499469518661,0.0364375002682209
1772389597417648000,9.082648193359375,-0.025299999862909317,-0.025849999859929085,0.018424998968839645
1772389597437705000,9.102705078125,-0.013612499460577965,-0.01732499897480011,0.0193875003606081
1772389597457761500,9.122761474609375,0.004537499975413084,-0.0193875003606081,0.03863750025629997
1772389597477818600,9.142818603515625,-0.0019249999895691872,-0.010862499475479126,0.050324998795986176
1772389597497875500,9.16287548828125,0.004537499975413084,0.015675000846385956,0.06627500057220459
1772389597517932300,9.182932373046874,0.016224998980760574,-0.007699999958276749,0.042899999767541885
1772389597537988900,9.20298876953125,0.011962499469518661,-0.021587500348687172,-0.01677500084042549
1772389597558046000,9.2230458984375,-0.0028874999843537807,0.007149999961256981,-0.017875000834465027
1772389597578102800,9.243102783203126,-0.0019249999895691872,0.026399999856948853,0.020487500354647636
1772389597598159400,9.263159423828125,0.0013749999925494194,0.026399999856948853,-0.007149999961256981
1772389597618216400,9.283216552734375,0.0002749999985098839,0.02956249937415123,-0.030662499368190765
1772389597638273300,9.303273193359376,0.002337499987334013,0.028462499380111694,-0.0008249999955296516
1772389597658330000,9.323330078125,0.0013749999925494194,0.021037500351667404,-0.01677500084042549
1772389597678387000,9.343386962890625,-0.007149999961256981,0.03162499889731407,-0.045512501150369644
1772389597698443800,9.36344384765625,-0.0028874999843537807,0.02956249937415123,-0.01677500084042549
1772389597718500600,9.38350048828125,0.016224998980760574,0.040150001645088196,0.010862499475479126
1772389597738557400,9.403557373046874,0.011962499469518661,0.04977500066161156,-0.0019249999895691872
1772389597758614300,9.4236142578125,0.004537499975413084,0.04235000163316727,0.0056374999694526196
1772389597778671000,9.443671142578125,-0.0019249999895691872,0.02956249937415123,-0.008249999955296516
1772389597798728000,9.46372802734375,0.008799999952316284,0.040150001645088196,-0.011412499472498894
1772389597818785000,9.483784912109375,0.008799999952316284,0.038087498396635056,-0.009349999949336052
1772389597838841600,9.503841552734375,-0.0019249999895691872,0.02736249938607216,-0.02213750034570694
1772389597858898400,9.5238984375,-0.007149999961256981,0.028462499380111694,-0.026399999856948853
1772389597878955300,9.543955322265624,-0.01251249946653843,0.013612499460577965,-0.03918749839067459
1772389597899012400,9.564012451171875,-0.015675000846385956,-0.0034374999813735485,0.0013749999925494194
1772389597919069000,9.58406884765625,-0.021037500351667404,0.003987499978393316,0.016224998980760574
1772389597939125800,9.604125732421876,-0.015675000846385956,0.007149999961256981,0.03973750025033951
1772389597959182600,9.6241826171875,-0.007149999961256981,0.005087499972432852,0.02694999985396862
1772389597979239700,9.64423974609375,-0.0028874999843537807,-0.008799999952316284,-0.026399999856948853
1772389597999296300,9.664296142578126,0.0013749999925494194,-0.022687500342726707,-0.026399999856948853
1772389598019353000,9.68435302734375,-0.01677500084042549,-0.00989999994635582,0.06627500057220459
1772389598039410200,9.70441015625,0.002337499987334013,-0.007699999958276749,0.11110000312328339
1772389598059466800,9.724466796875,0.0002749999985098839,-0.015124999918043613,0.15798750519752502
1772389598079523800,9.74452392578125,-0.010449999943375587,-0.0364375002682209,0.14190000295639038
1772389598099580700,9.76458056640625,-0.04867500066757202,-0.07699999958276749,0.06311249732971191
1772389598119637500,9.784637451171875,-0.060499999672174454,-0.06737499684095383,0.12594999372959137
1772389598139693300,9.804693359375,-0.026399999856948853,-0.008799999952316284,0.23567499220371246
