time,seconds_elapsed,z,y,x
1772594497242336000,0.2353359375,-0.0017293660202994943,0.004522957373410463,0.0018623941577970982
1772594497262630000,0.2556298828125,0.0007981689414009452,0.004522957373410463,0.001064225216396153
1772594497282894000,0.27589404296875,0.0017293660202994943,-0.004922041669487953,-0.0003990844707004726
1772594497303158000,0.296157958984375,0.0038578163366764784,-0.0037247883155941963,-0.0025275349617004395
1772594497323421000,0.3164208984375,0.0047890134155750275,0.003059647511690855,-0.0025275349617004395
1772594497343685000,0.33668505859375,0.2156386375427246,0.7925817370414734,-0.03046344593167305
1772594497363949000,0.356948974609375,0.5430209040641785,0.6743196845054626,0.44378191232681274
1772594497384212000,0.3772119140625,0.6878885626792908,0.06717921793460846,0.6724573373794556
1772594497404476000,0.397475830078125,0.8594948649406433,-0.6683334112167358,-0.21271201968193054
1772594497424740000,0.417739990234375,1.2108222246170044,-1.4214057922363281,-2.9059998989105225
1772594497445003000,0.4380029296875,1.8605316877365112,-1.052385687828064,-5.861353397369385
1772594497465267000,0.458266845703125,1.2644325494766235,-1.0279085636138916,-6.086703300476074
1772594497485531000,0.47853076171875,0.08074808865785599,-1.441892147064209,-4.368910789489746
1772594497505795000,0.498795166015625,-0.1383492797613144,-1.182354211807251,-2.537245988845825
1772594497526058000,0.51905810546875,-0.266588419675827,-0.9837431907653809,-1.1098538637161255
1772594497546322000,0.539322021484375,0.07196822762489319,-0.37434121966362,-0.311152845621109
1772594497566586000,0.559586181640625,0.45242875814437866,0.10456012934446335,-0.08939491957426071
1772594497586849000,0.57984912109375,0.45083239674568176,0.3615705072879791,-0.045362599194049835
1772594497607113000,0.600113037109375,0.3622356653213501,0.4460434019565582,-0.025009293109178543
1772594497627377000,0.620376953125,0.26858383417129517,0.43885987997055054,0.014234011992812157
1772594497647640000,0.64064013671875,0.21696890890598297,0.37620362639427185,0.041238728910684586
1772594497667904000,0.660904052734375,0.1859733611345291,0.29399222135543823,0.05746816098690033
1772594497688168000,0.68116796875,0.15830349922180176,0.23120293021202087,0.06771133095026016
1772594497708431000,0.70143115234375,0.12810611724853516,0.24783144891262054,0.0730324536561966
1772594497728695000,0.721695068359375,0.10881702601909637,0.24942778050899506,0.07542695850133896
1772594497748959000,0.741958984375,0.1004362553358078,0.13981258869171143,0.06757830083370209
1772594497769222000,0.762221923828125,0.056403934955596924,0.061059921979904175,0.03698182478547096
1772594497789486000,0.782486083984375,0.18544124066829681,-0.06624802201986313,0.11959230899810791
1772594497809750000,0.80275,0.15870258212089539,-0.09272062033414841,0.12531252205371857
1772594497830013000,0.823012939453125,0.09750963747501373,-0.06252323091030121,0.08061505854129791
1772594497850277000,0.843277099609375,0.14021167159080505,-0.10243167728185654,0.17134025692939758
1772594497870541000,0.863541015625,0.09923899918794632,-0.12770701944828033,0.14433553814888
1772594497890804000,0.883803955078125,0.08420681953430176,-0.1553768813610077,0.14247314631938934
1772594497911068000,0.90406787109375,0.07103703171014786,-0.15271632373332977,0.14513371884822845
1772594497931332000,0.92433203125,0.06385350972414017,-0.14313828945159912,0.14433553814888
1772594497951595000,0.944594970703125,0.07609210163354874,-0.0740966796875,0.13489054143428802
1772594497971859000,0.96485888671875,0.05015161260962486,-0.03804605081677437,0.08460590243339539
1772594497992123000,0.985122802734375,0.13262906670570374,-0.1037619560956955,0.11666569113731384
1772594498012386000,1.005385986328125,0.09538118541240692,-0.07476182281970978,0.0784866064786911
1772594498032650000,1.02564990234375,0.14885850250720978,0.032192811369895935,0.04895436018705368
1772594498052914000,1.045913818359375,0.1086840033531189,0.07156914472579956,0.015165209770202637
1772594498073177000,1.066177001953125,0.028201967477798462,0.018623940646648407,0.0039908443577587605
1772594498093441000,1.08644091796875,0.14180800318717957,0.042569007724523544,-0.02540837787091732
1772594498113705000,1.106705078125,0.036848798394203186,0.011041336692869663,-0.0065183793194592
1772594498133968000,1.1269677734375,0.13595476746559143,-0.03644971549510956,-0.058266330510377884
1772594498154232000,1.147232177734375,0.03525245934724808,-0.00944499857723713,-0.015165209770202637
1772594498174496000,1.16749609375,0.1465970277786255,-0.1646888554096222,0.007582604885101318
1772594498194759000,1.187759033203125,0.10961519926786423,-0.22189095616340637,0.025807460770010948
1772594498215023000,1.208023193359375,0.028468023985624313,-0.057601191103458405,0.006651407573372126
1772594498235287000,1.228287109375,0.14619794487953186,-0.2068587690591812,0.07090400159358978
1772594498255550000,1.248550048828125,0.14007864892482758,-0.20100553333759308,0.04935344308614731
1772594498275814000,1.26881396484375,0.1536475121974945,-0.24078094959259033,0.0035917600616812706
1772594498296078000,1.289078125,0.1378171592950821,-0.20020736753940582,-0.04602774232625961
1772594498316341000,1.309341064453125,0.10296379029750824,-0.06904160976409912,0.04017450287938118
1772594498336605000,1.32960498046875,0.1136060431599617,-0.026738658547401428,0.1332942098379135
1772594498356869000,1.349869140625,0.1394135057926178,-0.05613787844777107,0.16349159181118011
1772594498377132000,1.370132080078125,0.1822485625743866,-0.11493632197380066,0.09591329842805862
1772594498397396000,1.39039599609375,0.20180371403694153,-0.08660132437944412,0.02540837787091732
1772594498417660000,1.410659912109375,0.19728074967861176,-0.03112858720123768,0.004522957373410463
1772594498437923000,1.430923095703125,0.09870688617229462,-0.007715632673352957,0.0017293660202994943
1772594498458187000,1.45118701171875,0.20832209289073944,-0.07835358381271362,0.021417532116174698
1772594498478451000,1.471450927734375,0.054142456501722336,-0.02035330794751644,0.0055871824733912945
1772594498498714000,1.491714111328125,0.1789228618144989,-0.06811041384935379,0.05879844352602959
1772594498518978000,1.51197802734375,0.08926188945770264,0.061059921979904175,0.045362599194049835
1772594498539242000,1.532241943359375,0.05440851300954819,0.08793161064386368,0.05720210447907448
1772594498559505000,1.5525048828125,0.014100983738899231,0.02288084290921688,0.014899153262376785
1772594498579769000,1.57276904296875,0.04948647320270538,-0.14034469425678253,0.11121153831481934
1772594498600033000,1.593032958984375,0.0034587320405989885,-0.07223428785800934,0.0949821025133133
1772594498620296000,1.6132958984375,-0.035917602479457855,0.008779858238995075,0.10602343827486038
1772594498640560000,1.63356005859375,-0.025674432516098022,0.025674432516098022,0.05174795165657997
1772594498660824000,1.653823974609375,-0.060128726065158844,-0.05720210447907448,0.11161062121391296
1772594498681087000,1.6740869140625,-0.04110569879412651,-0.12690885365009308,0.08141323179006577
1772594498701351000,1.694350830078125,-0.01569732278585434,-0.08700041472911835,0.07156914472579956
1772594498721615000,1.714614990234375,-0.006651407573372126,-0.05015161260962486,0.04429837316274643
1772594498741878000,1.7348779296875,0.009178942069411278,0.019289081916213036,0.07542695850133896
1772594498762142000,1.755141845703125,0.00784866139292717,0.021550560370087624,0.0521470345556736
1772594498782406000,1.775406005859375,0.0019954221788793802,0.0055871824733912945,0.013568871654570103
1772594498802670000,1.795670166015625,0.0005321126081980765,0.0014633096288889647,0.0034587320405989885
1772594498822933000,1.81593310546875,0.1509869545698166,-0.13861533999443054,0.08247745782136917
1772594498843197000,1.836197021484375,0.10017019510269165,-0.1301015317440033,0.04177083820104599
1772594498863461000,1.856461181640625,0.09963808953762054,-0.17040906846523285,0.03179372847080231
1772594498883724000,1.87672412109375,0.08500499278306961,-0.19009722769260406,0.014899153262376785
1772594498903988000,1.896988037109375,0.07103703171014786,-0.18517518043518066,-0.00572021072730422
1772594498924252000,1.917251953125,0.03365612402558327,-0.0911242812871933,-0.006651407573372126
1772594498944515000,1.93751513671875,0.008779858238995075,-0.023679010570049286,-0.0017293660202994943
1772594498964779000,1.957779052734375,0.0345873199403286,0.012637674808502197,-0.07183520495891571
1772594498985043000,1.97804296875,0.019023025408387184,0.08992703258991241,-0.08540407568216324
1772594499005306000,1.99830615234375,0.0006651407456956804,0.13874836266040802,-0.07063794881105423
1772594499025570000,2.018570068359375,-0.00026605630409903824,0.07489485293626785,-0.0351194329559803
1772594499045834000,2.038833984375,0.04177083820104599,-0.040972672402858734,-0.09311970323324203
1772594499066097000,2.059096923828125,0.043766263872385025,-0.0971105545759201,-0.0779544934630394
1772594499086361000,2.079361083984375,0.04203689470887184,-0.07941780984401703,-0.06438562273979187
1772594499106625000,2.099625,0.026605630293488503,-0.048156190663576126,-0.03924330323934555
1772594499126888000,2.119887939453125,0.04110569879412651,-0.025275349617004395,-0.06358745694160461
1772594499147152000,2.14015185546875,0.028068939223885536,-0.0130367586389184,-0.04363323375582695
1772594499167416000,2.160416015625,0.024610208347439766,0.10176653414964676,-0.06611499190330505
1772594499187679000,2.180678955078125,-0.00971105508506298,0.233198344707489,-0.04576168581843376
1772594499207943000,2.20094287109375,-0.024078095331788063,0.252088338136673,-0.036582741886377335
1772594499228207000,2.22120703125,-0.03964238986372948,0.3639650344848633,-0.03578457236289978
1772594499248470000,2.241469970703125,-0.035917602479457855,0.29651975631713867,-0.017825772985816002
1772594499268734000,2.26173388671875,-0.02727077156305313,0.27031320333480835,-0.01755971647799015
1772594499288998000,2.281997802734375,-0.0070504918694496155,0.0702388659119606,-0.004522957373410463
1772594499309261000,2.302260986328125,-0.0018623941577970982,0.01822485774755478,-0.0011972533538937569
1772594499329525000,2.32252490234375,-0.0005321126081980765,0.0047890134155750275,-0.00026605630409903824
1772594499349789000,2.342788818359375,-0.00013302815204951912,0.0011972533538937569,-0.00013302815204951912
1772594499370052000,2.363052001953125,0.03445428982377052,0.12544554471969604,-0.03924330323934555
1772594499390316000,2.38331591796875,0.008912886492908001,0.03259189799427986,-0.010243168100714684
1772594499410580000,2.403580078125,0.04150478169322014,-0.09325273334980011,-0.03698182478547096
1772594499430843000,2.4238427734375,0.042169924825429916,-0.17533110082149506,-0.024876264855265617
1772594499451107000,2.444107177734375,0.010908308438956738,-0.04549562931060791,-0.0065183793194592
1772594499471371000,2.46437109375,0.04110569879412651,-0.13103273510932922,-0.01942211017012596
1772594499491634000,2.484634033203125,0.032458867877721786,-0.12757399678230286,-0.01556429360061884
1772594499511898000,2.504898193359375,0.019555138424038887,-0.08074808865785599,-0.009311970323324203
1772594499532162000,2.525162109375,0.005055069923400879,-0.02101844735443592,-0.0023945067077875137
1772594499552425000,2.545425048828125,0.0013302814913913608,-0.005454154219478369,-0.0006651407456956804
1772594499572689000,2.56568896484375,0.0003990844707004726,-0.0014633096288889647,-0.00013302815204951912
1772594499592953000,2.585953125,0.00013302815204951912,-0.0003990844707004726,0
1772594499613216000,2.606216064453125,0,-0.00013302815204951912,0
1772594499633480000,2.62647998046875,0.04868830367922783,0.06611499190330505,-0.07529393583536148
1772594499653744000,2.646744140625,0.0070504918694496155,0.09431695938110352,-0.06664710491895676
1772594499674007000,2.667007080078125,-0.001064225216396153,0.06385350972414017,-0.04137175530195236
1772594499694271000,2.68727099609375,0.004389929119497538,0.11200970411300659,-0.06252323091030121
1772594499714535000,2.707534912109375,0.001064225216396153,0.029133165255188942,-0.016229433938860893
1772594499734798000,2.727798095703125,0.00026605630409903824,0.007582604885101318,-0.004256900865584612
1772594499755062000,2.74806201171875,0.00013302815204951912,0.0019954221788793802,-0.001064225216396153
1772594499775326000,2.768325927734375,0.05613787844777107,-0.1169317439198494,-0.05188097804784775
1772594499795589000,2.788589111328125,0.029665278270840645,-0.16814757883548737,-0.05933055654168129
1772594499815853000,2.80885302734375,-0.00026605630409903824,0.04270203784108162,-0.0697067528963089
1772594499836117000,2.829116943359375,-0.020220279693603516,0.20047342777252197,-0.08300956338644028
1772594499856380000,2.8493798828125,-0.021151475608348846,0.20818905532360077,-0.08074808865785599
1772594499876644000,2.86964404296875,-0.00944499857723713,0.09578026831150055,-0.04150478169322014
1772594499896908000,2.889907958984375,0.007316548377275467,0.11001428216695786,-0.10775279998779297
1772594499917171000,2.9101708984375,0.0018623941577970982,0.02860105223953724,-0.02793591283261776
1772594499937435000,2.930434814453125,0.030064363032579422,0.059463582932949066,-0.05201400816440582
1772594499957699000,2.950698974609375,0.02288084290921688,0.04203689470887184,-0.03631668537855148
1772594499977962000,2.9709619140625,0.008779858238995075,0.1422071009874344,0.0025275349617004395
1772594499998226000,2.991225830078125,0.0022614786867052317,0.036848798394203186,0.0006651407456956804
1772594500018490000,3.011489990234375,0.048821330070495605,-0.19661560654640198,0.001064225216396153
1772594500038753000,3.0317529296875,0.032192811369895935,-0.19674864411354065,-0.025674432516098022
1772594500059017000,3.052016845703125,0.023013871163129807,-0.18916603922843933,-0.040307529270648956
1772594500079281000,3.072281005859375,0.019023025408387184,-0.1503218114376068,-0.04044055938720703
1772594500099545000,3.092545166015625,0.011573448777198792,-0.0905921682715416,-0.025674432516098022
1772594500119808000,3.11280810546875,0.035651545971632004,-0.1970146894454956,-0.0219496451318264
1772594500140072000,3.133072021484375,0.009178942069411278,-0.05108281224966049,-0.00572021072730422
1772594500160336000,3.1533359375,0.0023945067077875137,-0.013302815146744251,-0.0014633096288889647
1772594500180599000,3.17359912109375,0.054807599633932114,-0.12438131868839264,0.05307823419570923
1772594500200863000,3.193863037109375,0.041903868317604065,-0.09391787648200989,0.04110569879412651
1772594500221127000,3.214126953125,0.041903868317604065,-0.10948216915130615,0.05454154312610626
1772594500241390000,3.23439013671875,0.026605630293488503,-0.07183520495891571,0.036582741886377335
1772594500261654000,3.254654052734375,-0.013701899908483028,0.2677856683731079,0.0862022414803505
1772594500281918000,3.27491796875,-0.04243598133325577,0.3583778440952301,0.06598196178674698
1772594500302181000,3.29518115234375,-0.028334995731711388,0.27696460485458374,0.03990844637155533
1772594500322445000,3.315445068359375,-0.017027603462338448,0.23679010570049286,0.01982119493186474
1772594500342709000,3.335708984375,-0.0063853515312075615,0.10961519926786423,0.00572021072730422
1772594500362972000,3.355971923828125,-0.014500068500638008,0.19821195304393768,0.003325703786686063
1772594500383236000,3.376236083984375,-0.0037247883155941963,0.05148189514875412,0.0009311970788985491
1772594500403500000,3.3965,-0.0009311970788985491,0.013302815146744251,0.00026605630409903824
1772594500423763000,3.416762939453125,-0.00026605630409903824,0.0034587320405989885,0
1772594500444027000,3.43702685546875,0.043766263872385025,-0.10722068697214127,0.01888999715447426
1772594500464291000,3.457291015625,0.033789150416851044,-0.0828765407204628,0.014500068500638008
1772594500484554000,3.477553955078125,0.008779858238995075,-0.021550560370087624,0.0037247883155941963
1772594500504818000,3.49781787109375,0.0022614786867052317,-0.0055871824733912945,0.0009311970788985491
1772594500525082000,3.51808203125,0.09285365045070648,-0.21829919517040253,0.02447718009352684
1772594500545345000,3.538344970703125,0.05560576915740967,-0.23639102280139923,0.004655985161662102
1772594500565609000,3.55860888671875,0.044697459787130356,-0.22348730266094208,0.0039908443577587605
1772594500585873000,3.578872802734375,0.011573448777198792,-0.05800027400255203,0.001064225216396153
1772594500606136000,3.599135986328125,0.05986266955733299,-0.17719349265098572,0.014367040246725082
1772594500626400000,3.61939990234375,0.01556429360061884,-0.04602774232625961,0.0037247883155941963
1772594500646664000,3.639663818359375,0.04895436018705368,-0.166817307472229,0.0006651407456956804
1772594500666927000,3.659927001953125,0.012770703062415123,-0.0433671772480011,0.00013302815204951912
1772594500687191000,3.68019091796875,0.05893146991729736,-0.1322299838066101,-0.0009311970788985491
1772594500707455000,3.700455078125,0.015298237092792988,-0.03432126343250275,-0.00026605630409903824
1772594500727718000,3.7207177734375,0.030596474185585976,0.05028464272618294,0.020885419100522995
1772594500747982000,3.740982177734375,0.021417532116174698,0.04323415085673332,0.016096405684947968
1772594500768246000,3.76124609375,0.01396795641630888,0.13050061464309692,0.0345873199403286
1772594500788509000,3.781509033203125,0.0035917600616812706,0.03392218053340912,0.008912886492908001
1772594500808773000,3.801773193359375,0.0009311970788985491,0.008779858238995075,0.0023945067077875137
1772594500829037000,3.822037109375,0.023945067077875137,0.05028464272618294,0.04363323375582695
1772594500849300000,3.842300048828125,0.01822485774755478,0.037513937801122665,0.03325703740119934
1772594500869564000,3.86256396484375,-0.0038578163366764784,0.1009683683514595,0.01915605366230011
1772594500889828000,3.882828125,-0.005321125965565443,0.07263337075710297,0.010376195423305035
1772594500910091000,3.903091064453125,-0.026605630293488503,0.17519807815551758,0.01556429360061884
1772594500930355000,3.92335498046875,-0.03046344593167305,0.18703758716583252,0.015830349177122116
1772594500950619000,3.943618896484375,-0.00784866139292717,0.04855527728796005,0.004123872611671686
1772594500970882000,3.963882080078125,-0.0019954221788793802,0.012637674808502197,0.001064225216396153
1772594500991146000,3.98414599609375,-0.0005321126081980765,0.003325703786686063,0.00026605630409903824
1772594501011410000,4.004409912109375,-0.00013302815204951912,0.0007981689414009452,0.00013302815204951912
1772594501031673000,4.024673095703125,0,0.00026605630409903824,0
1772594501051937000,4.04493701171875,0.04270203784108162,-0.10229864716529846,0.0038578163366764784
1772594501072201000,4.065200927734375,0.03285795450210571,-0.07861963659524918,0.0029266192577779293
1772594501092464000,4.085464111328125,0.05028464272618294,-0.2129780650138855,-0.0130367586389184
1772594501112728000,4.10572802734375,0.0130367586389184,-0.055339712649583817,-0.0034587320405989885
1772594501132992000,4.125991943359375,0.003325703786686063,-0.014367040246725082,-0.0009311970788985491
1772594501153255000,4.1462548828125,0.048156190663576126,-0.12105561792850494,-0.02860105223953724
1772594501173519000,4.16651904296875,0.010642251931130886,0.08367470651865005,-0.0219496451318264
1772594501193783000,4.186782958984375,-0.03538548946380615,0.38325411081314087,-0.027536828070878983
1772594501214046000,4.2070458984375,-0.027536828070878983,0.2978500425815582,-0.02035330794751644
1772594501234310000,4.227309814453125,-0.012637674808502197,0.14726217091083527,-0.010642251931130886
1772594501254574000,4.247573974609375,-0.003325703786686063,0.03817908093333244,-0.0027935912366956472
1772594501274837000,4.2678369140625,0.01915605366230011,0.09671146422624588,-0.05281217768788338
1772594501295101000,4.288100830078125,0.004922041669487953,0.02514232136309147,-0.013701899908483028
1772594501315365000,4.308365234375,0.0013302814913913608,0.0065183793194592,-0.0035917600616812706
1772594501335628000,4.3286279296875,0.03671576827764511,0.05121583864092827,0.00026605630409903824
1772594501355892000,4.34889208984375,0.02101844735443592,0.14260618388652802,0.004922041669487953
1772594501376156000,4.369156005859375,0.0018623941577970982,0.09006005525588989,0.0034587320405989885
1772594501396420000,4.389420166015625,0.0005321126081980765,0.023412954062223434,0.0009311970788985491
1772594501416683000,4.40968310546875,0.00013302815204951912,0.00611929502338171,0.00026605630409903824
1772594501436947000,4.429947021484375,0.030862530693411827,-0.0872664675116539,-0.008247745223343372
1772594501457394000,4.450393798828125,0.038445137441158295,-0.20127159357070923,-0.00944499857723713
1772594501477657000,4.470656982421875,0.040307529270648956,-0.29292798042297363,-0.005321125965565443
1772594501497921000,4.490921142578125,0.04017450287938118,-0.2902674376964569,-0.0031926757656037807
1772594501518185000,4.51118505859375,0.019555138424038887,-0.13967956602573395,-0.0013302814913913608
1772594501538448000,4.53144775390625,0.03445428982377052,-0.14792729914188385,-0.0019954221788793802
1772594501558712000,4.551712158203125,0.023945067077875137,-0.09524815529584885,-0.0013302814913913608
1772594501578976000,4.57197607421875,0.006252323277294636,-0.02474323660135269,-0.0003990844707004726
1772594501599239000,4.592239013671875,0.0015963378828018904,-0.0063853515312075615,-0.00013302815204951912
1772594501619503000,4.612503173828125,0.04363323375582695,-0.08088111877441406,-0.0039908443577587605
1772594501639767000,4.63276708984375,0.03325703740119934,-0.061325978487730026,-0.003059647511690855
1772594501660030000,4.653030029296875,0.00864682998508215,-0.015963377431035042,-0.0007981689414009452
1772594501680294000,4.6732939453125,0.012105561792850494,0.0971105545759201,0.0023945067077875137
1772594501700558000,4.69355810546875,-0.004123872611671686,0.17745955288410187,0.007316548377275467
1772594501720821000,4.713821044921875,-0.007316548377275467,0.09737660735845566,0.004655985161662102
1772594501741085000,4.7340849609375,-0.0018623941577970982,0.025275349617004395,0.0011972533538937569
1772594501761349000,4.75434912109375,-0.0005321126081980765,0.0065183793194592,0.00026605630409903824
1772594501781612000,4.774612060546875,0.040972672402858734,0.09963808953762054,-0.0009311970788985491
1772594501801876000,4.7948759765625,0.033390067517757416,-0.07702329754829407,-0.0065183793194592
1772594501822140000,4.815139892578125,0.020220279693603516,-0.07236731797456741,-0.004922041669487953
1772594501842403000,4.835403076171875,0.005188097711652517,-0.018756968900561333,-0.0013302814913913608
1772594501862667000,4.8556669921875,0.027802884578704834,-0.10243167728185654,-0.017692744731903076
1772594501882931000,4.875930908203125,0.020619364455342293,-0.07635816186666489,-0.013435843400657177
1772594501903194000,4.896194091796875,0.046293795108795166,-0.1136060431599617,-0.008380773477256298
1772594501923458000,4.9164580078125,0.03285795450210571,-0.07728935778141022,-0.004655985161662102
1772594501943722000,4.936721923828125,0.008513801731169224,-0.02008725143969059,-0.0011972533538937569
1772594501963985000,4.95698486328125,0.0022614786867052317,-0.005188097711652517,-0.00026605630409903824
1772594501984249000,4.9772490234375,0.09977111220359802,0.03884422034025192,-0.03046344593167305
1772594502004513000,4.997512939453125,0.025940489023923874,0.010110139846801758,-0.00784866139292717
1772594502024776000,5.01777587890625,0.09830780327320099,0.12172076106071472,-0.023679010570049286
1772594502045040000,5.0380400390625,0.05627090856432915,0.09737660735845566,-0.010110139846801758
1772594502065304000,5.058303955078125,0.030197391286492348,0.05879844352602959,-0.004655985161662102
1772594502085567000,5.07856689453125,0.00784866139292717,0.015298237092792988,-0.0011972533538937569
1772594502105831000,5.098830810546875,0.0019954221788793802,0.0039908443577587605,-0.00026605630409903824
1772594502126095000,5.11909521484375,0.014367040246725082,0.12092258781194687,-0.005055069923400879
1772594502146358000,5.13935791015625,-0.014633096754550934,0.13076667487621307,0.006252323277294636
1772594502166622000,5.1596220703125,-0.013169786892831326,0.08460590243339539,0.005454154219478369
1772594502186886000,5.179885986328125,-0.06358745694160461,0.39096975326538086,0.011041336692869663
1772594502207149000,5.200149169921875,-0.05427548661828041,0.3042353689670563,0.008114716969430447
1772594502227413000,5.2204130859375,-0.04549562931060791,0.2619324326515198,0.004922041669487953
1772594502247677000,5.240677001953125,-0.011839505285024643,0.06797738373279572,0.0013302814913913608
1772594502267940000,5.260940185546875,-0.009977111592888832,0.1525832861661911,-0.005188097711652517
1772594502288204000,5.2812041015625,-0.0026605629827827215,0.03964238986372948,-0.0013302814913913608
1772594502308468000,5.301468017578125,0.026871686801314354,-0.1009683683514595,-0.0027935912366956472
1772594502328732000,5.32173193359375,0.02101844735443592,-0.0828765407204628,-0.0019954221788793802
1772594502348995000,5.3419951171875,0.005454154219478369,-0.021550560370087624,-0.0005321126081980765
1772594502369259000,5.362259033203125,0.0014633096288889647,-0.0055871824733912945,-0.00013302815204951912
1772594502389523000,5.38252294921875,0.04296809434890747,0.01982119493186474,0.03445428982377052
1772594502409786000,5.4027861328125,0.03285795450210571,0.015963377431035042,0.026472602039575577
1772594502430050000,5.423050048828125,0.06159203499555588,-0.08327562361955643,-0.01476612500846386
1772594502450314000,5.44331396484375,0.09045914560556412,-0.19901011884212494,-0.04549562931060791
1772594502470577000,5.463576904296875,0.10030322521924973,-0.25049200654029846,-0.06624802201986313
1772594502490841000,5.483841064453125,0.10602343827486038,-0.19834497570991516,-0.07861963659524918
1772594502511105000,5.50410498046875,0.08992703258991241,-0.040307529270648956,-0.08021597564220428
1772594502531368000,5.524367919921875,0.05693604797124863,0.10881702601909637,-0.08154625445604324
1772594502551632000,5.5446318359375,0.03285795450210571,0.12531252205371857,-0.08819766342639923
1772594502571896000,5.56489599609375,0.013701899908483028,0.0570690780878067,-0.04642682522535324
1772594502592159000,5.585158935546875,0.04137175530195236,-0.10056928545236588,-0.09152337163686752
1772594502612423000,5.6054228515625,0.042169924825429916,-0.10988125205039978,-0.029665278270840645
1772594502632687000,5.62568701171875,0.026871686801314354,-0.07130309194326401,-0.010775280185043812
1772594502652950000,5.645949951171875,0.037513937801122665,0.11214273422956467,0.026472602039575577
1772594502673214000,5.6662138671875,0.00971105508506298,0.029133165255188942,0.006917464081197977
1772594502693478000,5.686477783203125,-0.21550559997558594,0.10176653414964676,0.13050061464309692
1772594502713741000,5.706740966796875,-0.6697967648506165,0.003059647511690855,0.11919322609901428
1772594502734005000,5.7270048828125,-0.7738247513771057,-0.02354598231613636,0.12318406999111176
1772594502754269000,5.74726904296875,-0.6834986209869385,0.0029266192577779293,0.13023455440998077
1772594502774532000,5.767531982421875,-0.5540622472763062,0.033789150416851044,0.14579886198043823
1772594502794796000,5.787796142578125,-0.4436488747596741,0.08739949762821198,0.1471291333436966
1772594502815060000,5.80806005859375,-0.36476320028305054,0.1295694261789322,0.1360878050327301
1772594502835323000,5.828322998046875,-0.30609777569770813,0.10123442113399506,0.12863822281360626
1772594502855587000,5.848587158203125,-0.2756343185901642,0.11333998292684555,0.13422539830207825
1772594502875851000,5.86885107421875,-0.20925328135490417,0.033789150416851044,0.12970244884490967
1772594502896114000,5.889114013671875,-0.20340004563331604,0.004655985161662102,0.15271632373332977
1772594502916378000,5.909378173828125,-0.17985406517982483,0.020486336201429367,0.16322554647922516
1772594502936642000,5.92964208984375,-0.13409237563610077,0.00864682998508215,0.16016589105129242
1772594502956905000,5.949905029296875,-0.01569732278585434,-0.06771133095026016,0.1394135057926178
1772594502977169000,5.9701689453125,0.41291937232017517,-0.10017019510269165,0.11041336506605148
1772594502997433000,5.99043310546875,0.707310676574707,-0.025940489023923874,0.0351194329559803
1772594503017696000,6.010696044921875,0.6411957144737244,-0.010775280185043812,-0.022481758147478104
1772594503037960000,6.0309599609375,0.4999198019504547,0.012105561792850494,-0.05334429070353508
1772594503058224000,6.05122412109375,0.34001997113227844,0.010376195423305035,-0.0658489316701889
1772594503078487000,6.071487060546875,0.29252889752388,0.016229433938860893,-0.08859674632549286
1772594503098751000,6.0917509765625,0.23625800013542175,0.016096405684947968,-0.10309682041406631
1772594503119015000,6.112014892578125,0.19355596601963043,0.0025275349617004395,-0.10934913903474808
1772594503139278000,6.132278076171875,0.15111997723579407,0.03711485490202904,-0.10176653414964676
1772594503159542000,6.1525419921875,0.12345012277364731,0.0526791475713253,-0.08034900575876236
1772594503179806000,6.172805908203125,0.05959661304950714,0.025541406124830246,-0.036582741886377335
1772594503200069000,6.193069091796875,0.1415419578552246,-0.005055069923400879,-0.061991117894649506
1772594503220333000,6.2133330078125,0.09045914560556412,0.09870688617229462,-0.041903868317604065
1772594503240597000,6.233596923828125,0.02354598231613636,0.025674432516098022,-0.010908308438956738
1772594503260860000,6.25385986328125,0.057601191103458405,0.05560576915740967,-0.017692744731903076
1772594503281124000,6.2741240234375,0.041238728910684586,0.039376333355903625,-0.012105561792850494
1772594503301388000,6.294387939453125,0.047890134155750275,0.06930766999721527,-0.027137743309140205
1772594503321651000,6.31465087890625,0.03139464557170868,0.04802316427230835,-0.019289081916213036
1772594503341915000,6.334914794921875,0.07542695850133896,-0.08966097235679626,-0.04682590812444687
1772594503362179000,6.355178955078125,0.019555138424038887,-0.02327992580831051,-0.012105561792850494
1772594503382442000,6.37544189453125,0.09538118541240692,-0.06451865285634995,-0.06119294837117195
1772594503402706000,6.395705810546875,0.08167928457260132,-0.10123442113399506,-0.06052780896425247
1772594503422970000,6.41597021484375,0.08899583667516708,-0.15271632373332977,-0.08686738461256027
1772594503443233000,6.43623291015625,0.07117006182670593,-0.1218537837266922,-0.09311970323324203
1772594503463497000,6.4564970703125,0.03285795450210571,-0.05188097804784775,-0.04749105125665665
1772594503483761000,6.476760986328125,0.05440851300954819,0.0070504918694496155,-0.06997280567884445
1772594503504024000,6.497024169921875,0.037513937801122665,0.012371618300676346,-0.04762407764792442
1772594503524288000,6.5172880859375,0.05188097804784775,-0.09444998949766159,-0.047890134155750275
1772594503544552000,6.537552001953125,0.013435843400657177,-0.02447718009352684,-0.012504646554589272
1772594503564815000,6.557815185546875,0.0034587320405989885,-0.0063853515312075615,-0.0031926757656037807
1772594503585079000,6.5780791015625,0.0009311970788985491,-0.0015963378828018904,-0.0007981689414009452
1772594503605343000,6.598343017578125,0.016894575208425522,-0.04522957280278206,-0.05400943011045456
1772594503625607000,6.61860693359375,0.012903730385005474,-0.0345873199403286,-0.04150478169322014
1772594503645870000,6.6388701171875,0.003325703786686063,-0.008912886492908001,-0.010775280185043812
1772594503666134000,6.659134033203125,0.0009311970788985491,-0.0023945067077875137,-0.0027935912366956472
1772594503686398000,6.67939794921875,0.04150478169322014,-0.03418823331594467,-0.04642682522535324
1772594503706661000,6.6996611328125,0.03179372847080231,-0.025940489023923874,-0.03538548946380615
1772594503726925000,6.719925048828125,0.008247745223343372,-0.006784435827285051,-0.009178942069411278
1772594503747189000,6.74018896484375,0.002128450432792306,-0.0017293660202994943,-0.0023945067077875137
1772594503767452000,6.760451904296875,0.0005321126081980765,-0.0003990844707004726,-0.0006651407456956804
1772594503787716000,6.780716064453125,0.00013302815204951912,-0.00013302815204951912,-0.00013302815204951912
1772594503807980000,6.80097998046875,0,0,0
1772594503828243000,6.821242919921875,0.10722068697214127,-0.02633957378566265,0.013834928162395954
1772594503848507000,6.8415068359375,0.08247745782136917,-0.020220279693603516,0.010642251931130886
1772594503868771000,6.86177099609375,0.12877124547958374,-0.03285795450210571,0.008380773477256298
1772594503889034000,6.882033935546875,0.08819766342639923,-0.02261478640139103,0.004922041669487953
1772594503909298000,6.9022978515625,0.17253752052783966,-0.0653168261051178,0.031261615455150604
1772594503929562000,6.92256201171875,0.18637244403362274,-0.14739519357681274,0.03605062887072563
1772594503949825000,6.942824951171875,0.19714772701263428,-0.17386779189109802,0.025940489023923874
1772594503970089000,6.9630888671875,0.17759257555007935,-0.10775279998779297,0.01915605366230011
1772594503990353000,6.983352783203125,0.16641822457313538,-0.09085822850465775,0.01915605366230011
1772594504010616000,7.003615966796875,0.19395504891872406,-0.1371520310640335,0.015431265346705914
1772594504030880000,7.0238798828125,0.18983116745948792,-0.1817164570093155,0.0014633096288889647
1772594504051144000,7.04414404296875,0.18251462280750275,-0.1652209609746933,-0.008247745223343372
1772594504071407000,7.064406982421875,0.17692744731903076,-0.17373476922512054,-0.017825772985816002
1772594504091671000,7.084671142578125,0.08979400247335434,-0.0949821025133133,-0.010908308438956738
1772594504111935000,7.10493505859375,0.17439991235733032,0.1448676586151123,-0.008380773477256298
1772594504132198000,7.125197998046875,0.09524815529584885,0.25102412700653076,0.027137743309140205
1772594504152462000,7.145462158203125,0.07649118453264236,0.14739519357681274,0.03884422034025192
1772594504172726000,7.16572607421875,0.041903868317604065,0.06372048705816269,0.023013871163129807
1772594504192989000,7.185989013671875,0.11440420895814896,0.03352309390902519,0.04842224717140198
1772594504213253000,7.206253173828125,0.06358745694160461,-0.16482187807559967,-0.11240878701210022
1772594504233517000,7.22651708984375,0.01223859004676342,-0.5097638964653015,-0.2558131217956543
1772594504253780000,7.246780029296875,-0.02101844735443592,-0.7275309562683105,-0.344808965921402
1772594504274044000,7.2670439453125,-0.0219496451318264,-0.8806463479995728,-0.35970813035964966
1772594504294308000,7.28730810546875,-0.0063853515312075615,-0.9280043840408325,-0.3100886344909668
1772594504314585000,7.307585205078125,-0.0130367586389184,-0.9143024682998657,-0.21923039853572845
1772594504334849000,7.32784912109375,-0.05374337360262871,-0.7083749175071716,0.1492575854063034
1772594504355112000,7.34811181640625,-0.24690024554729462,-0.32139602303504944,0.45043331384658813
1772594504375376000,7.3683759765625,-0.5810669660568237,0.15218420326709747,0.6151221990585327
1772594504395640000,7.38864013671875,-0.6804389953613281,0.7211456298828125,0.885036289691925
1772594504415903000,7.408903076171875,-0.6804389953613281,1.20097815990448,0.9544770121574402
1772594504436167000,7.4291669921875,-0.882774829864502,1.7467926740646362,1.2674921751022339
1772594504456431000,7.44943115234375,-1.4932409524917603,2.089473247528076,2.0221610069274902
1772594504476694000,7.469694091796875,-2.2520334720611572,1.5620166063308716,2.872476816177368
1772594504496958000,7.4899580078125,-2.029078483581543,1.1782302856445312,3.458066701889038
1772594504517222000,7.510221923828125,-0.38179078698158264,0.804554283618927,3.8880138397216797
1772594504537485000,7.530485107421875,-0.5684292912483215,0.46519944071769714,4.05057430267334
1772594504557749000,7.5507490234375,-2.2975292205810547,0.44537824392318726,3.935238838195801
1772594504578013000,7.571012939453125,-2.341827630996704,0.8330222964286804,3.4422364234924316
1772594504598276000,7.591276123046875,-2.051826238632202,1.2257213592529297,2.721090793609619
1772594504618540000,7.6115400390625,-2.0132479667663574,1.436437964439392,1.9793258905410767
1772594504638804000,7.631803955078125,-2.093597173690796,1.6695033311843872,1.2635014057159424
1772594504659068000,7.65206787109375,-2.0132479667663574,2.3084375858306885,0.4417864978313446
1772594504679331000,7.6723310546875,-1.9281100034713745,2.9131834506988525,-0.16668426990509033
1772594504699595000,7.692594970703125,-2.024156332015991,3.574333429336548,-0.5867871642112732
1772594504719859000,7.71285888671875,-2.279703378677368,4.058689117431641,-0.9515503644943237
1772594504740122000,7.7331220703125,-2.6976778507232666,4.148349761962891,-0.762783408164978
1772594504760386000,7.753385986328125,-3.1967995166778564,4.0546979904174805,0.09671146422624588
1772594504780650000,7.77364990234375,-3.639517307281494,3.2163546085357666,0.9691100716590881
1772594504800913000,7.793912841796875,-3.857018232345581,2.4184517860412598,1.3703229427337646
1772594504821177000,7.814177001953125,-3.89107346534729,2.1002485752105713,1.2339690923690796
1772594504841441000,7.83444091796875,-3.6882054805755615,1.751847743988037,1.0883033275604248
1772594504861704000,7.854703857421875,-3.164207696914673,1.2821253538131714,0.8567013144493103
1772594504881968000,7.874968017578125,-2.492947578430176,0.563640296459198,0.6235029697418213
1772594504902232000,7.895232177734375,-1.789760708808899,-0.47451141476631165,0.9757614731788635
1772594504922495000,7.915494873046875,-1.297290563583374,-1.159739375114441,1.6331865787506104
1772594504942759000,7.935759033203125,-0.8582976460456848,-1.815169095993042,2.3817360401153564
1772594504963023000,7.956023193359375,-0.4671948552131653,-2.174877166748047,2.5691726207733154
1772594504983286000,7.9762861328125,-0.35651543736457825,-2.039454698562622,2.5211496353149414
1772594505003550000,7.996550048828125,-0.6612829566001892,-1.538204550743103,2.5615901947021484
1772594505023814000,8.01681396484375,-0.9866697788238525,-1.0925601720809937,2.533388137817383
1772594505044077000,8.0370771484375,-1.2595105171203613,-0.7860633730888367,2.472461223602295
1772594505064341000,8.057341064453125,-1.4375022649765015,-0.5911771059036255,2.3701624870300293
1772594505084605000,8.07760498046875,-1.2923685312271118,-0.4669288098812103,1.997018575668335
1772594505104868000,8.0978681640625,-1.1775652170181274,-0.3601072132587433,1.7643523216247559
1772594505125132000,8.118132080078125,-1.2166755199432373,-0.24463877081871033,1.8694446086883545
1772594505145396000,8.13839599609375,-1.174505591392517,-0.13568872213363647,1.8609308004379272
1772594505165659000,8.158658935546875,-1.102404236793518,-0.04363323375582695,1.9287751913070679
1772594505185923000,8.178923095703125,-0.9737660884857178,0.004256900865584612,1.6185535192489624
1772594505206187000,8.19918701171875,-0.8757243156433105,0.0018623941577970982,1.147899866104126
1772594505226450000,8.219449951171875,-0.7742238640785217,-0.044431403279304504,0.7907193303108215
1772594505246714000,8.239714111328125,-0.5592503547668457,-0.06185809150338173,0.6385351419448853
1772594505266978000,8.25997802734375,-0.39935052394866943,-0.009977111592888832,0.8076139092445374
1772594505287241000,8.280240966796875,-0.3797953724861145,0.08886280655860901,1.2430150508880615
1772594505307505000,8.3005048828125,-0.27363890409469604,0.17799167335033417,1.2545884847640991
1772594505327769000,8.32076904296875,-0.2326662391424179,0.17187237739562988,0.9877340197563171
1772594505348032000,8.341031982421875,-0.17958800494670868,0.12265195697546005,0.7172877788543701
1772594505368296000,8.3612958984375,-0.11506935209035873,0.06425260007381439,0.5043097138404846
1772594505388560000,8.381559814453125,-0.06717921793460846,0.028468023985624313,0.3626347482204437
1772594505408823000,8.401822998046875,-0.0172936599701643,0.05361034348607063,0.2921298146247864
1772594505429087000,8.4220869140625,0.06518379598855972,0.1229180097579956,0.2717765271663666
1772594505459483000,8.45248291015625,0.11719780415296555,0.17094117403030396,0.17706046998500824
1772594505479746000,8.47274609375,0.08553709834814072,0.20406518876552582,0.12052350491285324
1772594505500010000,8.493010009765625,0.041903868317604065,0.246501162648201,0.061991117894649506
1772594505520274000,8.51327392578125,0.06119294837117195,0.2526204586029053,0.028334995731711388
1772594505540537000,8.533537109375,0.058532387018203735,0.2463681399822235,0.003325703786686063
1772594505560801000,8.553801025390625,0.03285795450210571,0.24410666525363922,-0.016096405684947968
1772594505581065000,8.57406494140625,-0.06757830083370209,0.42515796422958374,-0.01915605366230011
1772594505601328000,8.594328125,-0.35757967829704285,0.7425631284713745,-0.04549562931060791
1772594505621592000,8.614592041015625,-0.4143826961517334,0.7706320881843567,-0.04602774232625961
1772594505641856000,8.63485595703125,-0.33988693356513977,0.6415947675704956,-0.040972672402858734
1772594505662119000,8.655118896484375,-0.2624645531177521,0.49486473202705383,-0.035917602479457855
1772594505682383000,8.675383056640625,-0.181583434343338,0.3764696717262268,-0.019555138424038887
1772594505702647000,8.69564697265625,-0.050683725625276566,0.33124008774757385,0.02447718009352684
1772594505722910000,8.715909912109375,0.00971105508506298,0.2947903871536255,0.06505076587200165
1772594505743174000,8.736173828125,0.019688166677951813,0.2168358862400055,0.08646830171346664
1772594505763438000,8.75643798828125,0.051614921540021896,0.20872117578983307,0.11919322609901428
1772594505783701000,8.776700927734375,0.09405090659856796,0.201936736702919,0.13183090090751648
1772594505803965000,8.79696484375,0.08660132437944412,0.18969814479351044,0.1179959699511528
1772594505824229000,8.81722900390625,0.05839935690164566,0.18477609753608704,0.0949821025133133
1772594505844492000,8.837491943359375,0.07622513175010681,0.20592758059501648,0.0905921682715416
1772594505864756000,8.857755859375,0.12664279341697693,0.23532679677009583,0.09777569025754929
1772594505885020000,8.87802001953125,0.13848230242729187,0.24251031875610352,0.09285365045070648
1772594505905283000,8.898282958984375,0.10309682041406631,0.26858383417129517,0.07635816186666489
1772594505925547000,8.918547119140625,0.015431265346705914,0.24743236601352692,0.03924330323934555
1772594505945811000,8.93881103515625,0.03525245934724808,0.2776297628879547,0.04948647320270538
1772594505966074000,8.95907421875,0.038445137441158295,0.20712482929229736,0.047224994748830795
