time,seconds_elapsed,z,y,x
1772384412378530800,0.30053076171875,9.855000495910645,0.2179500162601471,0.28905001282691956
1772384412398588000,0.320587890625,9.87405014038086,0.21105000376701355,0.28905001282691956
1772384412418645200,0.340645263671875,9.868950843811035,0.18000000715255737,0.25995001196861267
1772384412438702300,0.360702392578125,9.880950927734375,0.25394999980926514,0.3150000274181366
1772384412458760000,0.380760009765625,9.895050048828125,0.2179500162601471,0.2939999997615814
1772384412478817000,0.400817138671875,9.87405014038086,0.19200000166893005,0.2939999997615814
1772384412498874400,0.420874267578125,9.83595085144043,0.20205001533031464,0.2740500271320343
1772384412518931700,0.440931640625,9.84000015258789,0.2179500162601471,0.2650500237941742
1772384412538988800,0.46098876953125,9.844950675964355,0.24000000953674316,0.3079500198364258
1772384412559046100,0.481046142578125,9.83595085144043,0.21105000376701355,0.28200000524520874
1772384412579103200,0.501103271484375,9.784950256347656,0.22605000436306,0.27000001072883606
1772384412599160600,0.52116064453125,9.79995059967041,0.21105000376701355,0.2580000162124634
1772384412619218000,0.541218017578125,9.892950057983398,0.2350500077009201,0.2050500065088272
1772384412639275000,0.56127490234375,9.93600082397461,0.17295001447200775,0.322050005197525
1772384412659332400,0.581332275390625,10.020000457763672,0.25394999980926514,0.29100000858306885
1772384412679389700,0.6013896484375,10.030050277709961,0.2569500207901001,0.364950031042099
1772384412699447000,0.621447021484375,9.879000663757324,0.29295000433921814,0.4320000112056732
1772384412719504100,0.641504150390625,9.784950256347656,0.20595000684261322,0.2550000250339508
1772384412739561500,0.6615615234375,9.706050872802734,0.16095000505447388,0.28200000524520874
1772384412759618600,0.68161865234375,9.784950256347656,0.2179500162601471,0.23595000803470612
1772384412779676000,0.701676025390625,9.86205005645752,0.25200000405311584,0.2740500271320343
1772384412799733200,0.721733154296875,9.88800048828125,0.19005000591278076,0.31800001859664917
1772384412819790300,0.741790283203125,9.916950225830078,0.21105000376701355,0.31005001068115234
1772384412839847700,0.76184765625,9.898050308227539,0.24195000529289246,0.33900001645088196
1772384412859905000,0.781905029296875,9.892950057983398,0.2350500077009201,0.32895001769065857
1772384412879962400,0.80196240234375,9.871050834655762,0.22995001077651978,0.3340500295162201
1772384412900019500,0.82201953125,9.880950927734375,0.23295001685619354,0.3340500295162201
1772384412920076800,0.842076904296875,9.883050918579102,0.24000000953674316,0.322050005197525
1772384412940134100,0.862134033203125,9.856950759887695,0.22605000436306,0.322050005197525
1772384412960191200,0.882191162109375,9.856950759887695,0.22095000743865967,0.3060000240802765
1772384412980248600,0.90224853515625,9.86205005645752,0.22305001318454742,0.31005001068115234
1772384413000305700,0.9223056640625,9.86400032043457,0.22305001318454742,0.31005001068115234
1772384413020363000,0.942363037109375,9.868950843811035,0.21105000376701355,0.322050005197525
1772384413040420400,0.96242041015625,9.871050834655762,0.23295001685619354,0.3270000219345093
1772384413060477400,0.9824775390625,9.87600040435791,0.24000000953674316,0.3270000219345093
1772384413080534800,1.00253466796875,9.87405014038086,0.22995001077651978,0.31005001068115234
1772384413100591900,1.022591796875,9.8860502243042,0.24495001137256622,0.31995001435279846
1772384413120649500,1.0426494140625,9.87600040435791,0.23805001378059387,0.322050005197525
1772384413140706600,1.06270654296875,9.87405014038086,0.22800001502037048,0.3130500018596649
1772384413160764000,1.082763916015625,9.867000579833984,0.22800001502037048,0.31005001068115234
1772384413180821000,1.102821044921875,9.86205005645752,0.22800001502037048,0.3130500018596649
1772384413200878300,1.12287841796875,9.867000579833984,0.22995001077651978,0.31800001859664917
1772384413220935700,1.142935791015625,9.868950843811035,0.22605000436306,0.322050005197525
1772384413240992800,1.16299267578125,9.859950065612793,0.2179500162601471,0.3079500198364258
1772384413261050000,1.183050048828125,9.856950759887695,0.22605000436306,0.3060000240802765
1772384413281107500,1.203107421875,9.867000579833984,0.22995001077651978,0.30300000309944153
1772384413301164500,1.22316455078125,9.871050834655762,0.22095000743865967,0.31800001859664917
1772384413321222000,1.243221923828125,9.859950065612793,0.22095000743865967,0.31005001068115234
1772384413341279000,1.263279052734375,9.868950843811035,0.22995001077651978,0.31005001068115234
1772384413361336300,1.28333642578125,9.86400032043457,0.24000000953674316,0.3150000274181366
1772384413381393400,1.303393310546875,9.871050834655762,0.22800001502037048,0.3130500018596649
1772384413401451000,1.323450927734375,9.867000579833984,0.2179500162601471,0.3150000274181366
1772384413421508000,1.343508056640625,9.86205005645752,0.2179500162601471,0.31005001068115234
1772384413441565400,1.3635654296875,9.856950759887695,0.22305001318454742,0.3130500018596649
1772384413461622500,1.38362255859375,9.86205005645752,0.22605000436306,0.3079500198364258
1772384413481680000,1.403679931640625,9.86205005645752,0.2179500162601471,0.31005001068115234
1772384413501737200,1.4237373046875,9.86400032043457,0.2160000056028366,0.3079500198364258
1772384413521794300,1.443794189453125,9.86400032043457,0.2179500162601471,0.3079500198364258
1772384413541851600,1.4638515625,9.87405014038086,0.22995001077651978,0.3150000274181366
1772384413561908700,1.48390869140625,9.87600040435791,0.23295001685619354,0.3079500198364258
1772384413581966000,1.503966064453125,9.868950843811035,0.22605000436306,0.3079500198364258
1772384413602023200,1.524023193359375,9.871050834655762,0.22605000436306,0.3150000274181366
1772384413622080500,1.54408056640625,9.87405014038086,0.22995001077651978,0.31005001068115234
1772384413642137900,1.564137939453125,9.87405014038086,0.2350500077009201,0.31995001435279846
1772384413662195000,1.58419482421875,9.867000579833984,0.22800001502037048,0.3130500018596649
1772384413682252300,1.604252197265625,9.86205005645752,0.22095000743865967,0.3079500198364258
1772384413702309400,1.624309326171875,9.859950065612793,0.22605000436306,0.30300000309944153
1772384413722366700,1.64436669921875,9.87405014038086,0.21105000376701355,0.3079500198364258
1772384413742423800,1.664423828125,9.87405014038086,0.22605000436306,0.322050005197525
1772384413762481400,1.6844814453125,9.868950843811035,0.2179500162601471,0.322050005197525
1772384413782538500,1.70453857421875,9.868950843811035,0.22095000743865967,0.3130500018596649
1772384413802595800,1.724595947265625,9.87405014038086,0.22305001318454742,0.31995001435279846
1772384413822653000,1.74465283203125,9.87405014038086,0.22305001318454742,0.33195000886917114
1772384413842710300,1.764710205078125,9.871050834655762,0.22605000436306,0.31995001435279846
1772384413862767400,1.784767333984375,9.868950843811035,0.22605000436306,0.3079500198364258
1772384413882824700,1.80482470703125,9.859950065612793,0.22605000436306,0.3079500198364258
1772384413902882000,1.824882080078125,9.86400032043457,0.22800001502037048,0.3079500198364258
1772384413922939100,1.844939208984375,9.87405014038086,0.22605000436306,0.3130500018596649
1772384413942996500,1.86499658203125,9.868950843811035,0.2350500077009201,0.31005001068115234
1772384413963053600,1.885053466796875,9.850050926208496,0.22305001318454742,0.3150000274181366
1772384413983111000,1.90511083984375,9.867000579833984,0.21105000376701355,0.32505002617836
1772384414003168300,1.925168212890625,9.86400032043457,0.23295001685619354,0.31800001859664917
1772384414023225300,1.945225341796875,9.871050834655762,0.22995001077651978,0.31800001859664917
1772384414043282700,1.96528271484375,9.86205005645752,0.21405000984668732,0.3150000274181366
1772384414063340000,1.985340087890625,9.868950843811035,0.208950012922287,0.3130500018596649
1772384414083397000,2.005397216796875,9.86205005645752,0.21405000984668732,0.3130500018596649
1772384414103454500,2.025454345703125,9.86205005645752,0.22800001502037048,0.31995001435279846
1772384414123511600,2.045511474609375,9.87405014038086,0.22305001318454742,0.3130500018596649
1772384414143569000,2.06556884765625,9.87405014038086,0.22800001502037048,0.3150000274181366
1772384414163626000,2.0856259765625,9.856950759887695,0.22605000436306,0.3130500018596649
1772384414183683300,2.105683349609375,9.86205005645752,0.22305001318454742,0.3150000274181366
1772384414203740400,2.125740478515625,9.859950065612793,0.22605000436306,0.31995001435279846
1772384414223797800,2.1457978515625,9.867000579833984,0.23805001378059387,0.3150000274181366
1772384414243855000,2.165855224609375,9.867000579833984,0.22605000436306,0.31995001435279846
1772384414263912200,2.185912109375,9.879000663757324,0.2179500162601471,0.31995001435279846
1772384414283969500,2.205969482421875,9.87600040435791,0.22305001318454742,0.31005001068115234
1772384414304026600,2.226026611328125,9.859950065612793,0.22095000743865967,0.31800001859664917
1772384414324084000,2.246083984375,9.859950065612793,0.22605000436306,0.3150000274181366
1772384414344141000,2.26614111328125,9.867000579833984,0.23295001685619354,0.3150000274181366
1772384414364198400,2.286198486328125,9.867000579833984,0.22995001077651978,0.31800001859664917
1772384414384255500,2.30625537109375,9.86400032043457,0.22305001318454742,0.3150000274181366
1772384414404312800,2.326312744140625,9.850050926208496,0.21105000376701355,0.30300000309944153
1772384414424370200,2.3463701171875,9.867000579833984,0.2179500162601471,0.3150000274181366
1772384414444427300,2.36642724609375,9.86400032043457,0.22995001077651978,0.322050005197525
1772384414464484600,2.386484619140625,9.87600040435791,0.24195000529289246,0.3150000274181366
1772384414484541700,2.406541748046875,9.883050918579102,0.23805001378059387,0.322050005197525
1772384414504599000,2.42659912109375,9.856950759887695,0.22605000436306,0.3130500018596649
1772384414524656400,2.446656494140625,9.856950759887695,0.2179500162601471,0.3060000240802765
1772384414544713500,2.46671337890625,9.867000579833984,0.2179500162601471,0.322050005197525
1772384414564770800,2.486770751953125,9.868950843811035,0.22995001077651978,0.32505002617836
1772384414584828000,2.506827880859375,9.868950843811035,0.22305001318454742,0.3150000274181366
1772384414604885200,2.52688525390625,9.855000495910645,0.22095000743865967,0.30300000309944153
1772384414624942300,2.5469423828125,9.867000579833984,0.22800001502037048,0.3130500018596649
1772384414644999700,2.566999755859375,9.86400032043457,0.22095000743865967,0.3150000274181366
1772384414665056800,2.587056884765625,9.856950759887695,0.22305001318454742,0.31005001068115234
1772384414685114000,2.607114013671875,9.87600040435791,0.23805001378059387,0.32505002617836
1772384414705171200,2.627171142578125,9.867000579833984,0.22995001077651978,0.31005001068115234
1772384414725228500,2.647228515625,9.859950065612793,0.22605000436306,0.31800001859664917
1772384414745285600,2.66728564453125,9.867000579833984,0.2179500162601471,0.3150000274181366
1772384414765343000,2.687343017578125,9.87600040435791,0.2350500077009201,0.31800001859664917
1772384414785400000,2.707400146484375,9.868950843811035,0.2350500077009201,0.3150000274181366
1772384414805457400,2.72745751953125,9.879000663757324,0.22800001502037048,0.31800001859664917
1772384414825514500,2.747514404296875,9.867000579833984,0.22995001077651978,0.3150000274181366
1772384414845571800,2.76757177734375,9.867000579833984,0.22605000436306,0.31005001068115234
1772384414865629200,2.787629150390625,9.86205005645752,0.22800001502037048,0.3130500018596649
1772384414885686300,2.807686279296875,9.871050834655762,0.22995001077651978,0.31995001435279846
1772384414905743600,2.82774365234375,9.867000579833984,0.22800001502037048,0.3150000274181366
1772384414925800700,2.84780078125,9.859950065612793,0.22095000743865967,0.3150000274181366
1772384414945858000,2.867858154296875,9.871050834655762,0.22605000436306,0.3130500018596649
1772384414965915100,2.8879150390625,9.87405014038086,0.22305001318454742,0.31995001435279846
1772384414985972500,2.907972412109375,9.867000579833984,0.22305001318454742,0.3150000274181366
1772384415006029800,2.92802978515625,9.86400032043457,0.22995001077651978,0.3130500018596649
1772384415026087000,2.9480869140625,9.859950065612793,0.22095000743865967,0.3150000274181366
1772384415046144300,2.968144287109375,9.859950065612793,0.22305001318454742,0.3150000274181366
1772384415066201300,2.988201416015625,9.856950759887695,0.22995001077651978,0.3150000274181366
1772384415086258400,3.008258544921875,9.859950065612793,0.24000000953674316,0.322050005197525
1772384415106315500,3.0283154296875,9.87405014038086,0.23295001685619354,0.31800001859664917
1772384415126373000,3.048373046875,9.868950843811035,0.22305001318454742,0.31800001859664917
1772384415146430000,3.068429931640625,9.856950759887695,0.22095000743865967,0.32505002617836
1772384415166487300,3.0884873046875,9.856950759887695,0.22305001318454742,0.31995001435279846
1772384415186544600,3.108544677734375,9.87405014038086,0.22995001077651978,0.31005001068115234
1772384415206601700,3.128601806640625,9.871050834655762,0.22605000436306,0.3079500198364258
1772384415226659000,3.1486591796875,9.86400032043457,0.22095000743865967,0.31005001068115234
1772384415246716200,3.168716064453125,9.856950759887695,0.2160000056028366,0.3060000240802765
1772384415266773500,3.1887734375,9.855000495910645,0.22095000743865967,0.30300000309944153
1772384415286830600,3.20883056640625,9.85200023651123,0.22305001318454742,0.31995001435279846
1772384415306888000,3.228887939453125,9.86400032043457,0.23295001685619354,0.322050005197525
1772384415326945000,3.248945068359375,9.867000579833984,0.23295001685619354,0.3079500198364258
1772384415347002400,3.26900244140625,9.867000579833984,0.2350500077009201,0.3130500018596649
1772384415367059500,3.2890595703125,9.84795093536377,0.22305001318454742,0.322050005197525
1772384415387116800,3.30911669921875,9.859950065612793,0.2160000056028366,0.31995001435279846
1772384415407174000,3.329173828125,9.879000663757324,0.22800001502037048,0.3150000274181366
1772384415427231200,3.349231201171875,9.879000663757324,0.22800001502037048,0.3130500018596649
1772384415447288300,3.369288330078125,9.86205005645752,0.2179500162601471,0.322050005197525
1772384415467345400,3.389345458984375,9.855000495910645,0.2160000056028366,0.3150000274181366
1772384415487402800,3.40940283203125,9.86205005645752,0.21405000984668732,0.31800001859664917
1772384415507459800,3.4294599609375,9.868950843811035,0.22995001077651978,0.3130500018596649
1772384415527517200,3.44951708984375,9.871050834655762,0.23805001378059387,0.32505002617836
1772384415547574500,3.469574462890625,9.867000579833984,0.22305001318454742,0.322050005197525
1772384415567631600,3.489631591796875,9.850050926208496,0.21405000984668732,0.3130500018596649
1772384415587688700,3.509688720703125,9.84795093536377,0.2179500162601471,0.30300000309944153
1772384415607746000,3.52974609375,9.868950843811035,0.23295001685619354,0.31005001068115234
1772384415627803100,3.54980322265625,9.880950927734375,0.22305001318454742,0.3150000274181366
1772384415647860500,3.569860595703125,9.87600040435791,0.23295001685619354,0.33195000886917114
1772384415667917300,3.589917236328125,9.879000663757324,0.22995001077651978,0.3150000274181366
1772384415687974700,3.609974609375,9.859950065612793,0.23805001378059387,0.3079500198364258
1772384415708032000,3.630031982421875,9.859950065612793,0.2160000056028366,0.3150000274181366
1772384415728089000,3.650089111328125,9.85200023651123,0.21105000376701355,0.31995001435279846
1772384415748146200,3.670146240234375,9.855000495910645,0.22305001318454742,0.3150000274181366
1772384415768203500,3.69020361328125,9.856950759887695,0.22995001077651978,0.3150000274181366
1772384415788260600,3.710260498046875,9.859950065612793,0.24000000953674316,0.31995001435279846
1772384415808318000,3.73031787109375,9.868950843811035,0.24195000529289246,0.322050005197525
1772384415828375000,3.750375,9.86205005645752,0.22095000743865967,0.31995001435279846
1772384415848432000,3.77043212890625,9.867000579833984,0.22305001318454742,0.32505002617836
1772384415868489500,3.790489501953125,9.859950065612793,0.22305001318454742,0.322050005197525
1772384415888546600,3.810546630859375,9.868950843811035,0.22605000436306,0.3130500018596649
1772384415908604000,3.83060400390625,9.859950065612793,0.21105000376701355,0.3079500198364258
1772384415928661000,3.850660888671875,9.859950065612793,0.21405000984668732,0.3130500018596649
1772384415948718300,3.87071826171875,9.859950065612793,0.2350500077009201,0.3150000274181366
1772384415968775400,3.890775390625,9.856950759887695,0.22800001502037048,0.31800001859664917
1772384415988832800,3.910832763671875,9.867000579833984,0.22995001077651978,0.32505002617836
1772384416008889900,3.930889892578125,9.86205005645752,0.22995001077651978,0.31995001435279846
1772384416028947200,3.950947265625,9.86205005645752,0.22800001502037048,0.3150000274181366
1772384416049004300,3.97100439453125,9.871050834655762,0.2179500162601471,0.3130500018596649
1772384416069061400,3.991061279296875,9.868950843811035,0.22605000436306,0.31995001435279846
1772384416089118700,4.01111865234375,9.86205005645752,0.22605000436306,0.322050005197525
1772384416109175800,4.03117578125,9.859950065612793,0.22605000436306,0.3150000274181366
1772384416129233200,4.051233154296875,9.86205005645752,0.2179500162601471,0.31995001435279846
1772384416149290200,4.071290283203125,9.86205005645752,0.23295001685619354,0.31800001859664917
1772384416169347600,4.09134765625,9.856950759887695,0.22995001077651978,0.3150000274181366
1772384416189404700,4.11140478515625,9.85200023651123,0.22305001318454742,0.31995001435279846
1772384416209461800,4.131461669921875,9.859950065612793,0.22605000436306,0.322050005197525
1772384416229519000,4.15151904296875,9.855000495910645,0.22305001318454742,0.31995001435279846
1772384416249576200,4.171576171875,9.86205005645752,0.22995001077651978,0.31005001068115234
1772384416269633300,4.19163330078125,9.868950843811035,0.22605000436306,0.31800001859664917
1772384416289690600,4.211690673828125,9.868950843811035,0.22800001502037048,0.32505002617836
1772384416309747700,4.231747802734375,9.86205005645752,0.2179500162601471,0.31995001435279846
1772384416329804800,4.2518046875,9.867000579833984,0.22605000436306,0.3270000219345093
1772384416349862100,4.271862060546875,9.867000579833984,0.23295001685619354,0.31995001435279846
1772384416369919200,4.291919189453125,9.84795093536377,0.22095000743865967,0.3150000274181366
1772384416389976300,4.311976318359375,9.850050926208496,0.21105000376701355,0.31800001859664917
1772384416410033700,4.33203369140625,9.859950065612793,0.22095000743865967,0.3150000274181366
1772384416430091000,4.352091064453125,9.867000579833984,0.2160000056028366,0.31995001435279846
1772384416450147800,4.37214794921875,9.86205005645752,0.22605000436306,0.31800001859664917
1772384416470205200,4.392205078125,9.871050834655762,0.23295001685619354,0.3079500198364258
1772384416490262300,4.41226220703125,9.86205005645752,0.2350500077009201,0.31005001068115234
1772384416510319400,4.4323193359375,9.871050834655762,0.2350500077009201,0.31800001859664917
1772384416530376700,4.452376708984375,9.87600040435791,0.22995001077651978,0.32505002617836
1772384416550434000,4.47243408203125,9.868950843811035,0.22995001077651978,0.31800001859664917
1772384416570491000,4.492490966796875,9.868950843811035,0.22800001502037048,0.3150000274181366
1772384416590548200,4.51254833984375,9.867000579833984,0.2179500162601471,0.31995001435279846
1772384416610605600,4.53260546875,9.859950065612793,0.22605000436306,0.3130500018596649
1772384416630662700,4.55266259765625,9.855000495910645,0.22095000743865967,0.3150000274181366
1772384416650719700,4.5727197265625,9.859950065612793,0.22995001077651978,0.31995001435279846
1772384416670776800,4.59277685546875,9.871050834655762,0.2179500162601471,0.3150000274181366
1772384416690834200,4.612834228515625,9.867000579833984,0.22095000743865967,0.322050005197525
1772384416710891300,4.632891357421875,9.868950843811035,0.22095000743865967,0.31005001068115234
1772384416730948600,4.652948486328125,9.867000579833984,0.22605000436306,0.3150000274181366
1772384416751005700,4.673005615234375,9.87405014038086,0.22605000436306,0.31800001859664917
1772384416771063000,4.69306298828125,9.86400032043457,0.22800001502037048,0.32505002617836
1772384416791120000,4.713119873046875,9.859950065612793,0.22095000743865967,0.322050005197525
1772384416811177200,4.73317724609375,9.86205005645752,0.2350500077009201,0.31995001435279846
1772384416831234300,4.753234375,9.867000579833984,0.22605000436306,0.31800001859664917
1772384416851291600,4.773291748046875,9.859950065612793,0.22995001077651978,0.322050005197525
1772384416871348700,4.7933486328125,9.856950759887695,0.22305001318454742,0.31005001068115234
1772384416891405800,4.81340576171875,9.86400032043457,0.22305001318454742,0.3130500018596649
1772384416911463000,4.833462890625,9.867000579833984,0.22605000436306,0.3130500018596649
1772384416931520300,4.853520263671875,9.86205005645752,0.22095000743865967,0.3150000274181366
1772384416951577300,4.873577392578125,9.868950843811035,0.22305001318454742,0.32895001769065857
1772384416971634700,4.893634765625,9.868950843811035,0.22995001077651978,0.32505002617836
1772384416991691800,4.91369189453125,9.86400032043457,0.22995001077651978,0.31995001435279846
1772384417011748900,4.933748779296875,9.859950065612793,0.22095000743865967,0.3150000274181366
1772384417031806000,4.953805908203125,9.868950843811035,0.22605000436306,0.3150000274181366
1772384417051863300,4.97386328125,9.867000579833984,0.22095000743865967,0.3270000219345093
1772384417071920000,4.993920166015625,9.868950843811035,0.23295001685619354,0.32505002617836
1772384417091977500,5.0139775390625,9.868950843811035,0.22605000436306,0.3270000219345093
1772384417112034800,5.034034912109375,9.86205005645752,0.22305001318454742,0.322050005197525
1772384417132092000,5.054091796875,9.850050926208496,0.22605000436306,0.31995001435279846
1772384417152149200,5.074149169921875,9.850050926208496,0.22305001318454742,0.31005001068115234
1772384417172206000,5.0942060546875,9.856950759887695,0.22095000743865967,0.3150000274181366
1772384417192263400,5.114263427734375,9.86205005645752,0.22605000436306,0.31995001435279846
1772384417212320500,5.134320556640625,9.868950843811035,0.22605000436306,0.31800001859664917
1772384417232377900,5.1543779296875,9.87600040435791,0.23295001685619354,0.322050005197525
1772384417252434700,5.1744345703125,9.86400032043457,0.23295001685619354,0.322050005197525
1772384417272492000,5.194491943359375,9.86205005645752,0.22305001318454742,0.3150000274181366
1772384417292549000,5.214549072265625,9.868950843811035,0.23805001378059387,0.3079500198364258
1772384417312606200,5.234606201171875,9.867000579833984,0.22800001502037048,0.3270000219345093
1772384417332663300,5.254663330078125,9.867000579833984,0.22095000743865967,0.32505002617836
1772384417352720600,5.274720703125,9.84795093536377,0.2160000056028366,0.3150000274181366
1772384417372777700,5.29477783203125,9.87600040435791,0.23295001685619354,0.3130500018596649
1772384417392834800,5.314834716796875,9.86400032043457,0.22605000436306,0.322050005197525
1772384417412892000,5.334891845703125,9.868950843811035,0.22305001318454742,0.3270000219345093
1772384417432949200,5.35494921875,9.86400032043457,0.22800001502037048,0.31995001435279846
1772384417453006300,5.37500634765625,9.86400032043457,0.23295001685619354,0.322050005197525
1772384417473063700,5.395063720703125,9.868950843811035,0.22095000743865967,0.31005001068115234
1772384417493120800,5.415120849609375,9.86400032043457,0.22800001502037048,0.31800001859664917
1772384417513177900,5.435177734375,9.86400032043457,0.2160000056028366,0.31005001068115234
1772384417533235000,5.45523486328125,9.86205005645752,0.20595000684261322,0.31005001068115234
1772384417553292000,5.4752919921875,9.859950065612793,0.22305001318454742,0.322050005197525
1772384417573349000,5.49534912109375,9.856950759887695,0.23805001378059387,0.31800001859664917
1772384417593406500,5.515406494140625,9.859950065612793,0.23805001378059387,0.3270000219345093
1772384417613463600,5.535463623046875,9.859950065612793,0.22605000436306,0.31995001435279846
1772384417633521000,5.55552099609375,9.87405014038086,0.22095000743865967,0.3150000274181366
1772384417653578000,5.575577880859375,9.87405014038086,0.22605000436306,0.31005001068115234
1772384417673635000,5.595635009765625,9.868950843811035,0.22605000436306,0.3270000219345093
1772384417693692200,5.615692138671875,9.867000579833984,0.22305001318454742,0.322050005197525
1772384417713749500,5.63574951171875,9.867000579833984,0.22995001077651978,0.32895001769065857
1772384417733806300,5.655806396484375,9.856950759887695,0.22605000436306,0.3060000240802765
1772384417753863700,5.67586376953125,9.871050834655762,0.22095000743865967,0.31800001859664917
1772384417773920800,5.695920654296875,9.86205005645752,0.22305001318454742,0.32895001769065857
1772384417793978000,5.71597802734375,9.86205005645752,0.24000000953674316,0.32505002617836
1772384417814035000,5.736034912109375,9.87405014038086,0.22995001077651978,0.32505002617836
1772384417834092300,5.75609228515625,9.867000579833984,0.2160000056028366,0.31800001859664917
1772384417854149400,5.7761494140625,9.868950843811035,0.23295001685619354,0.3130500018596649
1772384417874206500,5.79620654296875,9.859950065612793,0.22095000743865967,0.31800001859664917
1772384417894263600,5.816263671875,9.850050926208496,0.21405000984668732,0.322050005197525
1772384417914320600,5.836320556640625,9.859950065612793,0.22995001077651978,0.31800001859664917
1772384417934378000,5.8563779296875,9.87600040435791,0.23295001685619354,0.32505002617836
1772384417954435000,5.87643505859375,9.871050834655762,0.2350500077009201,0.32505002617836
1772384417974492200,5.8964921875,9.868950843811035,0.22095000743865967,0.31995001435279846
1772384417994549200,5.91654931640625,9.86205005645752,0.21405000984668732,0.3150000274181366
1772384418014606600,5.936606689453125,9.867000579833984,0.22995001077651978,0.32895001769065857
1772384418034663700,5.95666357421875,9.867000579833984,0.22995001077651978,0.31800001859664917
1772384418054720800,5.976720703125,9.879000663757324,0.22305001318454742,0.32505002617836
1772384418074777900,5.99677783203125,9.868950843811035,0.22305001318454742,0.32505002617836
1772384418094835000,6.0168349609375,9.86205005645752,0.22995001077651978,0.3130500018596649
1772384418114892300,6.036892333984375,9.871050834655762,0.24000000953674316,0.31995001435279846
1772384418134949400,6.056949462890625,9.871050834655762,0.22995001077651978,0.31995001435279846
1772384418155006500,6.07700634765625,9.868950843811035,0.23805001378059387,0.322050005197525
1772384418175063600,6.0970634765625,9.867000579833984,0.22605000436306,0.3150000274181366
1772384418195120600,6.11712060546875,9.867000579833984,0.22605000436306,0.31800001859664917
1772384418215178000,6.137177978515625,9.867000579833984,0.22605000436306,0.31800001859664917
1772384418235235000,6.157235107421875,9.87405014038086,0.22800001502037048,0.32895001769065857
1772384418255292200,6.177292236328125,9.871050834655762,0.21405000984668732,0.3270000219345093
1772384418275349200,6.197349365234375,9.871050834655762,0.22095000743865967,0.3130500018596649
1772384418295406300,6.21740625,9.86400032043457,0.22800001502037048,0.31005001068115234
1772384418315463400,6.23746337890625,9.868950843811035,0.23295001685619354,0.3150000274181366
1772384418335520800,6.257520751953125,9.86400032043457,0.24195000529289246,0.32505002617836
1772384418355577900,6.277577880859375,9.86205005645752,0.22305001318454742,0.3150000274181366
1772384418375635200,6.29763525390625,9.86400032043457,0.22800001502037048,0.322050005197525
1772384418395692000,6.317692138671875,9.868950843811035,0.22995001077651978,0.3150000274181366
1772384418415749400,6.337749267578125,9.871050834655762,0.22995001077651978,0.3270000219345093
1772384418435806500,6.357806396484375,9.86205005645752,0.22605000436306,0.32505002617836
1772384418455863600,6.377863525390625,9.868950843811035,0.22095000743865967,0.31800001859664917
1772384418475920600,6.397920654296875,9.879000663757324,0.22305001318454742,0.31995001435279846
1772384418495977700,6.417977783203125,9.868950843811035,0.22305001318454742,0.322050005197525
1772384418516035000,6.43803515625,9.868950843811035,0.22605000436306,0.3150000274181366
1772384418536092200,6.458092041015625,9.86205005645752,0.22305001318454742,0.3270000219345093
1772384418556149200,6.478149169921875,9.867000579833984,0.22605000436306,0.3150000274181366
1772384418576206600,6.49820654296875,9.868950843811035,0.22995001077651978,0.31995001435279846
1772384418596263700,6.518263671875,9.871050834655762,0.23295001685619354,0.322050005197525
1772384418616320800,6.53832080078125,9.867000579833984,0.22305001318454742,0.31995001435279846
1772384418636378000,6.558378173828125,9.867000579833984,0.22800001502037048,0.31995001435279846
1772384418656435000,6.57843505859375,9.86400032043457,0.22095000743865967,0.3150000274181366
1772384418676492300,6.5984921875,9.871050834655762,0.22995001077651978,0.322050005197525
1772384418696549400,6.61854931640625,9.867000579833984,0.24000000953674316,0.31800001859664917
1772384418716606500,6.6386064453125,9.879000663757324,0.23805001378059387,0.3150000274181366
1772384418736663600,6.65866357421875,9.87600040435791,0.22605000436306,0.32505002617836
1772384418756721000,6.678720947265625,9.86400032043457,0.22800001502037048,0.32895001769065857
1772384418776777700,6.69877783203125,9.859950065612793,0.2160000056028366,0.3150000274181366
1772384418796835000,6.7188349609375,9.871050834655762,0.22995001077651978,0.31800001859664917
1772384418816892200,6.73889208984375,9.87600040435791,0.23295001685619354,0.3130500018596649
1772384418836949200,6.75894921875,9.87600040435791,0.22995001077651978,0.31995001435279846
1772384418857006600,6.779006591796875,9.867000579833984,0.2160000056028366,0.31995001435279846
1772384418877063700,6.799063720703125,9.868950843811035,0.22095000743865967,0.31800001859664917
1772384418897120800,6.819120849609375,9.87405014038086,0.22995001077651978,0.32505002617836
1772384418917177900,6.839177734375,9.867000579833984,0.23295001685619354,0.3270000219345093
1772384418937235000,6.85923486328125,9.867000579833984,0.22800001502037048,0.3270000219345093
1772384418957292300,6.879292236328125,9.868950843811035,0.22800001502037048,0.3130500018596649
1772384418977349400,6.899349365234375,9.86205005645752,0.22095000743865967,0.31800001859664917
1772384418997406500,6.919406494140625,9.868950843811035,0.22800001502037048,0.3150000274181366
1772384419017463600,6.939463623046875,9.87405014038086,0.2350500077009201,0.3130500018596649
1772384419037520600,6.959520751953125,9.86400032043457,0.24195000529289246,0.31995001435279846
1772384419057578000,6.979577880859375,9.868950843811035,0.22305001318454742,0.32505002617836
1772384419077635000,6.999635009765625,9.867000579833984,0.22605000436306,0.3150000274181366
1772384419097692200,7.019692138671875,9.87405014038086,0.22995001077651978,0.3130500018596649
1772384419117749200,7.039749267578125,9.867000579833984,0.22095000743865967,0.32895001769065857
1772384419137806600,7.059806640625,9.871050834655762,0.22995001077651978,0.322050005197525
1772384419157863400,7.079863525390625,9.855000495910645,0.22605000436306,0.3079500198364258
1772384419177920800,7.099920654296875,9.86205005645752,0.23295001685619354,0.3079500198364258
1772384419197977900,7.119977783203125,9.859950065612793,0.22800001502037048,0.31005001068115234
1772384419218035000,7.140034912109375,9.867000579833984,0.2350500077009201,0.31995001435279846
1772384419238092000,7.160092041015625,9.87405014038086,0.2179500162601471,0.32895001769065857
1772384419258149400,7.1801494140625,9.879000663757324,0.23295001685619354,0.31995001435279846
1772384419278206200,7.200206298828125,9.883050918579102,0.19395001232624054,0.3340500295162201
1772384419298263600,7.220263671875,9.859950065612793,0.2350500077009201,0.33900001645088196
1772384419318320600,7.240320556640625,9.88800048828125,0.22305001318454742,0.3130500018596649
1772384419338377700,7.260377685546875,9.84795093536377,0.22995001077651978,0.3150000274181366
1772384419358434800,7.280434814453125,9.867000579833984,0.23295001685619354,0.31995001435279846
1772384419378492200,7.3004921875,9.855000495910645,0.23295001685619354,0.30300000309944153
1772384419398549000,7.320549072265625,9.87600040435791,0.2350500077009201,0.33195000886917114
1772384419418606300,7.3406064453125,9.86400032043457,0.22605000436306,0.322050005197525
1772384419438663400,7.360663330078125,9.883050918579102,0.22800001502037048,0.33195000886917114
1772384419458720500,7.380720458984375,9.867000579833984,0.22095000743865967,0.3270000219345093
1772384419478777600,7.400777587890625,9.87600040435791,0.22800001502037048,0.33195000886917114
1772384419498834700,7.420834716796875,9.883050918579102,0.23295001685619354,0.32895001769065857
1772384419518891800,7.440891845703125,9.880950927734375,0.22095000743865967,0.32505002617836
1772384419538948900,7.460948974609375,9.868950843811035,0.2179500162601471,0.322050005197525
1772384419559006200,7.481006103515625,9.856950759887695,0.2160000056028366,0.31995001435279846
1772384419579063300,7.501063232421875,9.867000579833984,0.22800001502037048,0.31995001435279846
1772384419599120400,7.521120361328125,9.859950065612793,0.22605000436306,0.3130500018596649
1772384419619177500,7.541177490234375,9.87405014038086,0.22995001077651978,0.3150000274181366
1772384419639234600,7.561234619140625,9.867000579833984,0.22800001502037048,0.3340500295162201
1772384419659291600,7.581291748046875,9.87600040435791,0.22800001502037048,0.33705002069473267
1772384419679349000,7.601348876953125,9.879000663757324,0.23295001685619354,0.32895001769065857
1772384419699406000,7.621406005859375,9.883050918579102,0.22605000436306,0.32895001769065857
1772384419719463200,7.641463134765625,9.868950843811035,0.2179500162601471,0.3270000219345093
1772384419739520300,7.661520263671875,9.867000579833984,0.22605000436306,0.31800001859664917
1772384419759577300,7.681577392578125,9.86400032043457,0.2160000056028366,0.32505002617836
1772384419779634400,7.701634521484375,9.867000579833984,0.22095000743865967,0.32505002617836
1772384419799691800,7.72169189453125,9.87600040435791,0.23295001685619354,0.32505002617836
1772384419819748900,7.741748779296875,9.879000663757324,0.2350500077009201,0.31800001859664917
1772384419839806000,7.761805908203125,9.87405014038086,0.22800001502037048,0.32505002617836
1772384419859863000,7.781863037109375,9.87600040435791,0.22605000436306,0.32505002617836
1772384419879920000,7.801920166015625,9.86400032043457,0.2179500162601471,0.322050005197525
1772384419899977200,7.821977294921875,9.879000663757324,0.22095000743865967,0.322050005197525
1772384419920034300,7.842034423828125,9.871050834655762,0.22800001502037048,0.32505002617836
1772384419940091600,7.862091552734375,9.87405014038086,0.24195000529289246,0.3270000219345093
1772384419960148700,7.882148681640625,9.87600040435791,0.22800001502037048,0.32505002617836
1772384419980205800,7.902205810546875,9.879000663757324,0.22095000743865967,0.32895001769065857
1772384420000263000,7.922262939453125,9.883050918579102,0.22095000743865967,0.3270000219345093
1772384420020320000,7.942320068359375,9.891000747680664,0.22605000436306,0.32895001769065857
1772384420040377300,7.96237744140625,9.87405014038086,0.21405000984668732,0.322050005197525
1772384420060434200,7.98243408203125,9.867000579833984,0.22095000743865967,0.31995001435279846
1772384420080491500,8.002491455078125,9.879000663757324,0.2179500162601471,0.322050005197525
1772384420100548400,8.02254833984375,9.880950927734375,0.22800001502037048,0.31995001435279846
1772384420120605700,8.042605712890625,9.867000579833984,0.22605000436306,0.31995001435279846
1772384420140662800,8.062662841796875,9.867000579833984,0.22095000743865967,0.32505002617836
1772384420160720000,8.082719970703126,9.87600040435791,0.22095000743865967,0.322050005197525
1772384420180777000,8.10277685546875,9.871050834655762,0.22800001502037048,0.32505002617836
1772384420200834000,8.122833984375,9.879000663757324,0.23805001378059387,0.322050005197525
1772384420220891400,8.142891357421876,9.868950843811035,0.22605000436306,0.32505002617836
1772384420240948500,8.162948486328125,9.880950927734375,0.22305001318454742,0.32505002617836
1772384420261005600,8.183005615234375,9.87600040435791,0.22995001077651978,0.32505002617836
1772384420281062700,8.203062744140626,9.879000663757324,0.22095000743865967,0.32505002617836
1772384420301119700,8.22311962890625,9.871050834655762,0.22305001318454742,0.32895001769065857
1772384420321177000,8.243177001953125,9.868950843811035,0.22095000743865967,0.32895001769065857
1772384420341234000,8.26323388671875,9.871050834655762,0.22095000743865967,0.31995001435279846
1772384420361291300,8.283291259765624,9.883050918579102,0.22605000436306,0.31800001859664917
1772384420381348400,8.303348388671875,9.87600040435791,0.22095000743865967,0.3150000274181366
1772384420401405700,8.32340576171875,9.871050834655762,0.22095000743865967,0.31995001435279846
1772384420421462500,8.343462646484374,9.87405014038086,0.20400001108646393,0.31995001435279846
1772384420441519900,8.363519775390625,9.871050834655762,0.21405000984668732,0.31995001435279846
1772384420461577000,8.383576904296875,9.87405014038086,0.22305001318454742,0.322050005197525
1772384420481634000,8.403634033203126,9.87600040435791,0.22995001077651978,0.32505002617836
1772384420501691100,8.423691162109375,9.87600040435791,0.2160000056028366,0.33195000886917114
1772384420521748500,8.44374853515625,9.879000663757324,0.22305001318454742,0.322050005197525
1772384420541805300,8.463805419921876,9.879000663757324,0.21405000984668732,0.33195000886917114
1772384420561862400,8.4838623046875,9.879000663757324,0.22995001077651978,0.3270000219345093
1772384420581919500,8.50391943359375,9.880950927734375,0.23295001685619354,0.31995001435279846
1772384420601976800,8.523976806640626,9.883050918579102,0.22800001502037048,0.3079500198364258
1772384420622034000,8.544033935546874,9.867000579833984,0.2160000056028366,0.322050005197525
1772384420642090800,8.5640908203125,9.871050834655762,0.22800001502037048,0.322050005197525
1772384420662148000,8.584148193359376,9.867000579833984,0.22605000436306,0.32895001769065857
1772384420682205200,8.604205078125,9.87405014038086,0.22995001077651978,0.322050005197525
1772384420702262500,8.624262451171875,9.879000663757324,0.22995001077651978,0.322050005197525
1772384420722319600,8.644319580078125,9.868950843811035,0.22305001318454742,0.322050005197525
1772384420742376700,8.664376708984374,9.87600040435791,0.22305001318454742,0.32895001769065857
1772384420762433500,8.68443359375,9.87600040435791,0.22095000743865967,0.31995001435279846
1772384420782491000,8.704490966796875,9.879000663757324,0.22605000436306,0.32505002617836
1772384420802548200,8.72454833984375,9.871050834655762,0.2179500162601471,0.3270000219345093
1772384420822605300,8.744605224609375,9.868950843811035,0.22095000743865967,0.32505002617836
1772384420842662100,8.764662109375,9.879000663757324,0.22305001318454742,0.31995001435279846
1772384420862719500,8.784719482421876,9.880950927734375,0.22800001502037048,0.33195000886917114
1772384420882776600,8.804776611328125,9.879000663757324,0.22305001318454742,0.3270000219345093
1772384420902833700,8.824833740234375,9.880950927734375,0.2160000056028366,0.33705002069473267
1772384420922890800,8.844890869140626,9.883050918579102,0.22605000436306,0.32505002617836
1772384420942948000,8.864947998046874,9.880950927734375,0.22305001318454742,0.322050005197525
1772384420963005200,8.885005126953125,9.87405014038086,0.22800001502037048,0.32505002617836
1772384420983062300,8.905062255859375,9.883050918579102,0.22800001502037048,0.3340500295162201
1772384421003119400,8.925119384765624,9.880950927734375,0.21405000984668732,0.32895001769065857
1772384421023176400,8.945176513671875,9.867000579833984,0.22305001318454742,0.31995001435279846
1772384421043233500,8.965233642578125,9.87600040435791,0.21405000984668732,0.322050005197525
1772384421063291000,8.985290771484374,9.880950927734375,0.22605000436306,0.3270000219345093
1772384421083348000,9.005347900390625,9.883050918579102,0.22605000436306,0.32505002617836
1772384421103405000,9.025405029296875,9.87600040435791,0.2179500162601471,0.32505002617836
1772384421123462100,9.045462158203126,9.879000663757324,0.2179500162601471,0.32895001769065857
1772384421143519200,9.065519287109375,9.883050918579102,0.2179500162601471,0.32895001769065857
1772384421163576300,9.085576416015625,9.8860502243042,0.22305001318454742,0.322050005197525
1772384421183633700,9.105633544921876,9.880950927734375,0.22095000743865967,0.32505002617836
1772384421203690800,9.125690673828124,9.871050834655762,0.22605000436306,0.31995001435279846
1772384421223748000,9.145748046875,9.871050834655762,0.2160000056028366,0.3270000219345093
1772384421243805000,9.165804931640626,9.87600040435791,0.22305001318454742,0.31995001435279846
1772384421263862300,9.1858623046875,9.867000579833984,0.22800001502037048,0.3270000219345093
1772384421283919400,9.20591943359375,9.8860502243042,0.22995001077651978,0.3270000219345093
1772384421303976400,9.2259765625,9.880950927734375,0.22605000436306,0.33195000886917114
1772384421324033500,9.246033447265624,9.87405014038086,0.2160000056028366,0.322050005197525
1772384421344091000,9.2660908203125,9.880950927734375,0.22800001502037048,0.31995001435279846
1772384421364147700,9.286147705078125,9.883050918579102,0.24000000953674316,0.3270000219345093
1772384421384205000,9.306205078125,9.879000663757324,0.2179500162601471,0.32505002617836
1772384421404262100,9.32626220703125,9.87600040435791,0.21105000376701355,0.32895001769065857
1772384421424319500,9.346319580078125,9.880950927734375,0.22095000743865967,0.32895001769065857
1772384421444376300,9.366376220703126,9.883050918579102,0.22995001077651978,0.322050005197525
1772384421464433700,9.38643359375,9.867000579833984,0.22305001318454742,0.322050005197525
1772384421484490800,9.40649072265625,9.87405014038086,0.22095000743865967,0.3340500295162201
1772384421504547800,9.4265478515625,9.879000663757324,0.2179500162601471,0.32895001769065857
1772384421524605000,9.44660498046875,9.879000663757324,0.22800001502037048,0.32895001769065857
1772384421544662000,9.466662109375,9.88800048828125,0.22305001318454742,0.3270000219345093
1772384421564719400,9.48671923828125,9.87600040435791,0.22095000743865967,0.32505002617836
1772384421584776400,9.5067763671875,9.87600040435791,0.22095000743865967,0.33195000886917114
1772384421604833500,9.52683349609375,9.87405014038086,0.2179500162601471,0.3270000219345093
1772384421624890600,9.546890625,9.883050918579102,0.2179500162601471,0.322050005197525
1772384421644947700,9.56694775390625,9.880950927734375,0.22305001318454742,0.3270000219345093
1772384421665004800,9.5870048828125,9.883050918579102,0.2160000056028366,0.3340500295162201
1772384421685062100,9.607062255859375,9.87600040435791,0.22305001318454742,0.32895001769065857
1772384421705119200,9.627119140625,9.87600040435791,0.2160000056028366,0.322050005197525
1772384421725176300,9.64717626953125,9.87600040435791,0.22095000743865967,0.3270000219345093
1772384421745233400,9.6672333984375,9.880950927734375,0.22800001502037048,0.3270000219345093
1772384421765290800,9.687290771484374,9.891000747680664,0.2179500162601471,0.322050005197525
1772384421785347800,9.707347900390625,9.880950927734375,0.2160000056028366,0.322050005197525
1772384421805405000,9.727405029296875,9.880950927734375,0.22305001318454742,0.32505002617836
1772384421825462300,9.747462158203126,9.879000663757324,0.22605000436306,0.32505002617836
1772384421845519000,9.76751904296875,9.871050834655762,0.22605000436306,0.33195000886917114
1772384421865576400,9.787576416015625,9.87600040435791,0.2179500162601471,0.3340500295162201
1772384421885633500,9.807633544921876,9.879000663757324,0.22095000743865967,0.32505002617836
1772384421905691000,9.82769091796875,9.87600040435791,0.22095000743865967,0.32505002617836
1772384421925747700,9.847747802734375,9.87600040435791,0.22305001318454742,0.31800001859664917
1772384421945805000,9.86780517578125,9.879000663757324,0.22800001502037048,0.3270000219345093
1772384421965862400,9.8878623046875,9.8860502243042,0.22095000743865967,0.32505002617836
1772384421985919500,9.90791943359375,9.883050918579102,0.2179500162601471,0.3270000219345093
1772384422005976600,9.9279765625,9.883050918579102,0.22305001318454742,0.32895001769065857
1772384422026033700,9.94803369140625,9.880950927734375,0.22095000743865967,0.33195000886917114
1772384422046091000,9.968091064453125,9.879000663757324,0.2179500162601471,0.33195000886917114
1772384422066148000,9.988148193359375,9.880950927734375,0.22605000436306,0.322050005197525
1772384422086205200,10.008205078125,9.8860502243042,0.22095000743865967,0.31995001435279846
1772384422106262300,10.02826220703125,9.87405014038086,0.22800001502037048,0.31995001435279846
1772384422126319600,10.048319580078125,9.8860502243042,0.15105000138282776,0.38895002007484436
1772384422146376700,10.068376708984376,9.784950256347656,0.3139500021934509,0.2770500183105469
1772384422166433800,10.088433837890625,10.032000541687012,0.2659500241279602,0.27900001406669617
1772384422186491000,10.108490966796875,9.784950256347656,0.26100000739097595,0.29805001616477966
1772384422206548200,10.12854833984375,9.907050132751465,0.20205001533031464,0.3270000219345093
