time,seconds_elapsed,z,y,x
1772384412358473500,0.280473388671875,0.006800999864935875,0.026433000341057777,-0.11673799902200699
1772384412378530800,0.30053076171875,-0.004157999996095896,0.009146000258624554,-0.08539000153541565
1772384412398588000,0.320587890625,0.011873000301420689,0.0017170000355690718,-0.06831199675798416
1772384412418645200,0.340645263671875,0.005497999954968691,-0.023426000028848648,-0.07784999907016754
1772384412438702300,0.360702392578125,0.0139979999512434,0.04045899957418442,-0.018279999494552612
1772384412458760000,0.380760009765625,0.022398000583052635,0.0035669999197125435,-0.03142400085926056
1772384412478817000,0.400817138671875,0.0011180000146850944,-0.017945999279618263,-0.02513900026679039
1772384412498874400,0.420874267578125,-0.029503999277949333,-0.00635599996894598,-0.036111000925302505
1772384412518931700,0.440931640625,-0.020402999594807625,0.007714000064879656,-0.03608899936079979
1772384412538988800,0.46098876953125,-0.01232299953699112,0.023770999163389206,0.005528000183403492
1772384412559046100,0.481046142578125,-0.017057999968528748,-0.004182000178843737,-0.016377000138163567
1772384412579103200,0.501103271484375,-0.0544469989836216,0.008652999997138977,-0.022701000794768333
1772384412599160600,0.52116064453125,-0.031557001173496246,-0.0050760000012815,-0.027760999277234077
1772384412619218000,0.541218017578125,0.049153998494148254,0.015138000249862671,-0.06460899859666824
1772384412639275000,0.56127490234375,0.07372300326824188,-0.03748900070786476,0.04191200062632561
1772384412659332400,0.581332275390625,0.12617899477481842,0.034807998687028885,0.008729999884963036
1772384412679389700,0.6013896484375,0.10894200205802917,0.030246000736951828,0.06618399918079376
1772384412699447000,0.621447021484375,-0.03364500030875206,0.05299700051546097,0.10654699802398682
1772384412719504100,0.641504150390625,-0.10211600363254547,-0.027201000601053238,-0.05636199936270714
1772384412739561500,0.6615615234375,-0.14489200711250305,-0.057760998606681824,-0.023489000275731087
1772384412759618600,0.68161865234375,-0.05271400138735771,-0.0006089999806135893,-0.055590998381376266
1772384412779676000,0.701676025390625,0.019429000094532967,0.026712000370025635,-0.01407300028949976
1772384412799733200,0.721733154296875,0.03634199872612953,-0.02822900004684925,0.023941000923514366
1772384412819790300,0.741790283203125,0.05227399989962578,-0.0057830000296235085,0.012752999551594257
1772384412839847700,0.76184765625,0.026619000360369682,0.02017199993133545,0.03340199962258339
1772384412859905000,0.781905029296875,0.017294999212026596,0.01053799968212843,0.018720999360084534
1772384412879962400,0.80196240234375,-0.003763000015169382,0.004430000204592943,0.018976999446749687
1772384412900019500,0.82201953125,0.004987999796867371,0.005944000091403723,0.015181999653577805
1772384412920076800,0.842076904296875,0.005590999964624643,0.010355000384151936,0.0025450000539422035
1772384412940134100,0.862134033203125,-0.016326000913977623,-0.0029150000773370266,0.0020359999034553766
1772384412960191200,0.882191162109375,-0.013061000034213066,-0.006331999786198139,-0.011169999837875366
1772384412980248600,0.90224853515625,-0.006448000203818083,-0.0034650000743567944,-0.005735999904572964
1772384413000305700,0.9223056640625,-0.00355900009162724,-0.0027719999197870493,-0.0045889997854828835
1772384413020363000,0.942363037109375,0.0011520000407472253,-0.011818000115454197,0.005927999969571829
1772384413040420400,0.96242041015625,0.0025220001116394997,0.008144999854266644,0.008741999976336956
1772384413060477400,0.9824775390625,0.006016999948769808,0.012116000056266785,0.006994000170379877
1772384413080534800,1.00253466796875,0.0032130000181496143,0.0016929999692365527,-0.008004000410437584
1772384413100591900,1.022591796875,0.01217000000178814,0.013353999704122543,0.0015960000455379486
1772384413120649500,1.0426494140625,0.0017369999550282955,0.00508299982175231,0.002877000020816922
1772384413140706600,1.06270654296875,-0.0002099999983329326,-0.003932999912649393,-0.004898000042885542
1772384413160764000,1.082763916015625,-0.0057680001482367516,-0.003145999973639846,-0.006318000145256519
1772384413180821000,1.102821044921875,-0.00861399993300438,-0.002517000073567033,-0.0026539999525994062
1772384413200878300,1.12287841796875,-0.002891999902203679,-0.0004130000015720725,0.0018759999657049775
1772384413220935700,1.142935791015625,-0.0007130000158213079,-0.0035310001112520695,0.004699999932199717
1772384413240992800,1.16299267578125,-0.007770999800413847,-0.00922400038689375,-0.007439000066369772
1772384413261050000,1.183050048828125,-0.008616000413894653,-0.0009790000040084124,-0.007550999987870455
1772384413281107500,1.203107421875,0.0011060000397264957,0.0024160000029951334,-0.008441000245511532
1772384413301164500,1.22316455078125,0.004085000138729811,-0.005266999825835228,0.005247000139206648
1772384413321222000,1.243221923828125,-0.0055320002138614655,-0.0042130001820623875,-0.002202000003308058
1772384413341279000,1.263279052734375,0.0027749999426305294,0.003829000052064657,-0.0017610000213608146
1772384413361336300,1.28333642578125,-0.0017790000420063734,0.011063000187277794,0.002589999930933118
1772384413381393400,1.303393310546875,0.004176000133156776,-0.0007489999989047647,0.0004720000142697245
1772384413401451000,1.323450927734375,0.00014000000373926014,-0.008599000051617622,0.001976999919861555
1772384413421508000,1.343508056640625,-0.0038870000280439854,-0.0068789999932050705,-0.0024170000106096268
1772384413441565400,1.3635654296875,-0.007108999881893396,-0.0015030000358819962,0.00046499999007210135
1772384413461622500,1.38362255859375,-0.0016880000475794077,0.0011970000341534615,-0.0036269999109208584
1772384413481680000,1.403679931640625,-0.0013500000350177288,-0.0054419999942183495,-0.0013010000111535192
1772384413501737200,1.4237373046875,0.0005189999938011169,-0.0059529999271035194,-0.002641000086441636
1772384413521794300,1.443794189453125,0.0004149999876972288,-0.003163000103086233,-0.002113000024110079
1772384413541851600,1.4638515625,0.008332000114023685,0.007069000042974949,0.0039090001955628395
1772384413561908700,1.48390869140625,0.00826600007712841,0.008054999634623528,-0.002471999963745475
1772384413581966000,1.503966064453125,0.00101200002245605,0.0008440000237897038,-0.001976999919861555
1772384413602023200,1.524023193359375,0.00240899994969368,0.0006750000175088644,0.004017000086605549
1772384413622080500,1.54408056640625,0.004327000118792057,0.0037400000728666782,-0.0007849999819882214
1772384413642137900,1.564137939453125,0.003461000043898821,0.00699200015515089,0.00737100001424551
1772384413662195000,1.58419482421875,-0.0028299998957663774,-0.000006000000212225132,0.0002969999914057553
1772384413682252300,1.604252197265625,-0.006262999959290028,-0.0056039998307824135,-0.0037620000075548887
1772384413702309400,1.624309326171875,-0.0066109998151659966,-0.0004830000107176602,-0.007009000051766634
1772384413722366700,1.64436669921875,0.005909999832510948,-0.012387000024318695,-0.0016070000128820539
1772384413742423800,1.664423828125,0.004728000145405531,0.002090000081807375,0.009913000278174877
1772384413762481400,1.6844814453125,-0.00021600000036414713,-0.004726999904960394,0.007930000312626362
1772384413782538500,1.70453857421875,-0.00017299999308306724,-0.001382000045850873,-0.0008549999911338091
1772384413802595800,1.724595947265625,0.003860000055283308,0.0004939999780617654,0.0049149999395012856
1772384413822653000,1.74465283203125,0.0030869999900460243,0.00039500001003034413,0.013531999662518501
1772384413842710300,1.764710205078125,0.00007000000186963007,0.002715999959036708,0.0012260000221431255
1772384413862767400,1.784767333984375,-0.0015429999912157655,0.0021730000153183937,-0.00861900020390749
1772384413882824700,1.80482470703125,-0.008434999734163284,0.0017379999626427889,-0.006895000115036964
1772384413902882000,1.824882080078125,-0.0035470000002533197,0.0029899999499320984,-0.0055160000920295715
1772384413922939100,1.844939208984375,0.005160999950021505,0.0007919999770820141,-0.0004130000015720725
1772384413942996500,1.86499658203125,0.0001289999927394092,0.007833999581634998,-0.002730000065639615
1772384413963053600,1.885053466796875,-0.015096000395715237,-0.0033319999929517508,0.0018149999668821692
1772384413983111000,1.90511083984375,0.0015219999477267265,-0.012265999801456928,0.009452000260353088
1772384414003168300,1.925168212890625,-0.0011810000287368894,0.007786999922245741,0.001962000038474798
1772384414023225300,1.945225341796875,0.004654000047594309,0.003829000052064657,0.0015689999563619494
1772384414043282700,1.96528271484375,-0.0034759999252855778,-0.009735999628901482,-0.0011439999798312783
1772384414063340000,1.985340087890625,0.002819000044837594,-0.011788999661803246,-0.002515000058338046
1772384414083397000,2.005397216796875,-0.003344000084325671,-0.005431000143289566,-0.0020119999535381794
1772384414103454500,2.025454345703125,-0.0026759998872876167,0.00685499981045723,0.0039900001138448715
1772384414123511600,2.045511474609375,0.007457999978214502,0.001484000007621944,-0.002406999934464693
1772384414143569000,2.06556884765625,0.005967000033706427,0.005187000147998333,-0.0003260000084992498
1772384414163626000,2.0856259765625,-0.008825000375509262,0.002549000084400177,-0.0018609999679028988
1772384414183683300,2.105683349609375,-0.003060000017285347,-0.0003600000054575503,0.00011100000119768083
1772384414203740400,2.125740478515625,-0.004048999864608049,0.002111000008881092,0.004087999928742647
1772384414223797800,2.1457978515625,0.002360000042244792,0.011288999579846859,-0.0007280000136233866
1772384414243855000,2.165855224609375,0.001888000057078898,-0.0005680000176653266,0.003415999934077263
1772384414263912200,2.185912109375,0.011110000312328339,-0.00685400003567338,0.002733000088483095
1772384414283969500,2.205969482421875,0.00648800004273653,-0.0014830000000074506,-0.005812999792397022
1772384414304026600,2.226026611328125,-0.007608999963849783,-0.00278700003400445,0.001749000046402216
1772384414324084000,2.246083984375,-0.006087000016123056,0.001769999973475933,-0.0010000000474974513
1772384414344141000,2.26614111328125,0.0007300000288523734,0.007015999872237444,-0.0007999999797903001
1772384414364198400,2.286198486328125,0.0005840000230818987,0.0032130000181496143,0.0017590000061318278
1772384414384255500,2.30625537109375,-0.0019320000428706408,-0.003029000014066696,-0.0009919999865815043
1772384414404312800,2.326312744140625,-0.012745000422000885,-0.012023000046610832,-0.010393000207841396
1772384414424370200,2.3463701171875,0.0034020000603049994,-0.004017999861389399,0.0012839999981224537
1772384414444427300,2.36642724609375,0.0003220000071451068,0.006384000182151794,0.0066269999369978905
1772384414464484600,2.386484619140625,0.009858000092208385,0.014706999994814396,-0.0002969999914057553
1772384414484541700,2.406541748046875,0.013485999777913094,0.008565999567508698,0.0053610000759363174
1772384414504599000,2.42659912109375,-0.010010000318288803,-0.0027459999546408653,-0.0029100000392645597
1772384414524656400,2.446656494140625,-0.008008000440895557,-0.008596999570727348,-0.007927999831736088
1772384414544713500,2.46671337890625,0.0015920000150799751,-0.006878000218421221,0.0064570000395178795
1772384414564770800,2.486770751953125,0.002873999997973442,0.004097000230103731,0.007565000094473362
1772384414584828000,2.506827880859375,0.0022990000434219837,-0.002320999978110194,-0.0019470000406727195
1772384414604885200,2.52688525390625,-0.009360999800264835,-0.0034570000134408474,-0.011157000437378883
1772384414624942300,2.5469423828125,0.002111000008881092,0.0028329999186098576,-0.0009260000078938901
1772384414644999700,2.566999755859375,-0.0007099999929778278,-0.0033319999929517508,0.0008580000139772892
1772384414665056800,2.587056884765625,-0.006167999934405088,-0.0010659999679774046,-0.003312000073492527
1772384414685114000,2.607114013671875,0.01026500016450882,0.011145999655127525,0.009348999708890915
1772384414705171200,2.627171142578125,0.0010110000148415565,0.002517000073567033,-0.004519999958574772
1772384414725228500,2.647228515625,-0.0047900001518428326,-0.001184999942779541,0.0027830000035464764
1772384414745285600,2.66728564453125,0.0017679999582469463,-0.007348000071942806,-0.0001720000000204891
1772384414765343000,2.687343017578125,0.008615000173449516,0.007720999885350466,0.0022609999869018793
1772384414785400000,2.707400146484375,0.0012919999426230788,0.006175999995321035,-0.000590000010561198
1772384414805457400,2.72745751953125,0.009033000096678734,-0.0006580000044777989,0.001927000004798174
1772384414825514500,2.747514404296875,-0.002372999908402562,0.0010730000212788582,-0.0008580000139772892
1772384414845571800,2.76757177734375,-0.0018980000168085098,-0.002340999897569418,-0.004685999825596809
1772384414865629200,2.787629150390625,-0.005516999866813421,-0.0002730000123847276,-0.0013490000274032354
1772384414885686300,2.807686279296875,0.002785000018775463,0.0013810000382363796,0.004519999958574772
1772384414905743600,2.82774365234375,-0.0009710000013001263,-0.0004939999780617654,-0.00038300000596791506
1772384414925800700,2.84780078125,-0.006376999896019697,-0.005994999781250954,-0.0003060000017285347
1772384414945858000,2.867858154296875,0.0036979999858886003,-0.0007960000075399876,-0.0018449999624863267
1772384414965915100,2.8879150390625,0.005357000045478344,-0.003037000074982643,0.0041229999624192715
1772384414985972500,2.907972412109375,-0.0013139999937266111,-0.002429000101983547,-0.0007009999826550484
1772384415006029800,2.92802978515625,-0.003449999960139394,0.0036559998989105225,-0.00215999991632998
1772384415026087000,2.9480869140625,-0.005960000213235617,-0.004275000188499689,-0.00012799999967683107
1772384415046144300,2.968144287109375,-0.004767999984323978,-0.001820000004954636,-0.00010199999815085903
1772384415066201300,2.988201416015625,-0.006213999819010496,0.004143000114709139,-0.00008199999865610152
1772384415086258400,3.008258544921875,-0.002572000026702881,0.011315000243484974,0.005534000229090452
1772384415106315500,3.0283154296875,0.009140999987721443,0.0034519999753683805,0.001227000029757619
1772384415126373000,3.048373046875,0.0033140000887215137,-0.005237999837845564,0.000981000019237399
1772384415146430000,3.068429931640625,-0.006947999820113182,-0.005789999850094318,0.006384999956935644
1772384415166487300,3.0884873046875,-0.005557999946177006,-0.0030320000369101763,0.0011080000549554825
1772384415186544600,3.108544677734375,0.009151999838650227,0.003172999946400523,-0.00711299991235137
1772384415206601700,3.128601806640625,0.004922000225633383,-0.0006600000197067857,-0.007290000095963478
1772384415226659000,3.1486591796875,-0.0016609999584034085,-0.004528000019490719,-0.004232000093907118
1772384415246716200,3.168716064453125,-0.006928999908268452,-0.007621999830007553,-0.006585999857634306
1772384415266773500,3.1887734375,-0.007143000140786171,-0.0020979999098926783,-0.007668000180274248
1772384415286830600,3.20883056640625,-0.008113999851047993,-0.0000779999973019585,0.0074640000239014626
1772384415306888000,3.228887939453125,0.0031079999171197414,0.007937000133097172,0.007571000140160322
1772384415326945000,3.248945068359375,0.004885000176727772,0.00634900014847517,-0.005142000038176775
1772384415347002400,3.26900244140625,0.0039079999551177025,0.006678999867290258,-0.00011300000187475234
1772384415367059500,3.2890595703125,-0.012072999961674213,-0.004255999810993671,0.007108000107109547
1772384415387116800,3.30911669921875,-0.00005900000178371556,-0.009003999643027782,0.0040870001539587975
1772384415407174000,3.329173828125,0.01515199989080429,0.0023960000835359097,-0.0007300000288523734
1772384415427231200,3.349231201171875,0.012121999636292458,0.0019160000374540687,-0.0021840000990778208
1772384415447288300,3.369288330078125,-0.003900999901816249,-0.006465999875217676,0.005452000070363283
1772384415467345400,3.389345458984375,-0.008721999824047089,-0.006773000117391348,-0.0012369999894872308
1772384415487402800,3.40940283203125,-0.0013770000077784061,-0.007017999887466431,0.0014090000186115503
1772384415507459800,3.4294599609375,0.004497999791055918,0.007184999994933605,-0.0028719999827444553
1772384415527517200,3.44951708984375,0.005197999998927116,0.012148000299930573,0.0073020001873373985
1772384415547574500,3.469574462890625,0.0009580000187270343,-0.002280999906361103,0.0034409998916089535
1772384415567631600,3.489631591796875,-0.01283199992030859,-0.009025000035762787,-0.00444599986076355
1772384415587688700,3.509688720703125,-0.011865999549627304,-0.004019999876618385,-0.011556999757885933
1772384415607746000,3.52974609375,0.007306999992579222,0.008782999590039253,-0.003645000047981739
1772384415627803100,3.54980322265625,0.015444000251591206,-0.0009720000089146197,0.00108299998100847
1772384415647860500,3.569860595703125,0.008356000296771526,0.007220999803394079,0.014465999789536
1772384415667917300,3.589917236328125,0.009084000252187252,0.0033770001027733088,-0.0020260000601410866
1772384415687974700,3.609974609375,-0.007931999862194061,0.009100999683141708,-0.007220999803394079
1772384415708032000,3.630031982421875,-0.006345000118017197,-0.010317999869585037,-0.00017699999443721026
1772384415728089000,3.650089111328125,-0.011475999839603901,-0.012253999710083008,0.0038580000400543213
1772384415748146200,3.670146240234375,-0.006781000178307295,-0.00020300000323913991,-0.0009130000253207982
1772384415768203500,3.69020361328125,-0.0038240000139921904,0.005435999948531389,-0.0007300000288523734
1772384415788260600,3.710260498046875,-0.0006590000120922923,0.012349000200629234,0.0034149999264627695
1772384415808318000,3.73031787109375,0.0066720000468194485,0.011478999629616737,0.00433199992403388
1772384415828375000,3.750375,-0.0002610000083222985,-0.007615999784320593,0.0018649999983608723
1772384415848432000,3.77043212890625,0.003788999980315566,-0.0044929999858140945,0.005491999909281731
1772384415868489500,3.790489501953125,-0.0025679999962449074,-0.003593999892473221,0.0019940000493079424
1772384415888546600,3.810546630859375,0.0051460000686347485,-0.00047500000800937414,-0.0056039998307824135
1772384415908604000,3.83060400390625,-0.003083999967202544,-0.012380000203847885,-0.008483000099658966
1772384415928661000,3.850660888671875,-0.002466999925673008,-0.00750399986281991,-0.0027860000263899565
1772384415948718300,3.87071826171875,-0.001973999897018075,0.010796000249683857,-0.0006290000164881349
1772384415968775400,3.890775390625,-0.003978000022470951,0.003037000074982643,0.001896000001579523
1772384415988832800,3.910832763671875,0.004815999884158373,0.004029000177979469,0.007116999942809343
1772384416008889900,3.930889892578125,-0.00014600000577047467,0.003223000094294548,0.0016929999692365527
1772384416028947200,3.950947265625,-0.00011700000322889537,0.0009790000040084124,-0.002644999884068966
1772384416049004300,3.97100439453125,0.007104999851435423,-0.007215999998152256,-0.0037159998901188374
1772384416069061400,3.991061279296875,0.004083999898284674,0.0006259999936446548,0.002626999979838729
1772384416089118700,4.01111865234375,-0.0023320000618696213,0.0005009999731555581,0.0037010000087320805
1772384416109175800,4.03117578125,-0.0034660000819712877,0.00040099999750964344,-0.002638000063598156
1772384416129233200,4.051233154296875,-0.0011729999678209424,-0.0060789999552071095,0.0018889999482780695
1772384416149290200,4.071290283203125,-0.0009379999828524888,0.007135999854654074,-0.00008800000068731606
1772384416169347600,4.09134765625,-0.004751000087708235,0.003309000050649047,-0.002469999948516488
1772384416189404700,4.11140478515625,-0.007801000028848648,-0.002951999893411994,0.0020230000372976065
1772384416209461800,4.131461669921875,0.00015799999528098851,0.000037000001611886546,0.003218000056222081
1772384416229519000,4.15151904296875,-0.003872999921441078,-0.0023690001107752323,0.0009740000241436064
1772384416249576200,4.171576171875,0.002500999951735139,0.0037040000315755606,-0.0072200000286102295
1772384416269633300,4.19163330078125,0.007600000128149986,-0.00023600000713486224,0.0006230000290088356
1772384416289690600,4.211690673828125,0.0060800001956522465,0.0014100000262260437,0.006099000107496977
1772384416309747700,4.231747802734375,-0.0007350000087171793,-0.0068709999322891235,0.0008789999992586672
1772384416329804800,4.2518046875,0.003410999896004796,0.000901999999769032,0.006302999798208475
1772384416349862100,4.271862060546875,0.0027290000580251217,0.006322000175714493,-0.0005569999921135604
1772384416369919200,4.291919189453125,-0.013016000390052795,-0.004542000126093626,-0.0044450000859797
1772384416389976300,4.311976318359375,-0.008812000043690205,-0.011633000336587429,-0.001155999954789877
1772384416410033700,4.33203369140625,0.0009480000007897615,-0.001306000049225986,-0.003324999939650297
1772384416430091000,4.352091064453125,0.006359000224620104,-0.005044999998062849,0.0013389999512583017
1772384416450147800,4.37214794921875,0.001088000019080937,0.003963000141084194,-0.0005280000041238964
1772384416470205200,4.392205078125,0.008069000206887722,0.00877000018954277,-0.008422000333666801
1772384416490262300,4.41226220703125,-0.0007430000114254653,0.008616000413894653,-0.0051380000077188015
1772384416510319400,4.4323193359375,0.006604999769479036,0.006893000099807978,0.00228899996727705
1772384416530376700,4.452376708984375,0.009283999912440777,0.0015140000032261014,0.007431000005453825
1772384416550434000,4.47243408203125,0.0018269999418407679,0.0012110000243410468,0.00034500000765547156
1772384416570491000,4.492490966796875,0.0014609999489039183,-0.0006300000241026282,-0.0021230001002550125
1772384416590548200,4.51254833984375,-0.0004309999931138009,-0.008503999561071396,0.0023010000586509705
1772384416610605600,4.53260546875,-0.0059449998661875725,-0.0004030000127386302,-0.0037589999847114086
1772384416630662700,4.55266259765625,-0.008755999617278576,-0.0043219998478889465,-0.0014070000033825636
1772384416650719700,4.5727197265625,-0.003005000064149499,0.0037410000804811716,0.002873999997973442
1772384416670776800,4.59277685546875,0.006395999807864428,-0.006606000009924173,-0.0017000000225380063
1772384416690834200,4.612834228515625,0.0019160000374540687,-0.002885000081732869,0.004238999914377928
1772384416710891300,4.632891357421875,0.0031330001074820757,-0.002308000111952424,-0.006207999773323536
1772384416730948600,4.652948486328125,0.0009050000226125121,0.00215300009585917,-0.0009660000214353204
1772384416751005700,4.673005615234375,0.0063240001909434795,0.0017219999572262168,0.001626000041142106
1772384416771063000,4.69306298828125,-0.002939000027254224,0.0029780000913888216,0.006901000160723925
1772384416791120000,4.713119873046875,-0.0055519999004900455,-0.003217000048607588,0.0031210000161081553
1772384416811177200,4.73317724609375,-0.002839999971911311,0.0086260000243783,0.0008960000122897327
1772384416831234300,4.753234375,0.0017259999876841903,-0.000299000006634742,-0.0008820000221021473
1772384416851291600,4.773291748046875,-0.004219000227749348,0.002959999954327941,0.002492999890819192
1772384416871348700,4.7933486328125,-0.005774000193923712,-0.0032309999223798513,-0.00760400015860796
1772384416891405800,4.81340576171875,0.0009800000116229057,-0.002584999892860651,-0.0036830001045018435
1772384416911463000,4.833462890625,0.003183000022545457,0.00033099998836405575,-0.002947000088170171
1772384416931520300,4.853520263671875,-0.0014519999967887998,-0.003734000027179718,-0.0007570000016130507
1772384416951577300,4.873577392578125,0.004437999799847603,-0.001386999967508018,0.010592999868094921
1772384416971634700,4.893634765625,0.0035500000230968,0.004488999955356121,0.005274999886751175
1772384416991691800,4.91369189453125,-0.001158999977633357,0.0035910001024603844,0.00022000000171829015
1772384417011748900,4.933748779296875,-0.004127999767661095,-0.00432599987834692,-0.003823000006377697
1772384417031806000,4.953805908203125,0.003897000104188919,0.0005380000220611691,-0.0030590000096708536
1772384417051863300,4.97386328125,0.0015170000260695815,-0.003567999927327037,0.007151999976485968
1772384417071920000,4.993920166015625,0.002814000006765127,0.006744000129401684,0.004122000187635422
1772384417091977500,5.0139775390625,0.0022509999107569456,-0.00020399999630171806,0.004896999802440405
1772384417112034800,5.034034912109375,-0.0037980000488460064,-0.0025629999581724405,-0.00008099999831756577
1772384417132092000,5.054091796875,-0.012639000080525875,0.0003490000090096146,-0.001664999988861382
1772384417152149200,5.074149169921875,-0.010110000148415565,-0.0021200000774115324,-0.009332000277936459
1772384417172206000,5.0942060546875,-0.002489000093191862,-0.003295999951660633,-0.0034650000743567944
1772384417192263400,5.114263427734375,0.002007999923080206,0.0013620000099763274,0.001227000029757619
1772384417212320500,5.134320556640625,0.007205999922007322,0.0010900000343099236,-0.0006179999909363687
1772384417232377900,5.1543779296875,0.011365000158548355,0.006471999920904636,0.0027050001081079245
1772384417252434700,5.1744345703125,-0.0005070000188425183,0.005177000071853399,0.0021639999467879534
1772384417272492000,5.194491943359375,-0.002004999900236726,-0.003857000032439828,-0.003868000116199255
1772384417292549000,5.214549072265625,0.003994999919086695,0.008913000114262104,-0.008693999610841274
1772384417312606200,5.234606201171875,0.0015960000455379486,-0.0008679999737069011,0.008244000375270844
1772384417332663300,5.254663330078125,0.0012760000536218286,-0.0062950002029538155,0.004995000082999468
1772384417352720600,5.274720703125,-0.014178000390529633,-0.00903599988669157,-0.004002999980002642
1772384417372777700,5.29477783203125,0.011056999675929546,0.006370999850332737,-0.004803000018000603
1772384417392834800,5.314834716796875,-0.0007529999711550772,-0.0005029999883845448,0.0033569999504834414
1772384417412892000,5.334891845703125,0.003396000014618039,-0.0028019999153912067,0.006686000153422356
1772384417432949200,5.35494921875,-0.001281999982893467,0.001756999990902841,-0.00025099999038502574
1772384417453006300,5.37500634765625,-0.0010260000126436353,0.0054060001857578754,0.0013989999424666166
1772384417473063700,5.395063720703125,0.0031789999920874834,-0.005274000111967325,-0.00848000030964613
1772384417493120800,5.415120849609375,-0.0014560000272467732,0.0013800000306218863,-0.00038400001358240843
1772384417513177900,5.435177734375,-0.0011650000233203173,-0.008495000191032887,-0.006707000080496073
1772384417533235000,5.45523486328125,-0.0025319999549537897,-0.014795999974012375,-0.005365999881178141
1772384417553292000,5.4752919921875,-0.0036249998956918716,0.001762000028975308,0.005307000130414963
1772384417573349000,5.49534912109375,-0.0052999998442828655,0.013410000130534172,0.0010450000409036875
1772384417593406500,5.515406494140625,-0.0018400000408291817,0.010727999731898308,0.008035999722778797
1772384417613463600,5.535463623046875,-0.0014720000326633453,-0.001016999944113195,0.0008290000259876251
1772384417633521000,5.55552099609375,0.010022000409662724,-0.004813999868929386,-0.0033360000234097242
1772384417653578000,5.575577880859375,0.008016999810934067,0.00014800000644754618,-0.006668999791145325
1772384417673635000,5.595635009765625,0.0024139999877661467,0.00011899999663000926,0.008263999596238136
1772384417693692200,5.615692138671875,0.00033000000985339284,-0.0023040000814944506,0.0026110000908374786
1772384417713749500,5.63574951171875,0.00026500000967644155,0.0037559999618679285,0.007689000107347965
1772384417733806300,5.655806396484375,-0.007786999922245741,-0.00019500000053085387,-0.012248000130057335
1772384417753863700,5.67586376953125,0.00496899988502264,-0.004155999980866909,-0.00019799999427050352
1772384417773920800,5.695920654296875,-0.0032240001019090414,-0.0017239999724552035,0.00863999966531992
1772384417793978000,5.71597802734375,-0.0025790000800043344,0.01221999991685152,0.0037120000924915075
1772384417814035000,5.736034912109375,0.007534999866038561,0.0017760000191628933,0.0029700000304728746
1772384417834092300,5.75609228515625,0.0004290000069886446,-0.009778999723494053,-0.003223000094294548
1772384417854149400,5.7761494140625,0.001943000010214746,0.0057760002091526985,-0.006579000037163496
1772384417874206500,5.79620654296875,-0.005644999910145998,-0.004978000186383724,-0.0012629999546334147
1772384417894263600,5.816263671875,-0.012516000308096409,-0.009581999853253365,0.002188999904319644
1772384417914320600,5.836320556640625,-0.0020129999611526728,0.005133000202476978,-0.0014479999663308263
1772384417934378000,5.8563779296875,0.011189999990165234,0.006506000179797411,0.004441000055521727
1772384417954435000,5.87643505859375,0.004951999988406897,0.006804999895393848,0.0035520000383257866
1772384417974492200,5.8964921875,0.0023620000574737787,-0.005754999816417694,-0.0011569999624043703
1772384417994549200,5.91654931640625,-0.0037090000696480274,-0.010204000398516655,-0.004925999790430069
1772384418014606600,5.936606689453125,0.0010310000507161021,0.004635999910533428,0.007259000092744827
1772384418034663700,5.95666357421875,0.0008249999955296516,0.0037090000696480274,-0.002991999965161085
1772384418054720800,5.976720703125,0.010259999893605709,-0.0026320000179111958,0.0032049999572336674
1772384418074777900,5.99677783203125,0.00020799999765586108,-0.0021059999708086252,0.002563999965786934
1772384418094835000,6.0168349609375,-0.005433000158518553,0.003914999775588512,-0.007548000197857618
1772384418114892300,6.036892333984375,0.002853000070899725,0.011132000014185905,-0.00043799998820759356
1772384418134949400,6.056949462890625,0.00228299992159009,0.0009050000226125121,-0.0003499999875202775
1772384418155006500,6.07700634765625,0.00022600000374950469,0.007124000228941441,0.001319000031799078
1772384418175063600,6.0970634765625,-0.0014189999783411622,-0.0038999998942017555,-0.004544000141322613
1772384418195120600,6.11712060546875,-0.0011340000201016665,-0.003120000008493662,-0.001234999974258244
1772384418215178000,6.137177978515625,-0.0009069999796338379,-0.002495999913662672,-0.0009879999561235309
1772384418235235000,6.157235107421875,0.004873000085353851,-0.00039599998854100704,0.00800899975001812
1772384418255292200,6.177292236328125,0.0014990000054240227,-0.011517000384628773,0.004807000048458576
1772384418275349200,6.197349365234375,0.0011990000493824482,-0.0036140000447630882,-0.0073540001176297665
1772384418295406300,6.21740625,-0.004639999940991402,0.002707999898120761,-0.008283000439405441
1772384418315463400,6.23746337890625,0.0002880000101868063,0.006165999919176102,-0.0026259999722242355
1772384418335520800,6.257520751953125,-0.0037690000608563423,0.012133000418543816,0.005898000206798315
1772384418355577900,6.277577880859375,-0.004614999983459711,-0.005493000149726868,-0.003281000070273876
1772384418375635200,6.29763525390625,-0.0020920000970363617,-0.00039400000241585076,0.0029750000685453415
1772384418395692000,6.317692138671875,0.002326000016182661,0.0012839999981224537,-0.0032190000638365746
1772384418415749400,6.337749267578125,0.0034600000362843275,0.0010270000202581286,0.007023999933153391
1772384418435806500,6.357806396484375,-0.004430000204592943,-0.002377999946475029,0.004019000101834536
1772384418455863600,6.377863525390625,0.0020550000481307507,-0.005901999771595001,-0.002383999992161989
1772384418475920600,6.397920654296875,0.00964299961924553,-0.0031210000161081553,-0.00030700000934302807
1772384418495977700,6.417977783203125,-0.0002840000088326633,-0.0024969999212771654,0.001353000057861209
1772384418516035000,6.43803515625,-0.00022600000374950469,0.00040099999750964344,-0.004515999928116798
1772384418536092200,6.458092041015625,-0.005781000014394522,-0.0020779999904334545,0.005985999945551157
1772384418556149200,6.478149169921875,-0.0006249999860301614,0.000737000023946166,-0.004809999838471413
1772384418576206600,6.49820654296875,0.0010999999940395355,0.003788999980315566,0.00015100000018719584
1772384418596263700,6.518263671875,0.0024800000246614218,0.005431000143289566,0.0017209999496117234
1772384418616320800,6.53832080078125,-0.0012150000547990203,-0.0036539998836815357,-0.0002229999954579398
1772384418636378000,6.558378173828125,-0.0009720000089146197,0.0010760000441223383,-0.00017800000205170363
1772384418656435000,6.57843505859375,-0.0031769999768584967,-0.004738000221550465,-0.004141999874264002
1772384418676492300,6.5984921875,0.003056999994441867,0.0034080001059919596,0.0022849999368190765
1772384418696549400,6.61854931640625,-0.0007539999787695706,0.010727000422775745,-0.001370999962091446
1772384418716606500,6.6386064453125,0.008995999582111835,0.00698099983856082,-0.0034970000851899385
1772384418736663600,6.65866357421875,0.0047969999723136425,-0.004013999830931425,0.00520200002938509
1772384418756721000,6.678720947265625,-0.005762000102549791,-0.0016110000433400273,0.007360999938100576
1772384418776777700,6.69877783203125,-0.007809999864548445,-0.01088900025933981,-0.005309999920427799
1772384418796835000,6.7188349609375,0.002552000107243657,0.0024880000855773687,-0.0018479999853298068
1772384418816892200,6.73889208984375,0.006041000131517649,0.004389999900013208,-0.0054779998026788235
1772384418836949200,6.75894921875,0.0048329997807741165,0.0011119999689981341,0.0012169999536126852
1772384418857006600,6.779006591796875,-0.0033340000081807375,-0.010308999568223953,0.0009730000165291131
1772384418877063700,6.799063720703125,-0.0010659999679774046,-0.004246999975293875,-0.0008210000232793391
1772384418897120800,6.819120849609375,0.003145999973639846,0.0038010000716894865,0.0049430001527071
1772384418917177900,6.839177734375,-0.003082999959588051,0.0054410002194345,0.005553999915719032
1772384418937235000,6.85923486328125,-0.0024659999180585146,0.0003530000103637576,0.004443000070750713
1772384418957292300,6.879292236328125,-0.000371000001905486,0.00028199999360367656,-0.007644999772310257
1772384418977349400,6.899349365234375,-0.005896999966353178,-0.005373999942094088,-0.002116000046953559
1772384418997406500,6.919406494140625,0.0008820000221021473,0.0013000000035390258,-0.004091999959200621
1772384419017463600,6.939463623046875,0.004705000203102827,0.006639999803155661,-0.004873999860137701
1772384419037520600,6.959520751953125,-0.004234999883919954,0.010912000201642513,0.0017000000225380063
1772384419057578000,6.979577880859375,0.0006120000034570694,-0.0064690001308918,0.00535999983549118
1772384419077635000,6.999635009765625,-0.0011109999613836408,-0.0027749999426305294,-0.003711000084877014
1772384419097692200,7.019692138671875,0.0047109997831285,0.0009790000040084124,-0.004569000098854303
1772384419117749200,7.039749267578125,-0.0018309999722987413,-0.006415999960154295,0.00914399977773428
1772384419137806600,7.059806640625,0.0017350000562146306,0.002065999899059534,0.001715000020340085
1772384419157863400,7.079863525390625,-0.011411000043153763,-0.0015460000140592456,-0.009827000088989735
1772384419177920800,7.099920654296875,-0.0035280000884085894,0.004362000152468681,-0.007861999794840813
1772384419197977900,7.119977783203125,-0.004422999918460846,-0.0005089999758638442,-0.004689000081270933
1772384419218035000,7.140034912109375,0.002061000093817711,0.005191999953240156,0.004248000215739012
1772384419238092000,7.160092041015625,0.007249000016599894,-0.00944599974900484,0.010598000138998032
1772384419258149400,7.1801494140625,0.00979899987578392,0.004441999830305576,0.0012779999524354935
1772384419278206200,7.200206298828125,0.01104000024497509,-0.02764499932527542,0.012222999706864357
1772384419298263600,7.220263671875,-0.009568000212311745,0.010683000087738037,0.013778000138700008
1772384419318320600,7.240320556640625,0.014744999818503857,-0.0010529999854043126,-0.009777000173926353
1772384419338377700,7.260377685546875,-0.0202029999345541,0.004757000133395195,-0.006221000105142593
1772384419358434800,7.280434814453125,-0.0009629999985918403,0.0062049999833106995,-0.0009769999887794256
1772384419378492200,7.3004921875,-0.010370000265538692,0.004964000079780817,-0.014380999840795994
1772384419398549000,7.320549072265625,0.008503999561071396,0.005570999812334776,0.011694000102579594
1772384419418606300,7.3406064453125,-0.00279600010253489,-0.002741999924182892,0.0013549999566748738
1772384419438663400,7.360663330078125,0.012962999753654003,-0.0005939999828115106,0.009084000252187252
1772384419458720500,7.380720458984375,-0.002429000101983547,-0.006074999924749136,0.003266999963670969
1772384419478777600,7.400777587890625,0.0052559999749064445,0.0007389999809674919,0.00661400007084012
1772384419498834700,7.420834716796875,0.009805000387132168,0.00459099980071187,0.0028909998945891857
1772384419518891800,7.440891845703125,0.00624299980700016,-0.005925999954342842,-0.0008870000019669533
1772384419538948900,7.460948974609375,-0.004604000132530928,-0.007141000125557184,-0.003108999924734235
1772384419559006200,7.481006103515625,-0.013283000327646732,-0.007311999797821045,-0.0040870001539587975
1772384419579063300,7.501063232421875,-0.002626999979838729,0.003748999908566475,-0.003269999986514449
1772384419599120400,7.521120361328125,-0.007701000198721886,0.0013989999424666166,-0.00821600016206503
1772384419619177500,7.541177490234375,0.005038000177592039,0.00431900005787611,-0.004972000140696764
1772384419639234600,7.561234619140625,-0.0015689999563619494,0.0018550000386312604,0.011220999993383884
1772384419659291600,7.581291748046875,0.0059449998661875725,0.001484000007621944,0.011377000249922276
1772384419679349000,7.601348876953125,0.007155000232160091,0.005187000147998333,0.002701000077649951
1772384419699406000,7.621406005859375,0.008923999965190887,-0.0014489999739453197,0.0021609999239444733
1772384419719463200,7.641463134765625,-0.00406000018119812,-0.007559000048786402,0.0001289999927394092
1772384419739520300,7.661520263671875,-0.0048489999026060104,0.00035200000274926424,-0.007096000015735626
1772384419759577300,7.681577392578125,-0.0062779998406767845,-0.007718000095337629,-0.00007699999696342275
1772384419779634400,7.701634521484375,-0.0026229999493807554,-0.002174000022932887,-0.000060999998822808266
1772384419799691800,7.72169189453125,0.0051020001992583275,0.007860000245273113,-0.000048999998398358
1772384419819748900,7.741748779296875,0.00648100022226572,0.007888000458478928,-0.005638999864459038
1772384419839806000,7.761805908203125,0.0011840000515803695,0.0007099999929778278,0.001088000019080937
1772384419859863000,7.781863037109375,0.0025480000767856836,-0.0010310000507161021,0.0008699999889358878
1772384419879920000,7.801920166015625,-0.0075610000640153885,-0.007224999833852053,-0.0017030000453814864
1772384419899977200,7.821977294921875,0.005948999896645546,-0.003379999892786145,-0.0013620000099763274
1772384419920034300,7.842034423828125,-0.001639000023715198,0.002894999925047159,0.0013089999556541443
1772384419940091600,7.862091552734375,0.001088000019080937,0.013515999540686607,0.0026469998992979527
1772384419960148700,7.882148681640625,0.002469999948516488,-0.0003859999997075647,0.0005179999861866236
1772384419980205800,7.902205810546875,0.004375999793410301,-0.0059090000577270985,0.0036140000447630882
1772384420000263000,7.922262939453125,0.0067010000348091125,-0.004726999904960394,0.0012910000514239073
1772384420020320000,7.942320068359375,0.011760000139474869,0.00021800000104121864,0.002633000025525689
1772384420040377300,7.96237744140625,-0.004191000014543533,-0.009425000287592411,-0.003493000054731965
1772384420060434200,7.98243408203125,-0.008953000418841839,-0.0019399999873712659,-0.004393999930471182
1772384420080491500,8.002491455078125,0.0024369999300688505,-0.0039519998244941235,-0.0019150000298395753
1772384420100548400,8.02254833984375,0.0035490000154823065,0.004838000051677227,-0.0031320000998675823
1772384420120605700,8.042605712890625,-0.008359000086784363,0.0022700000554323196,-0.0025059999898076057
1772384420140662800,8.062662841796875,-0.006688000168651342,-0.0021830000914633274,0.0019950000569224358
1772384420160720000,8.082719970703126,0.0018500000005587935,-0.0017460000235587358,-0.0008030000026337802
1772384420180777000,8.10277685546875,-0.0025190000887960196,0.004201999865472317,0.0017559999832883477
1772384420200834000,8.122833984375,0.004383999854326248,0.011362000368535519,-0.000994000001810491
1772384420220891400,8.142891357421876,-0.004490999970585108,-0.0005099999834783375,0.0016039999900385737
1772384420240948500,8.162948486328125,0.006006000097841024,-0.002807999961078167,0.0012829999905079603
1772384420261005600,8.183005615234375,0.000805000017862767,0.003352999920025468,0.0010260000126436353
1772384420281062700,8.203062744140626,0.003043999895453453,-0.004517000168561935,0.0008210000232793391
1772384420301119700,8.22311962890625,-0.003963999915868044,-0.0020129999611526728,0.003857000032439828
1772384420321177000,8.243177001953125,-0.004770999774336815,-0.0032110000029206276,0.0030849999748170376
1772384420341234000,8.26323388671875,-0.0022169998846948147,-0.0025679999962449074,-0.004730999935418367
1772384420361291300,8.283291259765624,0.007825000211596489,0.0019440000178292394,-0.005384999793022871
1772384420381348400,8.303348388671875,0.0006600000197067857,-0.002443999983370304,-0.0067079998552799225
1772384420401405700,8.32340576171875,-0.003470999887213111,-0.0019549999851733446,-0.001366000040434301
1772384420421462500,8.343462646484374,-0.0003769999893847853,-0.015163999982178211,-0.0010930000571534038
1772384420441519900,8.363519775390625,-0.002701000077649951,-0.004131000023335218,-0.0008740000193938613
1772384420461577000,8.383576904296875,0.00023799999326001853,0.003894000081345439,0.0008999999845400453
1772384420481634000,8.403634033203126,0.001791000016964972,0.008715000003576279,0.003120000008493662
1772384420501691100,8.423691162109375,0.0014319999609142542,-0.004226999823004007,0.0080960001796484
1772384420521748500,8.44374853515625,0.003544999985024333,0.002217999892309308,-0.00152299995534122
1772384420541805300,8.463805419921876,0.0028359999414533377,-0.005425000097602606,0.006781000178307295
1772384420561862400,8.4838623046875,0.002268000040203333,0.008458999916911125,0.0014250000240281224
1772384420581919500,8.50391943359375,0.0034149999264627695,0.009166999720036983,-0.004459000192582607
1772384420601976800,8.523976806640626,0.00433199992403388,0.0033340000081807375,-0.013167000375688076
1772384420622034000,8.544033935546874,-0.009333999827504158,-0.0069320001639425755,0.0006649999995715916
1772384420642090800,8.5640908203125,-0.004265999887138605,0.004052999895066023,0.0005319999763742089
1772384420662148000,8.584148193359376,-0.006612999830394983,0.0016430000541731715,0.0060259997844696045
1772384420682205200,8.604205078125,0.000307999987853691,0.004513999912887812,-0.0007789999945089221
1772384420702262500,8.624262451171875,0.004246999975293875,0.003611000021919608,-0.0006230000290088356
1772384420722319600,8.644319580078125,-0.004600999876856804,-0.0027099999133497477,-0.0004980000085197389
1772384420742376700,8.664376708984374,0.0019180000526830554,-0.002167999977245927,0.005200999788939953
1772384420762433500,8.68443359375,0.0015350000467151403,-0.0033340000081807375,-0.00303900009021163
1772384420782491000,8.704490966796875,0.0036269999109208584,0.00133200001437217,0.001567999948747456
1772384420802548200,8.72454833984375,-0.0034970000851899385,-0.00533400010317564,0.0028540000785142183
1772384420822605300,8.744605224609375,-0.004397000186145306,-0.001867000013589859,0.0006830000202171504
1772384420842662100,8.764662109375,0.004480999894440174,0.00010599999950500205,-0.0034519999753683805
1772384420862719500,8.784719482421876,0.005185000132769346,0.004083999898284674,0.006837000139057636
1772384420882776600,8.804776611328125,0.0025480000767856836,-0.0007319999858736992,0.0014700000174343586
1772384420902833700,8.824833740234375,0.0036379999946802855,-0.006184999831020832,0.009176000021398067
1772384420922890800,8.844890869140626,0.004509999882429838,0.0030509999487549067,-0.0022589999716728926
1772384420942948000,8.864947998046874,0.002007999923080206,0.00004099999932805076,-0.004207000136375427
1772384420963005200,8.885005126953125,-0.003992999903857708,0.004031999967992306,-0.000965000013820827
1772384420983062300,8.905062255859375,0.004005999770015478,0.0032259998843073845,0.006426999811083078
1772384421003119400,8.925119384765624,0.0016039999900385737,-0.008617999963462353,0.0011409999569877982
1772384421023176400,8.945176513671875,-0.009916000068187714,0.00030399998649954796,-0.0062859999015927315
1772384421043233500,8.965233642578125,-0.0007319999858736992,-0.006955999881029129,-0.0034290000330656767
1772384421063291000,8.985290771484374,0.0034129999112337828,0.0040350002236664295,0.001256000017747283
1772384421083348000,9.005347900390625,0.0043310001492500305,0.0032279998995363712,-0.0005939999828115106
1772384421103405000,9.025405029296875,-0.002133999951183796,-0.0038169999606907368,-0.00047500000800937414
1772384421123462100,9.045462158203126,0.000691999972332269,-0.0030539999715983868,0.002819000044837594
1772384421143519200,9.065519287109375,0.0037539999466389418,-0.0024429999757558107,0.002254999941214919
1772384421163576300,9.085576416015625,0.005402999930083752,0.002044999971985817,-0.0037950000260025263
1772384421183633700,9.105633544921876,0.0003220000071451068,0.00003600000127335079,-0.0006360000115819275
1772384421203690800,9.125690673828124,-0.007741000037640333,0.004029000177979469,-0.0045090001076459885
1772384421223748000,9.145748046875,-0.006192999891936779,-0.004776000045239925,0.0019920000340789557
1772384421243805000,9.165804931640626,-0.0009539999882690609,0.00177800003439188,-0.004004999995231628
1772384421263862300,9.1858623046875,-0.007964000105857849,0.005421999841928482,0.0023950000759214163
1772384421283919400,9.20591943359375,0.008829000405967236,0.0059380000457167625,0.0019160000374540687
1772384421303976400,9.2259765625,0.003063000040128827,0.001550000044517219,0.005532999988645315
1772384421324033500,9.246033447265624,-0.003148999996483326,-0.006759000010788441,-0.0035729999653995037
1772384421344091000,9.2660908203125,0.0030799999367445707,0.004191999789327383,-0.00445799995213747
1772384421364147700,9.286147705078125,0.004064000211656094,0.012953000143170357,0.002032000105828047
1772384421384205000,9.306205078125,0.000050999999075429514,-0.007236000150442123,0.000025999999706982635
1772384421404262100,9.32626220703125,-0.0023580000270158052,-0.011389000341296196,0.0032210000790655613
1772384421424319500,9.346319580078125,0.0021120000164955854,-0.0011109999613836408,0.0025760000571608543
1772384421444376300,9.366376220703126,0.003289999905973673,0.006310000084340572,-0.0035379999317228794
1772384421464433700,9.38643359375,-0.010168000124394894,-0.0005510000046342611,-0.0028299998957663774
1772384421484490800,9.40649072265625,-0.0025339999701827765,-0.0020409999415278435,0.007335000205785036
1772384421504547800,9.4265478515625,0.001972000114619732,-0.004031999967992306,0.0018680000212043524
1772384421524605000,9.44660498046875,0.0015770000172778964,0.004772999789565802,0.0014939999673515558
1772384421544662000,9.466662109375,0.0084610003978014,-0.00018099999579135329,-0.0004039999912492931
1772384421564719400,9.48671923828125,-0.002828999888151884,-0.001744000008329749,-0.0019229999743402004
1772384421584776400,9.5067763671875,-0.0022640000097453594,-0.001395000028423965,0.00406099995598197
1772384421604833500,9.52683349609375,-0.0034119999036192894,-0.003515999997034669,-0.000750000006519258
1772384421624890600,9.546890625,0.004470000043511391,-0.002812999999150634,-0.004600000102072954
1772384421644947700,9.56694775390625,0.0019759999122470617,0.001749000046402216,0.00031900001340545714
1772384421665004800,9.5870048828125,0.00318100000731647,-0.00419999985024333,0.005855000112205744
1772384421685062100,9.607062255859375,-0.0030539999715983868,0.002239000052213669,0.0006840000278316438
1772384421705119200,9.627119140625,-0.0024429999757558107,-0.0038079998921602964,-0.005051999818533659
1772384421725176300,9.64717626953125,-0.0019549999851733446,0.0009529999806545675,-0.00004099999932805076
1772384421745233400,9.6672333984375,0.0024349999148398638,0.00636200001463294,-0.00003300000025774352
1772384421765290800,9.687290771484374,0.009948000311851501,-0.0029090000316500664,-0.0040259999223053455
1772384421785347800,9.707347900390625,-0.00004099999932805076,-0.003926999866962433,-0.0032210000790655613
1772384421805405000,9.727405029296875,-0.00003199999991920777,0.002457000082358718,-0.00017699999443721026
1772384421825462300,9.747462158203126,-0.001626000041142106,0.004366000182926655,-0.00014099999680183828
1772384421845519000,9.76751904296875,-0.007699000183492899,0.0034920000471174717,0.00548599986359477
1772384421865576400,9.787576416015625,-0.00215999991632998,-0.003604999976232648,0.005989000201225281
1772384421885633500,9.807633544921876,0.0006709999870508909,-0.0004839999892283231,-0.0024079999420791864
1772384421905691000,9.82769091796875,-0.0018619999755173922,-0.0003870000073220581,-0.0019259999971836805
1772384421925747700,9.847747802734375,-0.0014890000456944108,0.0012890000361949205,-0.007141000125557184
1772384421945805000,9.86780517578125,0.0012069999938830733,0.005030999891459942,0.0014860000228509307
1772384421965862400,9.8878623046875,0.006566000171005726,-0.0015739999944344163,-0.00041000000783242285
1772384421985919500,9.90791943359375,0.002853000070899725,-0.0036589999217540026,0.0012710000155493617
1772384422005976600,9.9279765625,0.00228299992159009,0.0010720000136643648,0.002616999903693795
1772384422026033700,9.94803369140625,0.00022600000374950469,-0.000742000003810972,0.0044929999858140945
1772384422046091000,9.968091064453125,-0.0014189999783411622,-0.0029929999727755785,0.003594999900087714
1772384422066148000,9.988148193359375,0.00046400001156143844,0.004004999995231628,-0.005123000126332045
1772384422086205200,10.008205078125,0.004370999988168478,-0.0007949999999254942,-0.005698999855667353
1772384422106262300,10.02826220703125,-0.006101999897509813,0.00496299983933568,-0.00455900002270937
1772384422126319600,10.048319580078125,0.00471699982881546,-0.05762900039553642,0.051552001386880875
1772384422146376700,10.068376708984376,-0.07702499628067017,0.08429600298404694,-0.04835699871182442
1772384422166433800,10.088433837890625,0.13597899675369263,0.029037000611424446,-0.03708599880337715
1772384422186491000,10.108490966796875,-0.08881500363349915,0.019229000434279442,-0.014468999579548836
1772384422206548200,10.12854833984375,0.02654699981212616,-0.03181599825620651,0.011624000035226345
