time,seconds_elapsed,z,y,x
1772593965157252000,0.271252197265625,6.118382453918457,-6.188113689422607,5.121496677398682
1772593965177516000,0.29151611328125,6.121674537658691,-6.190806865692139,5.137657642364502
1772593965197779000,0.311779052734375,6.128857135772705,-6.201581001281738,5.144540786743164
1772593965218043000,0.33204296875,6.126462936401367,-6.217741966247559,5.140650272369385
1772593965238307000,0.35230712890625,6.115988254547119,-6.213851451873779,5.135263442993164
1772593965258571000,0.372571044921875,6.092345714569092,-6.21115779876709,5.122394561767578
1772593965278834000,0.392833984375,6.067505836486816,-6.219836711883545,5.102043628692627
1772593965299098000,0.41309814453125,6.036381244659424,-6.227019309997559,5.082291603088379
1772593965319362000,0.433362060546875,6.0190229415893555,-6.2294135093688965,5.0697221755981445
1772593965339625000,0.453625,5.990592002868652,-6.232705593109131,5.056553840637207
1772593965359889000,0.473888916015625,5.981015205383301,-6.232705593109131,5.04218864440918
1772593965380153000,0.494153076171875,5.964554786682129,-6.222530364990234,5.026028156280518
1772593965400416000,0.514416015625,5.960963726043701,-6.215347766876221,5.024531364440918
1772593965420680000,0.534679931640625,5.949292182922363,-6.225822448730469,5.014655590057373
1772593965440944000,0.554944091796875,5.9340291023254395,-6.218040943145752,5.010465621948242
1772593965461207000,0.57520703125,5.922357082366943,-6.227917194366455,4.998794078826904
1772593965481471000,0.595470947265625,5.9070940017700195,-6.237194538116455,4.998195171356201
1772593965501735000,0.61573486328125,5.894225120544434,-6.24467658996582,4.991910457611084
1772593965521998000,0.635998046875,5.894824028015137,-6.239588737487793,4.986823081970215
1772593965542262000,0.656261962890625,5.88584566116333,-6.254253387451172,4.988019943237305
1772593965562526000,0.67652587890625,5.892728805541992,-6.253355503082275,4.987122058868408
1772593965582789000,0.6967890625,5.881356239318848,-6.257246017456055,4.976946830749512
1772593965603053000,0.717052978515625,5.869385242462158,-6.265326499938965,4.967070579528809
1772593965623317000,0.73731689453125,5.8535237312316895,-6.257545471191406,4.956296920776367
1772593965643580000,0.757579833984375,5.850231647491455,-6.255151271820068,4.957793235778809
1772593965663844000,0.777843994140625,5.842750072479248,-6.25545072555542,4.953004837036133
1772593965684108000,0.79810791015625,5.8424506187438965,-6.255151271820068,4.952705383300781
1772593965704371000,0.818370849609375,5.841253757476807,-6.255151271820068,4.950909614562988
1772593965724635000,0.838634765625,5.848136901855469,-6.258742332458496,4.950610637664795
1772593965744899000,0.858899169921875,5.836165904998779,-6.2620344161987305,4.950909614562988
1772593965765162000,0.879161865234375,5.8406548500061035,-6.265326499938965,4.944924354553223
1772593965785426000,0.899426025390625,5.845443248748779,-6.269815921783447,4.933551788330078
1772593965805690000,0.919690185546875,5.839757442474365,-6.269516468048096,4.924274444580078
1772593965825953000,0.939953125,5.828683853149414,-6.269815921783447,4.909909248352051
1772593965846217000,0.960217041015625,5.827486991882324,-6.275801181793213,4.912901878356934
1772593965866481000,0.98048095703125,5.830180644989014,-6.28208589553833,4.912003993988037
1772593965886744000,1.000744140625,5.839757442474365,-6.28208589553833,4.912303447723389
1772593965907008000,1.021008056640625,5.843049049377441,-6.278793811798096,4.940135955810547
1772593965927272000,1.04127197265625,5.842151641845703,-6.271910667419434,4.958990097045898
1772593965947535000,1.06153515625,5.84035587310791,-6.269815921783447,4.98472785949707
1772593965967799000,1.081799072265625,5.834071159362793,-6.266523838043213,5.007472991943359
1772593965988063000,1.10206298828125,5.828983306884766,-6.269815921783447,5.007472991943359
1772593966008326000,1.122325927734375,5.820004940032959,-6.273107528686523,4.996998310089111
1772593966028590000,1.142590087890625,5.830479621887207,-6.285078525543213,4.973056316375732
1772593966048854000,1.16285400390625,5.838260650634766,-6.285677433013916,4.970961093902588
1772593966069117000,1.183116943359375,5.836165904998779,-6.279691696166992,4.972756862640381
1772593966089381000,1.203381103515625,5.831975936889648,-6.273107528686523,4.974253177642822
1772593966109645000,1.22364501953125,5.836764335632324,-6.262932300567627,4.965873718261719
1772593966129908000,1.243907958984375,5.834669589996338,-6.271312236785889,4.96737003326416
1772593966150172000,1.264171875,5.835567474365234,-6.2743048667907715,4.950610637664795
1772593966170436000,1.28443603515625,5.83347225189209,-6.2620344161987305,4.942530155181885
1772593966190699000,1.304698974609375,5.832275390625,-6.257246017456055,4.944325923919678
1772593966210963000,1.324962890625,5.828983306884766,-6.2491655349731445,4.939836502075195
1772593966231227000,1.345226806640625,5.837662220001221,-6.235698223114014,4.9350481033325195
1772593966251490000,1.365489990234375,5.827786445617676,-6.23539924621582,4.935647010803223
1772593966271754000,1.38575390625,5.829282760620117,-6.238092422485352,4.958092212677002
1772593966292018000,1.406017822265625,5.834370136260986,-6.243180274963379,4.974253177642822
1772593966312281000,1.426281005859375,5.8349690437316895,-6.241384506225586,4.989815711975098
1772593966332545000,1.446544921875,5.837363243103027,-6.238990306854248,5.005677223205566
1772593966352809000,1.46680908203125,5.8442463874816895,-6.247070789337158,5.02213716506958
1772593966373072000,1.48707177734375,5.839158535003662,-6.238391876220703,5.03291130065918
1772593966393336000,1.507336181640625,5.830180644989014,-6.24467658996582,5.057751178741455
1772593966413600000,1.52760009765625,5.821202278137207,-6.243778705596924,5.07451057434082
1772593966433863000,1.54786279296875,5.83347225189209,-6.2392897605896,5.092466831207275
1772593966454127000,1.568127197265625,5.837063789367676,-6.242282390594482,5.112219333648682
1772593966474391000,1.58839111328125,5.826289653778076,-6.233005046844482,5.128379821777344
1772593966494654000,1.608654052734375,5.828085422515869,-6.2306108474731445,5.118204593658447
1772593966514918000,1.62891796875,5.838260650634766,-6.229712963104248,5.095160484313965
1772593966535182000,1.64918212890625,5.871480464935303,-6.231807708740234,5.064335346221924
1772593966555446000,1.669446044921875,5.894225120544434,-6.221632480621338,5.031713962554932
1772593966575709000,1.689708984375,5.926247596740723,-6.2485671043396,5.014954566955566
1772593966595973000,1.70997314453125,5.969942092895508,-6.293159008026123,5.0014872550964355
1772593966616237000,1.730237060546875,6.013935565948486,-6.327276706695557,4.985326290130615
1772593966636500000,1.7505,6.02231502532959,-6.3610944747924805,4.97664737701416
1772593966656764000,1.770763916015625,6.037578105926514,-6.381744861602783,4.967968463897705
1772593966677028000,1.791028076171875,6.038775444030762,-6.390124320983887,4.970961093902588
1772593966697291000,1.811291015625,6.048651218414307,-6.383241176605225,4.970961093902588
1772593966717555000,1.831554931640625,6.06660795211792,-6.3622918128967285,4.953902721405029
1772593966737819000,1.85181884765625,6.057629585266113,-6.353612899780273,4.9583916664123535
1772593966758082000,1.87208203125,6.054038047790527,-6.356306076049805,4.949413299560547
1772593966778346000,1.892345947265625,6.063016414642334,-6.36378812789917,4.934749126434326
1772593966798610000,1.91260986328125,6.072294235229492,-6.383540153503418,4.935347557067871
1772593966818873000,1.932873046875,6.072294235229492,-6.411073684692383,4.922179222106934
1772593966839137000,1.953136962890625,6.07588529586792,-6.429628849029541,4.912003993988037
1772593966859401000,1.97340087890625,6.08276891708374,-6.441300392150879,4.912003993988037
1772593966879664000,1.9936640625,6.07588529586792,-6.464045524597168,4.919486045837402
1772593966899928000,2.013927978515625,6.051943302154541,-6.466439723968506,4.90571928024292
1772593966920192000,2.03419189453125,6.025906562805176,-6.461950302124023,4.910208225250244
1772593966940455000,2.054454833984375,5.999570369720459,-6.453271389007568,4.909310817718506
1772593966960719000,2.074718994140625,5.978621006011963,-6.426336765289307,4.905120849609375
1772593966980983000,2.094983154296875,5.963357925415039,-6.40927791595459,4.903923511505127
1772593967001246000,2.115245849609375,5.987000465393066,-6.400898456573486,4.910507678985596
1772593967021510000,2.135510009765625,5.948394298553467,-6.386233806610107,4.909909248352051
1772593967041774000,2.155774169921875,5.904699802398682,-6.3389482498168945,4.91379976272583
1772593967062037000,2.176037109375,5.8978166580200195,-6.331466197967529,4.911106109619141
1772593967082301000,2.196301025390625,5.925349712371826,-6.331167221069336,4.915894508361816
1772593967102565000,2.216565185546875,5.935824394226074,-6.3266777992248535,4.909011363983154
1772593967122828000,2.236828125,5.9181671142578125,-6.32637882232666,4.914099216461182
1772593967143092000,2.257092041015625,5.911583423614502,-6.317101001739502,4.937442302703857
1772593967163356000,2.27735595703125,5.92056131362915,-6.309918403625488,4.957194805145264
1772593967183619000,2.297619140625,5.918466567993164,-6.281188011169434,5.010166168212891
1772593967203883000,2.317883056640625,5.856815814971924,-6.280290126800537,5.084685802459717
1772593967224147000,2.33814697265625,5.837662220001221,-6.312312602996826,5.8657941818237305
1772593967244410000,2.35841015625,5.8406548500061035,-6.307823657989502,5.847538471221924
1772593967264674000,2.378674072265625,5.773617267608643,-5.343858242034912,5.8191070556640625
1772593967284938000,2.39893798828125,4.830301761627197,-4.499602794647217,4.950311183929443
1772593967305201000,2.419200927734375,3.9683892726898193,-3.6179380416870117,3.9956233501434326
1772593967325465000,2.439465087890625,3.9166147708892822,-3.549104690551758,3.1651346683502197
1772593967345729000,2.45972900390625,-0.45579615235328674,-3.547309160232544,2.3831284046173096
1772593967365992000,2.479991943359375,-3.4898481369018555,-4.387374401092529,2.3056161403656006
1772593967386256000,2.500255859375,-3.559579372406006,-4.477456569671631,1.2764087915420532
1772593967406520000,2.52052001953125,-3.4461541175842285,-4.532822132110596,1.203385591506958
1772593967426783000,2.540782958984375,-1.8507179021835327,-4.576516628265381,0.45579615235328674
1772593967447047000,2.561046875,-0.6428431272506714,-4.654926776885986,0.4345476031303406
1772593967467311000,2.58131103515625,0.9765350222587585,-8.359055519104004,-0.3728969097137451
1772593967487574000,2.601573974609375,3.96449875831604,-13.194445610046387,-3.3605613708496094
1772593967507838000,2.621837890625,3.978564739227295,-16.917129516601562,-2.59740948677063
1772593967528102000,2.642101806640625,-1.0438719987869263,-16.954837799072266,-1.2955623865127563
1772593967548365000,2.662364990234375,-4.522646903991699,-15.985785484313965,0.3259107172489166
1772593967568629000,2.68262890625,-4.470273971557617,-14.37568473815918,0.339078813791275
1772593967588893000,2.702892822265625,-2.5674819946289062,-13.145364761352539,0.333991140127182
1772593967609156000,2.723156005859375,0.9253589510917664,-12.09969711303711,0.36481648683547974
1772593967629420000,2.743419921875,1.0229226350784302,-12.065279960632324,0.444722980260849
1772593967649684000,2.76368408203125,-0.3241150677204132,-12.033257484436035,1.2731167078018188
1772593967669947000,2.78394677734375,-2.135328531265259,-11.966219902038574,2.27209734916687
1772593967690211000,2.804211181640625,-2.1688475608825684,-11.198280334472656,2.312499523162842
1772593967710475000,2.82447509765625,-2.0976200103759766,-11.17164421081543,2.3424270153045654
1772593967730738000,2.844738037109375,-1.1722609996795654,-11.113286018371582,2.4013843536376953
1772593967751002000,2.865002197265625,-1.9405004978179932,-10.355819702148438,3.2124202251434326
1772593967771266000,2.88526611328125,-2.7404630184173584,-9.476250648498535,3.2297780513763428
1772593967791529000,2.905529052734375,-2.6785130500793457,-9.419387817382812,3.228580951690674
1772593967811793000,2.92579296875,-0.872686505317688,-8.470685958862305,3.2007484436035156
1772593967832057000,2.94605712890625,0.12180501222610474,-7.547720909118652,3.157952070236206
1772593967852321000,2.966321044921875,0.16220717132091522,-6.737582683563232,3.092111587524414
1772593967872584000,2.986583984375,0.19602526724338531,-6.7247138023376465,2.340930700302124
1772593967892848000,3.00684814453125,0.19961656630039215,-7.654263019561768,2.3202807903289795
1772593967913112000,3.027112060546875,0.21697452664375305,-9.48882007598877,2.3116016387939453
1772593967933375000,3.047375,0.28072014451026917,-11.748048782348633,2.265213966369629
1772593967953639000,3.067638916015625,1.026813268661499,-15.502156257629395,2.212242364883423
1772593967973903000,3.087903076171875,1.0477625131607056,-20.400693893432617,2.1688475608825684
1772593967994166000,3.108166015625,1.0869675874710083,-23.933338165283203,2.208052635192871
1772593968014430000,3.128429931640625,1.0426748991012573,-24.847623825073242,3.0672717094421387
1772593968034694000,3.14869384765625,-0.5991489887237549,-22.497116088867188,3.1070752143859863
1772593968054957000,3.16895703125,-1.5960347652435303,-19.654600143432617,3.137601375579834
1772593968075221000,3.189220947265625,-1.6166846752166748,-16.516101837158203,3.1534628868103027
1772593968095485000,3.20948486328125,-1.591246247291565,-13.318046569824219,3.1244332790374756
1772593968115748000,3.229748046875,-1.5433622598648071,-10.229825019836426,3.0469210147857666
1772593968136012000,3.250011962890625,-1.5753847360610962,-7.374739646911621,2.2445640563964844
1772593968156276000,3.27027587890625,-1.6424223184585571,-5.253177642822266,2.18770170211792
1772593968176539000,3.290538818359375,-1.6199767589569092,-3.889380693435669,1.3554174900054932
1772593968196803000,3.310802978515625,-0.7466916441917419,-2.878129720687866,1.3311761617660522
1772593968217067000,3.33106689453125,-0.6826467514038086,-2.798522472381592,1.2922704219818115
1772593968237330000,3.351329833984375,-0.6084265112876892,-1.7378911972045898,1.2303204536437988
1772593968257594000,3.371593994140625,0.22026655077934265,-1.6675615310668945,1.1713632345199585
1772593968277858000,3.391858154296875,0.22385786473751068,-0.8574234843254089,0.3564367890357971
1772593968298121000,3.412120849609375,0.2421136498451233,-0.8143278360366821,0.34985271096229553
1772593968318385000,3.432385009765625,0.24839842319488525,-0.7775170207023621,0.3456628620624542
1772593968338649000,3.452649169921875,0.24750059843063354,-0.7439981698989868,0.3510498106479645
1772593968358912000,3.472912109375,0.24750059843063354,-0.6808511018753052,0.3354875147342682
1772593968379176000,3.493176025390625,0.25019407272338867,-0.6377554535865784,0.322618693113327
1772593968399440000,3.51343994140625,0.19303251802921295,-0.5832874178886414,0.3247136175632477
1772593968419703000,3.533703125,-1.632546305656433,0.14844051003456116,0.3034650683403015
1772593968439967000,3.553967041015625,-1.5628151893615723,0.14335282146930695,0.29718029499053955
1772593968460231000,3.57423095703125,-0.5793967843055725,0.09307458996772766,0.3175309896469116
1772593968480494000,3.594494140625,-0.5500678420066833,-1.690904974937439,1.303942084312439
1772593968500758000,3.614758056640625,-3.669712543487549,-3.4781765937805176,1.3847464323043823
1772593968521022000,3.63502197265625,0.44262802600860596,-11.039963722229004,1.2761094570159912
1772593968541285000,3.65528515625,1.4083890914916992,-17.50849723815918,-0.5144540667533875
1772593968561549000,3.675549072265625,1.415871024131775,-22.894254684448242,0.38965633511543274
1772593968581813000,3.69581298828125,1.4541782140731812,-22.93764877319336,0.42347443103790283
1772593968602076000,3.716075927734375,1.4317326545715332,-20.67572784423828,0.46657004952430725
1772593968622340000,3.736340087890625,1.356614589691162,-17.25022315979004,1.2671312093734741
1772593968642604000,3.75660400390625,1.2838906049728394,-14.55525016784668,1.3449428081512451
1772593968662867000,3.776866943359375,1.2425906658172607,-12.195764541625977,2.156876564025879
1772593968683131000,3.797130859375,1.1755530834197998,-10.776301383972168,2.21852707862854
1772593968703395000,3.81739501953125,-0.5671265125274658,-8.723274230957031,2.246060371398926
1772593968723658000,3.837657958984375,-1.6157869100570679,-6.892308235168457,2.2397756576538086
1772593968743922000,3.857921875,-1.5514427423477173,-5.345952987670898,2.198176383972168
1772593968764186000,3.87818603515625,-0.7715315222740173,-4.0533833503723145,2.13413143157959
1772593968784449000,3.898448974609375,0.04818331077694893,-2.924816608428955,2.0587141513824463
1772593968804713000,3.918712890625,0.08259996026754379,-2.069488048553467,1.1414356231689453
1772593968824977000,3.938976806640625,0.10444705188274384,-2.008735179901123,1.0992377996444702
1772593968845240000,3.959239990234375,0.114023856818676,-1.069908857345581,1.0190321207046509
1772593968865504000,3.97950390625,0.12030863761901855,-1.0295066833496094,0.9522937536239624
1772593968885768000,3.999767822265625,0.11133038252592087,-0.9663596749305725,0.2561795711517334
1772593968906031000,4.020031005859375,0.10893617570400238,-0.9127894043922424,0.23822307586669922
1772593968926295000,4.040294921875,0.09397241473197937,-0.8544307351112366,0.2008136659860611
1772593968946559000,4.06055908203125,0.08289923518896103,-0.12270283699035645,0.18315643072128296
1772593968966822000,4.08082177734375,-1.0316016674041748,-0.10773907601833344,0.15472528338432312
1772593968987086000,4.101086181640625,-1.0998363494873047,-0.09397241473197937,0.12988543510437012
1772593969007350000,4.12135009765625,-1.0247182846069336,-0.12060791254043579,0.12659341096878052
1772593969027613000,4.141613037109375,-0.9807248711585999,-1.338059425354004,1.3215993642807007
1772593969047877000,4.161877197265625,-1.0034698247909546,-3.5619735717773438,2.3127987384796143
1772593969068141000,4.18214111328125,2.2275054454803467,-9.05487060546875,3.1687259674072266
1772593969088404000,4.202404052734375,1.7013795375823975,-15.75773811340332,3.2019455432891846
1772593969108668000,4.22266796875,1.545756459236145,-20.555418014526367,2.2176294326782227
1772593969128932000,4.24293212890625,2.378340005874634,-21.7998046875,0.851138710975647
1772593969149196000,4.263196044921875,2.360682964324951,-19.563621520996094,0.7670423984527588
1772593969169459000,4.283458984375,1.1566987037658691,-16.210840225219727,0.7571662664413452
1772593969189723000,4.303722900390625,1.1231799125671387,-12.844293594360352,1.5732897520065308
1772593969209987000,4.323987060546875,1.1722609996795654,-10.053851127624512,2.409165382385254
1772593969230250000,4.34425,-0.09816227108240128,-7.579743385314941,3.389291763305664
1772593969250514000,4.364513916015625,-0.8864531517028809,-5.615600109100342,4.826411247253418
1772593969270778000,4.384778076171875,0.20709845423698425,-3.9752726554870605,6.009446144104004
1772593969291041000,4.405041015625,0.2546831965446472,-2.3681647777557373,6.063614845275879
1772593969311305000,4.425304931640625,0.24660277366638184,-1.1617863178253174,6.043862819671631
1772593969331569000,4.44556884765625,0.2157774269580841,-1.0690110921859741,4.78660774230957
1772593969351832000,4.46583203125,0.1975216418504715,-0.27383682131767273,3.5335423946380615
1772593969372096000,4.486095947265625,0.1801636815071106,-0.2579752206802368,2.559401512145996
1772593969392360000,4.50635986328125,0.1702875941991806,-0.22864626348018646,2.4899697303771973
1772593969412623000,4.526623046875,0.19033902883529663,-0.19572599232196808,1.7049708366394043
1772593969432887000,4.546886962890625,0.1975216418504715,-0.1628057211637497,0.867598831653595
1772593969453151000,4.56715087890625,0.20799627900123596,-0.13676877319812775,0.8245031833648682
1772593969473414000,4.587413818359375,0.21757307648658752,-0.11222820729017258,0.7580640912055969
1772593969493678000,4.607677978515625,0.23762452602386475,-0.114023856818676,-0.01227028388530016
1772593969513942000,4.62794189453125,0.2786252200603485,-0.14664486050605774,-0.042197804898023605
1772593969534205000,4.648204833984375,1.2461819648742676,-0.9148843288421631,-0.07152677327394485
1772593969554469000,4.66846923828125,-5.651812553405762,-4.720468044281006,1.0342950820922852
1772593969574733000,4.688733154296875,-1.7001824378967285,-11.801020622253418,0.9867103695869446
1772593969594996000,4.708995849609375,-0.7314286231994629,-18.479347229003906,-0.3124433159828186
1772593969615260000,4.729260009765625,0.114023856818676,-22.447437286376953,-1.1037269830703735
1772593969635524000,4.749524169921875,0.07661445438861847,-22.492328643798828,-0.9971849918365479
1772593969655787000,4.769787109375,-0.9056068062782288,-22.404939651489258,0.4456208050251007
1772593969676051000,4.790051025390625,-1.8258780241012573,-20.68979263305664,1.2410943508148193
1772593969696315000,4.81031494140625,-1.7600375413894653,-18.861820220947266,1.3236942291259766
1772593969716578000,4.830578125,-0.7380126714706421,-16.613365173339844,2.243666172027588
1772593969736842000,4.850842041015625,0.11342530697584152,-12.80927848815918,2.240074872970581
1772593969757106000,4.87110595703125,0.09846154600381851,-9.9494047164917,2.206256866455078
1772593969777369000,4.891369140625,-2.383427858352661,-6.940491676330566,1.4179660081863403
1772593969797633000,4.911633056640625,-2.316390037536621,-5.576993465423584,1.3685855865478516
1772593969817897000,4.93189697265625,-1.260547161102295,-4.1063551902771,1.324292778968811
1772593969838160000,4.952159912109375,-0.46657004952430725,-2.9454667568206787,1.2515689134597778
1772593969858424000,4.972424072265625,-0.3926490843296051,-2.0748751163482666,1.18094003200531
1772593969878688000,4.99268798828125,0.37409400939941406,-1.9940707683563232,1.1240776777267456
1772593969898951000,5.012950927734375,0.39055415987968445,-1.2129623889923096,1.047163963317871
1772593969919215000,5.033215087890625,0.41030630469322205,-1.1659762859344482,0.31513679027557373
1772593969939479000,5.05347900390625,0.46627077460289,-1.0977414846420288,0.30047231912612915
1772593969959742000,5.073741943359375,0.4770447015762329,-1.0441712141036987,0.3058592677116394
1772593969980006000,5.094005859375,0.4875193238258362,-0.31932663917541504,0.3031657934188843
1772593970000270000,5.11427001953125,0.46148237586021423,-0.2965817451477051,0.289399117231369
1772593970020533000,5.134532958984375,0.43424832820892334,-0.2876034677028656,0.28790274262428284
1772593970040797000,5.154796875,0.3941454589366913,-0.27383682131767273,0.28072014451026917
1772593970061061000,5.17506103515625,0.32202014327049255,-0.2579752206802368,0.28880056738853455
1772593970081324000,5.195323974609375,-1.1201871633529663,-0.2849099934101105,0.29807811975479126
1772593970101588000,5.215587890625,0.2421136498451233,-1.0764929056167603,0.34087446331977844
1772593970121852000,5.235851806640625,-0.9307458996772766,-4.023156642913818,2.6249427795410156
1772593970142115000,5.256114990234375,-1.1186907291412354,-8.097489356994629,3.413233757019043
1772593970162379000,5.27637890625,-1.028010368347168,-13.693936347961426,0.4273650050163269
1772593970182643000,5.296642822265625,1.0696096420288086,-19.407398223876953,-1.9904794692993164
1772593970202906000,5.316906005859375,1.1662755012512207,-22.717681884765625,-2.005143880844116
1772593970223170000,5.337170166015625,1.1758522987365723,-21.86444854736328,-1.0881646871566772
1772593970243434000,5.35743408203125,1.1617863178253174,-18.624794006347656,0.16849194467067719
1772593970263697000,5.37769677734375,1.1725603342056274,-14.980220794677734,1.6606781482696533
1772593970283961000,5.397961181640625,1.2042834758758545,-11.966818809509277,2.445377826690674
1772593970304225000,5.41822509765625,1.225232720375061,-9.365219116210938,2.4705169200897217
1772593970324488000,5.438488037109375,1.161487102508545,-7.086836814880371,2.5097219944000244
1772593970344752000,5.458752197265625,-0.8765770792961121,-5.080495834350586,2.564189910888672
1772593970365016000,5.47901611328125,-0.9053075313568115,-3.3482911586761475,3.3803136348724365
1772593970385279000,5.499279052734375,-0.8382698893547058,-2.0102314949035645,3.411438226699829
1772593970405543000,5.51954296875,0.026635494083166122,-1.2303204536437988,3.4066498279571533
1772593970425807000,5.53980712890625,0.049380410462617874,-1.1743559837341309,3.341108560562134
1772593970446071000,5.560071044921875,0.08200141042470932,-0.3845686614513397,2.2735939025878906
1772593970466334000,5.580333984375,0.09127894043922424,-0.37020343542099,2.209848165512085
1772593970486598000,5.600597900390625,0.05596446618437767,-0.3414730131626129,1.290175437927246
1772593970506862000,5.620862060546875,0.02603694424033165,-0.30526071786880493,1.2395979166030884
1772593970527125000,5.641125,-0.0038905777037143707,-0.25438392162323,1.183334231376648
1772593970547389000,5.661388916015625,-0.0314238965511322,-0.20051439106464386,1.1207857131958008
1772593970567653000,5.681653076171875,-0.03651157766580582,-0.16071078181266785,0.38875851035118103
1772593970587916000,5.701916015625,-0.025438392534852028,-0.12389993667602539,0.3654150366783142
1772593970608180000,5.722179931640625,-0.03292027488350868,-0.10863690078258514,0.34087446331977844
1772593970628444000,5.74244384765625,-1.1785458326339722,-0.15023615956306458,0.3109469413757324
1772593970648707000,5.76270703125,-1.1593921184539795,-2.5061306953430176,0.3175309896469116
1772593970668971000,5.782970947265625,2.1517887115478516,-8.149264335632324,1.1519103050231934
1772593970689235000,5.80323486328125,1.9602526426315308,-15.128960609436035,1.2243348360061646
1772593970709498000,5.823498046875,1.909974455833435,-20.010438919067383,1.2907739877700806
1772593970729762000,5.843761962890625,0.3725976347923279,-21.317672729492188,1.335964560508728
1772593970750026000,5.86402587890625,-0.7012017965316772,-20.3758544921875,1.3766659498214722
1772593970770289000,5.884288818359375,-0.6673837304115295,-18.277036666870117,1.3964180946350098
1772593970790553000,5.904552978515625,0.14784196019172668,-15.239093780517578,1.4056956768035889
1772593970810817000,5.924817138671875,0.9980828166007996,-12.606369972229004,1.45537531375885
1772593970831080000,5.945079833984375,1.05105459690094,-10.109217643737793,1.5310919284820557
1772593970851344000,5.96534375,0.20380641520023346,-7.603086948394775,1.5918447971343994
1772593970871608000,5.985608154296875,0.12419921159744263,-6.287173748016357,2.406771183013916
1772593970891871000,6.00587109375,0.152031809091568,-4.78930139541626,2.4654293060302734
1772593970912135000,6.026135009765625,0.17088614404201508,-3.4473512172698975,2.4881742000579834
1772593970932399000,6.046399169921875,0.16011223196983337,-2.24665904045105,2.4408886432647705
1772593970952662000,6.066662109375,0.1247977614402771,-1.4978724718093872,1.6202759742736816
1772593970972926000,6.086926025390625,0.07332243025302887,-0.6476315855979919,1.5732897520065308
1772593970993190000,6.10718994140625,0.039803601801395416,-0.6290764808654785,1.5077484846115112
1772593971013453000,6.127453125,0.0014963760040700436,-0.5668272376060486,0.7478887438774109
1772593971033717000,6.147717041015625,-0.0293289702385664,-0.5246294736862183,0.7335235476493835
1772593971053981000,6.16798095703125,-0.04578910768032074,-0.48901569843292236,0.7104793787002563
1772593971074244000,6.188244140625,-0.038307227194309235,-0.4602852761745453,0.6440402865409851
1772593971094508000,6.208508056640625,-0.057161565870046616,-0.44921210408210754,-0.35434186458587646
1772593971114772000,6.22877197265625,-0.04489128291606903,-0.4183867573738098,-0.37499183416366577
1772593971135035000,6.249034912109375,0.018555063754320145,-0.35434186458587646,-0.3908534348011017
1772593971155299000,6.269299072265625,-2.574066162109375,0.690727174282074,-0.4734533727169037
1772593971175563000,6.28956298828125,-2.49834942817688,0.6991068720817566,-0.4067150056362152
1772593971195826000,6.309825927734375,-1.4634557962417603,0.6560112833976746,0.6536170840263367
1772593971216090000,6.330090087890625,1.8584990501403809,-0.309151291847229,1.7381904125213623
1772593971236354000,6.35035400390625,-1.3503297567367554,-3.485957622528076,2.724302291870117
1772593971256617000,6.370616943359375,1.338358759880066,-10.573094367980957,4.167706489562988
1772593971276881000,6.390880859375,-2.121861219406128,-17.161937713623047,2.9607295989990234
1772593971297145000,6.41114501953125,-2.120664119720459,-22.597074508666992,-1.3093290328979492
1772593971317408000,6.431407958984375,-1.1581950187683105,-22.551584243774414,-2.4157495498657227
1772593971337672000,6.451671875,-0.18794482946395874,-18.447324752807617,-2.455852508544922
1772593971357936000,6.47193603515625,-0.20350714027881622,-12.867338180541992,-1.3952209949493408
1772593971378199000,6.492198974609375,-0.12629413604736328,-9.738714218139648,-0.13826514780521393
1772593971398463000,6.512462890625,0.9184756278991699,-7.558494567871094,1.0908581018447876
1772593971418727000,6.532726806640625,0.9253589510917664,-5.887940406799316,2.1209633350372314
1772593971438990000,6.552989990234375,-0.2744353711605072,-4.38348388671875,2.9532477855682373
1772593971459254000,6.57325390625,-0.33668461441993713,-3.2315738201141357,2.973299264907837
1772593971479518000,6.59351806640625,-0.34356793761253357,-2.1152772903442383,2.954145669937134
1772593971499781000,6.613781005859375,-0.32860419154167175,-1.1608885526657104,2.8918964862823486
1772593971520045000,6.634045166015625,-0.31124621629714966,-1.0986392498016357,1.9946693181991577
1772593971540309000,6.65430908203125,-0.2852092683315277,-0.31543606519699097,1.9623476266860962
1772593971560572000,6.674572021484375,-0.289399117231369,-0.29628247022628784,1.9270330667495728
1772593971580836000,6.694836181640625,-0.28880056738853455,-0.26994624733924866,1.8701708316802979
1772593971601100000,6.71510009765625,-0.24480712413787842,-0.2232593148946762,0.7990648150444031
1772593971621363000,6.735363037109375,0.5901707410812378,-0.16190789639949799,-0.11611878126859665
1772593971641627000,6.755626953125,0.6156091094017029,-0.0975637212395668,-0.20470423996448517
1772593971661891000,6.77589111328125,0.6102221608161926,-0.03950432687997818,-0.24181437492370605
1772593971682154000,6.796154052734375,-1.877951979637146,0.019452888518571854,-0.25438392162323
1772593971702418000,6.81641796875,-2.8401217460632324,0.020649990066885948,-0.20470423996448517
1772593971722682000,6.83668212890625,-1.7836803197860718,-1.1740566492080688,1.7932571172714233
1772593971742946000,6.856946044921875,-0.7715315222740173,-2.730886220932007,3.383605480194092
1772593971763209000,6.877208984375,1.1959037780761719,-5.231929302215576,4.887463569641113
1772593971783473000,6.897472900390625,2.8511948585510254,-10.626364707946777,5.6751556396484375
1772593971803737000,6.917737060546875,2.9328970909118652,-17.074848175048828,5.718251705169678
1772593971824000000,6.938,1.2401964664459229,-20.51621437072754,4.865317344665527
1772593971844257000,6.958257080078125,0.039205051958560944,-20.589237213134766,3.878906011581421
1772593971864520000,6.97852001953125,0.007481880486011505,-19.485809326171875,2.937685489654541
1772593971884784000,6.9987841796875,-0.06165069341659546,-17.81465721130371,2.8488006591796875
1772593971905048000,7.019048095703125,-0.03561374917626381,-16.03217315673828,1.9623476266860962
1772593971925311000,7.03931103515625,0.044592007994651794,-14.24579906463623,1.9243396520614624
1772593971945575000,7.059574951171875,0.8221089839935303,-12.027571678161621,1.876754879951477
1772593971965839000,7.079839111328125,0.8774749040603638,-9.797073364257812,1.8384475708007812
1772593971986102000,7.10010205078125,0.9445125460624695,-8.846575736999512,1.843834638595581
1772593972006366000,7.120365966796875,0.9169792532920837,-5.702389717102051,1.8782511949539185
1772593972026630000,7.1406298828125,-0.10534487664699554,-4.329015731811523,1.9291280508041382
1772593972046893000,7.16089306640625,-0.15113398432731628,-2.9957449436187744,1.9698294401168823
1772593972067157000,7.181156982421875,-0.15682020783424377,-2.105401039123535,2.0189106464385986
1772593972087421000,7.2014208984375,-0.17896658182144165,-1.2321161031723022,2.030282974243164
1772593972107684000,7.22168408203125,-0.19033902883529663,-1.1854290962219238,1.9812018871307373
1772593972127948000,7.241947998046875,-0.22954408824443817,-1.118391513824463,1.9030910730361938
1772593972148212000,7.2622119140625,-0.2684498727321625,-1.0552444458007812,1.1109095811843872
1772593972168475000,7.282474853515625,-0.3049614429473877,-0.27234044671058655,1.0642226934432983
1772593972188739000,7.302739013671875,-0.30196869373321533,-0.2663549482822418,0.9843161702156067
1772593972209003000,7.3230029296875,-0.2603694200515747,-0.218171626329422,0.9154828786849976
1772593972229266000,7.343265869140625,-0.22744916379451752,-0.18076223134994507,0.8544307351112366
1772593972249530000,7.363530029296875,-4.132691383361816,-0.2073977291584015,0.8954314589500427
1772593972269794000,7.3837939453125,-3.092111587524414,-0.2711433470249176,0.9193734526634216
1772593972290057000,7.404056884765625,-0.5671265125274658,-1.0136451721191406,1.754650592803955
1772593972310321000,7.42432080078125,1.9506758451461792,-3.82922625541687,4.5854949951171875
1772593972330585000,7.444585205078125,0.7909843921661377,-10.893617630004883,5.691915035247803
1772593972350848000,7.464847900390625,-2.4938602447509766,-17.46240997314453,3.7463271617889404
1772593972371112000,7.48511181640625,-1.126172661781311,-21.067777633666992,2.6013002395629883
1772593972391376000,7.5053759765625,0.4390367269515991,-21.129728317260742,1.8234838247299194
1772593972411639000,7.52563916015625,0.49709612131118774,-21.141399383544922,1.7932571172714233
1772593972431903000,7.545903076171875,0.5036801695823669,-21.978771209716797,0.8601169586181641
1772593972452167000,7.5661669921875,0.4025251567363739,-21.967998504638672,0.7948749661445618
1772593972472430000,7.58643017578125,-0.772429347038269,-20.711938858032227,0.7436988949775696
1772593972492694000,7.606694091796875,-0.7987655401229858,-18.670583724975586,0.7365162968635559
1772593972512958000,7.6269580078125,-0.7134721279144287,-15.336058616638184,0.7610568404197693
1772593972533221000,7.64722119140625,0.3845686614513397,-12.534543991088867,0.7942764163017273
1772593972553485000,7.667485107421875,0.4626794755458832,-9.928455352783203,0.8738836050033569
1772593972573749000,7.6877490234375,-0.921169102191925,-7.251438617706299,1.7184382677078247
1772593972594012000,7.708011962890625,-0.9277531504631042,-4.767454147338867,2.676118850708008
1772593972614276000,7.728276123046875,-0.8451532125473022,-2.7195138931274414,2.6961703300476074
1772593972634540000,7.7485400390625,-0.03890577703714371,-1.647210717201233,2.6850972175598145
1772593972654803000,7.768802978515625,-0.06853402405977249,-1.5682021379470825,2.6449942588806152
1772593972675067000,7.78906689453125,-0.12988543510437012,-0.7924807667732239,2.581547975540161
1772593972695331000,7.8093310546875,-0.1637035459280014,-0.7502829432487488,1.5939397811889648
1772593972715594000,7.829593994140625,-0.18914192914962769,-0.679354727268219,1.5430630445480347
1772593972735858000,7.84985791015625,-0.21128830313682556,0.1364694982767105,1.4712369441986084
1772593972756122000,7.8701220703125,-0.19033902883529663,0.16819266974925995,0.6640917062759399
1772593972776385000,7.890385009765625,-0.1586158573627472,0.19692309200763702,0.6524199843406677
1772593972796649000,7.91064892578125,-0.14844051003456116,0.1637035459280014,0.6446388363838196
1772593972816913000,7.930912841796875,-0.2232593148946762,-0.6607996821403503,0.628477931022644
1772593972837176000,7.951176025390625,-1.1620856523513794,-0.7194576263427734,0.6156091094017029
1772593972857440000,7.97143994140625,0.23582886159420013,-2.358887195587158,0.6634931564331055
1772593972877704000,7.991703857421875,1.710956335067749,-7.293636322021484,3.0098109245300293
1772593972897967000,8.011967041015625,1.7295114994049072,-14.034212112426758,3.954024076461792
1772593972918231000,8.03223095703125,0.3306991159915924,-19.04707145690918,3.3629555702209473
1772593972938495000,8.052494873046875,0.2998737692832947,-22.014684677124023,2.243666172027588
1772593972958758000,8.0727578125,0.25677812099456787,-22.736536026000977,2.2014684677124023
1772593972979022000,8.09302197265625,0.18555063009262085,-21.401470184326172,2.159270763397217
1772593972999286000,8.1132861328125,0.1529296338558197,-20.30013656616211,1.360205888748169
1772593973019549000,8.133548828125,0.19033902883529663,-18.889951705932617,1.3569138050079346
1772593973039813000,8.153813232421875,0.9729437232017517,-16.93299102783203,1.3979145288467407
1772593973060077000,8.1740771484375,0.99479079246521,-14.2030029296875,1.4496891498565674
1772593973080341000,8.194341064453125,1.003769040107727,-11.11178970336914,1.502361536026001
1772593973100604000,8.21460400390625,0.998681366443634,-8.375815391540527,1.522712230682373
1772593973120868000,8.2348681640625,0.9570821523666382,-6.030096054077148,1.502361536026001
1772593973141132000,8.255132080078125,-0.3660135865211487,-3.7963061332702637,1.436521053314209
1772593973161395000,8.27539501953125,-0.39474400877952576,-1.5667057037353516,1.3841478824615479
1772593973181659000,8.295658935546875,-0.39234980940818787,0.6425438523292542,1.449090600013733
1772593973201923000,8.315923095703125,-0.3728969097137451,2.176628589630127,2.419640064239502
1772593973222186000,8.33618603515625,-0.37409400939941406,2.220921277999878,2.4926631450653076
1772593973242450000,8.356449951171875,-0.40940847992897034,1.4529811143875122,2.4561517238616943
1772593973262714000,8.376714111328125,-0.33997663855552673,1.3563152551651,1.4317326545715332
1772593973282977000,8.39697705078125,0.7514800429344177,0.46806642413139343,0.5925649404525757
1772593973303241000,8.417240966796875,0.7203554511070251,0.48961424827575684,-0.3555389642715454
1772593973323505000,8.4375048828125,-0.0999579206109047,0.4917091727256775,-0.43095630407333374
1772593973343768000,8.45776806640625,-0.019153613597154617,-0.30226796865463257,-0.3935469090938568
1772593973364032000,8.478031982421875,0.6967126727104187,-4.132691383361816,0.6093243360519409
1772593973384296000,8.4982958984375,0.6593033075332642,-10.792163848876953,0.6461352109909058
1772593973404559000,8.51855908203125,3.807080030441284,-17.56625747680664,1.5918447971343994
1772593973424823000,8.538822998046875,-0.37469255924224854,-18.489521026611328,1.6178817749023438
1772593973445087000,8.5590869140625,-1.1878232955932617,-18.40033721923828,1.6103999614715576
1772593973465350000,8.579349853515625,-0.2950853705406189,-17.55458641052246,0.6084265112876892
1772593973485614000,8.599614013671875,0.7155670523643494,-17.5863094329834,0.6703764796257019
1772593973505878000,8.6198779296875,1.5134347677230835,-16.69566535949707,0.7311293482780457
1772593973526141000,8.640140869140625,1.424849271774292,-15.698481559753418,0.6488286852836609
1772593973546405000,8.660405029296875,0.6197989583015442,-15.645210266113281,-0.3603273630142212
1772593973566669000,8.6806689453125,0.5377975702285767,-14.229937553405762,0.4917091727256775
1772593973586932000,8.700931884765625,1.4443022012710571,-9.746196746826172,0.46238020062446594
1772593973607196000,8.72119580078125,1.5053542852401733,-8.925583839416504,0.3902548849582672
1772593973627460000,8.741460205078125,0.27413609623908997,-8.871415138244629,0.3528454899787903
1772593973647723000,8.761722900390625,0.1867477297782898,-7.956231594085693,0.3190273642539978
1772593973667987000,8.781987060546875,0.16579847037792206,-7.1811089515686035,0.2834136188030243
1772593973688251000,8.8022509765625,0.2157774269580841,-7.120056629180908,0.33997663855552673
1772593973708514000,8.82251416015625,0.2861070930957794,-7.147589683532715,1.2952631711959839
1772593973728778000,8.842778076171875,1.0330979824066162,-8.409933090209961,1.259350061416626
1772593973749042000,8.8630419921875,0.9894038438796997,-10.35252857208252,0.3214215636253357
1772593973769305000,8.88330517578125,0.9178770780563354,-12.237363815307617,0.2825157940387726
1772593973789569000,8.903569091796875,0.8601169586181641,-13.209110260009766,0.314238965511322
1772593973809833000,8.9238330078125,0.8463503122329712,-14.04378890991211,0.30137014389038086
1772593973830096000,8.944095947265625,0.8741828799247742,-14.003386497497559,0.23283611238002777
1772593973850360000,8.964360107421875,0.10923545062541962,-13.204022407531738,0.3157353401184082
1772593973870624000,8.9846240234375,0.04908113554120064,-13.151948928833008,1.2689268589019775
1772593973890887000,9.004886962890625,0.01825578883290291,-13.2216796875,1.335964560508728
1772593973911151000,9.025151123046875,0.044592007994651794,-14.17876148223877,2.03507137298584
1772593973931415000,9.0454150390625,0.046986207365989685,-13.417405128479004,0.9938929677009583
1772593973951678000,9.065677978515625,0.08888474106788635,-13.395258903503418,1.0157400369644165
1772593973971942000,9.08594189453125,2.197577953338623,-14.363714218139648,2.1092917919158936
1772593973992206000,9.1062060546875,2.2777836322784424,-14.428656578063965,3.1896753311157227
1772593974012469000,9.126468994140625,3.034351348876953,-14.460379600524902,4.7049055099487305
1772593974032733000,9.14673291015625,3.066972494125366,-14.421175003051758,5.667973041534424
1772593974052997000,9.1669970703125,3.126528263092041,-14.362217903137207,4.433762073516846
1772593974073260000,9.187260009765625,3.1220390796661377,-12.72637939453125,1.4867992401123047
1772593974093524000,9.20752392578125,1.647210717201233,-10.09126091003418,-1.2084733247756958
1772593974113788000,9.227787841796875,1.555931806564331,-9.03062915802002,2.4753053188323975
1772593974134051000,9.248051025390625,1.521515130996704,-8.152256965637207,6.657077789306641
1772593974154315000,9.26831494140625,1.4781203269958496,-8.115446090698242,7.507617950439453
1772593974174579000,9.288578857421875,1.413476824760437,-6.696881294250488,5.904999256134033
1772593974194842000,9.308842041015625,1.415871024131775,-5.155314922332764,4.789899826049805
1772593974215106000,9.32910595703125,1.4772224426269531,-3.606565475463867,4.750096321105957
1772593974235370000,9.349369873046875,2.2107460498809814,-2.2328922748565674,4.736329555511475
1772593974255633000,9.3696328125,2.94696307182312,-0.7305307984352112,3.988440752029419
1772593974275897000,9.38989697265625,4.107851505279541,0.028131870552897453,2.979583978652954
1772593974296161000,9.4101611328125,5.207388877868652,0.002992752008140087,1.6068086624145508
1772593974316424000,9.430423828125,5.231929302215576,-0.7559691667556763,0.4255693554878235
1772593974336688000,9.450688232421875,5.178658485412598,-0.7870938181877136,0.36092591285705566
1772593974356952000,9.4709521484375,4.270058631896973,-0.7706336975097656,0.2911947965621948
1772593974377216000,9.491216064453125,4.185064792633057,0.5524620413780212,-0.43275195360183716
1772593974397479000,9.51147900390625,4.963180065155029,0.6269815564155579,-0.456095427274704
1772593974417743000,9.5317431640625,5.780201435089111,0.6572083830833435,-0.456095427274704
1772593974458270000,9.57227001953125,8.93037223815918,-0.3669114112854004,5.1244893074035645
1772593974478534000,9.592533935546875,8.952219009399414,-1.4598644971847534,5.071218490600586
1772593974498798000,9.612798095703125,9.956586837768555,-0.23253683745861053,3.480870008468628
1772593974519061000,9.63306103515625,9.885359764099121,0.6715735793113708,2.001253366470337
1772593974539325000,9.653324951171875,9.088988304138184,1.8291701078414917,0.461183100938797
1772593974559589000,9.673589111328125,9.084199905395508,1.84503173828125,-0.7221511006355286
1772593974579852000,9.69385205078125,9.102156639099121,1.768117904663086,-1.6843209266662598
1772593974600116000,9.714115966796875,9.141061782836914,1.7405846118927002,-1.6684592962265015
1772593974620380000,9.7343798828125,9.208398818969727,1.7064672708511353,-1.6310498714447021
1772593974640643000,9.75464306640625,9.21288776397705,1.6915035247802734,-1.567304253578186
1772593974660907000,9.774906982421875,9.148544311523438,1.6935983896255493,-1.5283985137939453
1772593974681171000,9.7951708984375,8.288427352905273,1.78876793384552,-1.4984710216522217
1772593974701434000,9.81543408203125,8.201038360595703,1.8599954843521118,-1.436521053314209
1772593974721698000,9.835697998046875,7.269095420837402,2.6716299057006836,-1.4215573072433472
1772593974741962000,9.8559619140625,7.2801690101623535,2.7398645877838135,-1.4278420209884644
1772593974762225000,9.876224853515625,7.377732753753662,2.781463861465454,-1.4484920501708984
1772593974782489000,9.896489013671875,8.499116897583008,2.830544948577881,-1.4957774877548218
1772593974802753000,9.9167529296875,8.547300338745117,2.860771656036377,-1.4948797225952148
1772593974823016000,9.937015869140625,8.542811393737793,2.9227216243743896,-1.5077484846115112
1772593974843280000,9.95727978515625,8.487444877624512,3.690661907196045,-1.5194202661514282
1772593974863544000,9.9775439453125,8.434173583984375,3.7678749561309814,-1.5101426839828491
1772593974883807000,9.997806884765625,8.38569164276123,4.511573791503906,-1.5310919284820557
1772593974904071000,10.01807080078125,8.385991096496582,4.4975080490112305,-1.5218144655227661
1772593974924335000,10.038335205078125,8.441656112670898,4.471770286560059,-1.526602864265442
1772593974944598000,10.058597900390625,8.518868446350098,4.444536209106445,-1.525106430053711
1772593974964862000,10.078862060546875,9.22515869140625,4.387374401092529,-1.5289970636367798
1772593974985126000,10.0991259765625,9.249100685119629,4.325424671173096,-1.500266671180725
1772593975005389000,10.11938916015625,9.245808601379395,4.2742486000061035,-1.4745290279388428
1772593975025653000,10.139653076171875,9.215581893920898,4.206612586975098,-1.4287399053573608
1772593975045917000,10.1599169921875,9.18625259399414,4.143764495849609,-1.3781623840332031
1772593975066180000,10.18018017578125,9.157522201538086,4.1198225021362305,-1.3305776119232178
1772593975086444000,10.200444091796875,9.147346496582031,4.067748546600342,-1.301547884941101
1772593975106708000,10.2207080078125,9.102754592895508,3.9917328357696533,-1.2503718137741089
1772593975126971000,10.240970947265625,9.117419242858887,3.243544816970825,-1.2273277044296265
1772593975147235000,10.261235107421875,9.935338973999023,3.253420829772949,-1.2231377363204956
1772593975167499000,10.2814990234375,9.950302124023438,3.2830491065979004,-1.1851298809051514
1772593975187762000,10.301761962890625,9.886856079101562,3.3303346633911133,-1.160290002822876
1772593975208026000,10.322026123046875,8.880094528198242,3.355473756790161,-1.126172661781311
