time,seconds_elapsed,z,y,x
1772593965116816000,0.23081591796875,0.35387086868286133,-0.348783016204834,0.31461143493652344
1772593965136958000,0.2509580078125,0.27926063537597656,-0.2726583480834961,0.24303293228149414
1772593965157252000,0.271252197265625,0.2919025421142578,-0.2855839729309082,0.25404787063598633
1772593965177516000,0.29151611328125,0.29899168014526367,-0.2924962043762207,0.2608480453491211
1772593965197779000,0.311779052734375,0.30771350860595703,-0.30121326446533203,0.26848268508911133
1772593965218043000,0.33204296875,0.31106996536254883,-0.30542945861816406,0.2713284492492676
1772593965238307000,0.35230712890625,0.30396032333374023,-0.29874229431152344,0.26529884338378906
1772593965258571000,0.372571044921875,0.28967952728271484,-0.28566741943359375,0.2532081604003906
1772593965278834000,0.392833984375,0.27674341201782227,-0.27438783645629883,0.24195384979248047
1772593965299098000,0.41309814453125,0.2610921859741211,-0.26049375534057617,0.22859573364257812
1772593965319362000,0.433362060546875,0.28708457946777344,-0.28284597396850586,0.25063562393188477
1772593965339625000,0.453625,0.2828540802001953,-0.2795124053955078,0.24715566635131836
1772593965359889000,0.473888916015625,0.27657604217529297,-0.27411413192749023,0.2418522834777832
1772593965380153000,0.494153076171875,0.2681312561035156,-0.2665596008300781,0.23457908630371094
1772593965400416000,0.514416015625,0.2584109306335449,-0.25765323638916016,0.22618818283081055
1772593965420680000,0.534679931640625,0.24798965454101562,-0.24800729751586914,0.21718311309814453
1772593965440944000,0.554944091796875,0.2373194694519043,-0.23805952072143555,0.2079753875732422
1772593965461207000,0.57520703125,0.2276315689086914,-0.22904062271118164,0.19958019256591797
1772593965481471000,0.595470947265625,0.2189488410949707,-0.2209477424621582,0.19210052490234375
1772593965501735000,0.61573486328125,0.2113947868347168,-0.21388530731201172,0.1855912208557129
1772593965521998000,0.635998046875,0.20452594757080078,-0.20739316940307617,0.17964792251586914
1772593965542262000,0.656261962890625,0.19923686981201172,-0.20245075225830078,0.1750802993774414
1772593965562526000,0.67652587890625,0.19495773315429688,-0.19845819473266602,0.17139196395874023
1772593965582789000,0.6967890625,0.19156646728515625,-0.19538450241088867,0.1684856414794922
1772593965603053000,0.717052978515625,0.18814611434936523,-0.19234371185302734,0.16555070877075195
1772593965623317000,0.73731689453125,0.18391895294189453,-0.18841838836669922,0.1619105339050293
1772593965643580000,0.757579833984375,0.18050527572631836,-0.18529129028320312,0.1589679718017578
1772593965663844000,0.777843994140625,0.1771225929260254,-0.18214082717895508,0.15606117248535156
1772593965684108000,0.79810791015625,0.1739802360534668,-0.1791529655456543,0.15332508087158203
1772593965704371000,0.818370849609375,0.17115402221679688,-0.17642927169799805,0.1508498191833496
1772593965724635000,0.838634765625,0.16901350021362305,-0.17441368103027344,0.14897871017456055
1772593965744899000,0.858899169921875,0.1663370132446289,-0.1718153953552246,0.1466383934020996
1772593965765162000,0.879161865234375,0.1635603904724121,-0.1691274642944336,0.14420175552368164
1772593965785426000,0.899426025390625,0.16136646270751953,-0.1669936180114746,0.14223527908325195
1772593965805690000,0.919690185546875,0.15912866592407227,-0.16477251052856445,0.14021873474121094
1772593965825953000,0.939953125,0.15724706649780273,-0.16292476654052734,0.13849544525146484
1772593965846217000,0.960217041015625,0.15578508377075195,-0.16152477264404297,0.13714265823364258
1772593965866481000,0.98048095703125,0.15502643585205078,-0.1608414649963379,0.1363973617553711
1772593965886744000,1.000744140625,0.15466880798339844,-0.16054773330688477,0.13598251342773438
1772593965907008000,1.021008056640625,0.15525197982788086,-0.1612110137939453,0.13646554946899414
1772593965927272000,1.04127197265625,0.1557455062866211,-0.1617746353149414,0.13693475723266602
1772593965947535000,1.06153515625,0.15719127655029297,-0.1632852554321289,0.13828563690185547
1772593965967799000,1.081799072265625,0.15886545181274414,-0.16504526138305664,0.1399393081665039
1772593965988063000,1.10206298828125,0.1604771614074707,-0.16676664352416992,0.14159774780273438
1772593966008326000,1.122325927734375,0.16206789016723633,-0.16848373413085938,0.14324569702148438
1772593966028590000,1.142590087890625,0.16456985473632812,-0.17112207412719727,0.1456279754638672
1772593966048854000,1.16285400390625,0.1670546531677246,-0.17370223999023438,0.1479630470275879
1772593966069117000,1.183116943359375,0.16900873184204102,-0.17570972442626953,0.14985036849975586
1772593966089381000,1.203381103515625,0.17028045654296875,-0.17703008651733398,0.15117645263671875
1772593966109645000,1.22364501953125,0.1702594757080078,-0.17697906494140625,0.1512455940246582
1772593966129908000,1.243907958984375,0.17021465301513672,-0.1769542694091797,0.15124845504760742
1772593966150172000,1.264171875,0.16916513442993164,-0.1758880615234375,0.15023040771484375
1772593966170436000,1.28443603515625,0.1670384407043457,-0.17366504669189453,0.1481614112854004
1772593966190699000,1.304698974609375,0.16482257843017578,-0.17131757736206055,0.14601421356201172
1772593966210963000,1.324962890625,0.16258525848388672,-0.16890287399291992,0.14385414123535156
1772593966231227000,1.345226806640625,0.15996646881103516,-0.1660289764404297,0.14141845703125
1772593966251490000,1.365489990234375,0.15674400329589844,-0.1625809669494629,0.13850116729736328
1772593966271754000,1.38575390625,0.15457820892333984,-0.16024351119995117,0.1365647315979004
1772593966292018000,1.406017822265625,0.15359926223754883,-0.15914535522460938,0.1356945037841797
1772593966312281000,1.426281005859375,0.1534900665283203,-0.1589827537536621,0.1356649398803711
1772593966332545000,1.446544921875,0.15360736846923828,-0.15901422500610352,0.1358628273010254
1772593966352809000,1.46680908203125,0.15512704849243164,-0.1604933738708496,0.13737201690673828
1772593966373072000,1.48707177734375,0.15724468231201172,-0.16260719299316406,0.13947343826293945
1772593966393336000,1.507336181640625,0.16014909744262695,-0.16558313369750977,0.14235877990722656
1772593966413600000,1.52760009765625,0.16374444961547852,-0.16930580139160156,0.14594364166259766
1772593966433863000,1.54786279296875,0.16846847534179688,-0.17421245574951172,0.15060997009277344
1772593966454127000,1.568127197265625,0.17440080642700195,-0.18033981323242188,0.15640497207641602
1772593966474391000,1.58839111328125,0.17928600311279297,-0.18538618087768555,0.16130733489990234
1772593966494654000,1.608654052734375,0.18297386169433594,-0.1891798973083496,0.1650848388671875
1772593966514918000,1.62891796875,0.18589305877685547,-0.19215154647827148,0.16803884506225586
1772593966535182000,1.64918212890625,0.1886734962463379,-0.19488954544067383,0.1706385612487793
1772593966555446000,1.669446044921875,0.18992280960083008,-0.1959362030029297,0.17165565490722656
1772593966575709000,1.689708984375,0.19293689727783203,-0.19878768920898438,0.17406797409057617
1772593966595973000,1.70997314453125,0.1980762481689453,-0.2037668228149414,0.1781015396118164
1772593966616237000,1.730237060546875,0.2054433822631836,-0.2109537124633789,0.18382787704467773
1772593966636500000,1.7505,0.2132411003112793,-0.2187061309814453,0.18979740142822266
1772593966656764000,1.770763916015625,0.22127580642700195,-0.22670459747314453,0.19576692581176758
1772593966677028000,1.791028076171875,0.2300558090209961,-0.23547077178955078,0.2022261619567871
1772593966697291000,1.811291015625,0.2393803596496582,-0.24472570419311523,0.20907878875732422
1772593966717555000,1.831554931640625,0.24855327606201172,-0.2536940574645996,0.21570539474487305
1772593966737819000,1.85181884765625,0.25684452056884766,-0.2618722915649414,0.22178125381469727
1772593966758082000,1.87208203125,0.2653059959411621,-0.27037715911865234,0.22813701629638672
1772593966778346000,1.892345947265625,0.27228212356567383,-0.2773780822753906,0.2332601547241211
1772593966798610000,1.91260986328125,0.2774996757507324,-0.28262948989868164,0.23703765869140625
1772593966818873000,1.932873046875,0.28086280822753906,-0.2861642837524414,0.2393965721130371
1772593966839137000,1.953136962890625,0.28346776962280273,-0.2888813018798828,0.24111127853393555
1772593966859401000,1.97340087890625,0.2856931686401367,-0.2912106513977051,0.24256610870361328
1772593966879664000,1.9936640625,0.288240909576416,-0.2939777374267578,0.24434423446655273
1772593966899928000,2.013927978515625,0.2894001007080078,-0.2955322265625,0.2450084686279297
1772593966920192000,2.03419189453125,0.2900381088256836,-0.296846866607666,0.24550628662109375
1772593966940455000,2.054454833984375,0.28984594345092773,-0.2973957061767578,0.2453441619873047
1772593966960719000,2.074718994140625,0.2880887985229492,-0.2962818145751953,0.24394702911376953
1772593966980983000,2.094983154296875,0.2849278450012207,-0.2937159538269043,0.24151897430419922
1772593967001246000,2.115245849609375,0.28148937225341797,-0.2906532287597656,0.23882102966308594
1772593967021510000,2.135510009765625,0.275454044342041,-0.2848830223083496,0.2341151237487793
1772593967041774000,2.155774169921875,0.2656831741333008,-0.27515316009521484,0.22644948959350586
1772593967062037000,2.176037109375,0.2546663284301758,-0.2640843391418457,0.21771240234375
1772593967082301000,2.196301025390625,0.2440962791442871,-0.2532167434692383,0.20917797088623047
1772593967102565000,2.216565185546875,0.23480987548828125,-0.24350833892822266,0.20161676406860352
1772593967122828000,2.236828125,0.22602462768554688,-0.23430824279785156,0.19443225860595703
1772593967143092000,2.257092041015625,0.21869373321533203,-0.22655010223388672,0.18850231170654297
1772593967163356000,2.27735595703125,0.21392011642456055,-0.2214031219482422,0.18474769592285156
1772593967183619000,2.297619140625,0.2108325958251953,-0.21792316436767578,0.182586669921875
1772593967203883000,2.317883056640625,0.20685100555419922,-0.21385574340820312,0.18012237548828125
1772593967224147000,2.33814697265625,0.22860479354858398,-0.23649978637695312,0.20305824279785156
1772593967244410000,2.35841015625,0.25309181213378906,-0.2619800567626953,0.2289752960205078
1772593967264674000,2.378674072265625,0.24229717254638672,-0.24734020233154297,0.2233271598815918
1772593967284938000,2.39893798828125,0.14112615585327148,-0.14235353469848633,0.13257455825805664
1772593967305201000,2.419200927734375,-0.050057411193847656,0.049857139587402344,-0.04784584045410156
1772593967325465000,2.439465087890625,-0.2725801467895508,0.2676057815551758,-0.2613506317138672
1772593967345729000,2.45972900390625,-0.6383309364318848,0.6723852157592773,-0.6586465835571289
1772593967365992000,2.479991943359375,-0.9491410255432129,1.1931791305541992,-1.1502013206481934
1772593967386256000,2.500255859375,-1.1244258880615234,1.7959132194519043,-1.655768871307373
1772593967406520000,2.52052001953125,-1.083069086074829,2.4248909950256348,-2.1153063774108887
1772593967426783000,2.540782958984375,-0.9032951593399048,3.119537353515625,-2.4451098442077637
1772593967447047000,2.561046875,-0.5592563152313232,3.7843151092529297,-2.598259449005127
1772593967467311000,2.58131103515625,-0.1356409341096878,4.209076881408691,-2.1233699321746826
1772593967487574000,2.601573974609375,-0.04473719745874405,4.055135250091553,-1.0933414697647095
1772593967507838000,2.621837890625,-0.026979494839906693,2.9951391220092773,-0.354964017868042
1772593967528102000,2.642101806640625,0.09161186218261719,1.6995849609375,-0.07412904500961304
1772593967548365000,2.662364990234375,0.03959256410598755,0.438262939453125,-0.0068923234939575195
1772593967568629000,2.68262890625,-0.051026999950408936,-0.5601320266723633,-0.0027190297842025757
1772593967588893000,2.702892822265625,-0.1063496470451355,-1.414773941040039,-0.018254876136779785
1772593967609156000,2.723156005859375,-0.0726993978023529,-2.1504411697387695,-0.041085004806518555
1772593967629420000,2.743419921875,-0.026541784405708313,-2.893953323364258,-0.05227838456630707
1772593967649684000,2.76368408203125,-0.022854112088680267,-3.6305456161499023,-0.03930792212486267
1772593967669947000,2.78394677734375,-0.11463585495948792,-3.994892120361328,0.03449580818414688
1772593967690211000,2.804211181640625,-0.28437161445617676,-3.8301734924316406,0.19344252347946167
1772593967710475000,2.82447509765625,-0.41363072395324707,-3.3302364349365234,0.30200380086898804
1772593967730738000,2.844738037109375,-0.3655283451080322,-2.788738250732422,0.3477060794830322
1772593967751002000,2.865002197265625,-0.259629487991333,-2.2472267150878906,0.3481297492980957
1772593967771266000,2.88526611328125,-0.1892787218093872,-1.7974367141723633,0.3361020088195801
1772593967791529000,2.905529052734375,-0.16365671157836914,-1.4894227981567383,0.3271059989929199
1772593967811793000,2.92579296875,-0.15922129154205322,-1.2199029922485352,0.30955004692077637
1772593967832057000,2.94605712890625,-0.12684285640716553,-0.8738927841186523,0.25484371185302734
1772593967852321000,2.966321044921875,-0.06472694873809814,-0.43713951110839844,0.14269375801086426
1772593967872584000,2.986583984375,0.006956577301025391,0.05309009552001953,-0.01836419105529785
1772593967892848000,3.00684814453125,0.042498886585235596,0.38855743408203125,-0.1398627758026123
1772593967913112000,3.027112060546875,0.047116219997406006,0.5566263198852539,-0.20407366752624512
1772593967933375000,3.047375,0.034737467765808105,0.5162811279296875,-0.1870889663696289
1772593967953639000,3.067638916015625,0.0032893717288970947,0.10524463653564453,-0.03485727310180664
1772593967973903000,3.087903076171875,0.007686421275138855,-0.8635244369506836,0.24672913551330566
1772593967994166000,3.108166015625,0.08849483728408813,-2.21893310546875,0.5363092422485352
1772593968014430000,3.128429931640625,0.18729764223098755,-3.797666549682617,0.8017053604125977
1772593968034694000,3.14869384765625,0.2073967456817627,-5.248787879943848,0.9948570728302002
1772593968054957000,3.16895703125,0.16587820649147034,-6.5110015869140625,1.1372935771942139
1772593968075221000,3.189220947265625,0.10056829452514648,-7.479501724243164,1.2672810554504395
1772593968095485000,3.20948486328125,0.023352373391389847,-8.043701171875,1.3558099269866943
1772593968115748000,3.229748046875,-0.05694212019443512,-8.12346363067627,1.3971467018127441
1772593968136012000,3.250011962890625,-0.13763925433158875,-7.694266319274902,1.355780839920044
1772593968156276000,3.27027587890625,-0.23668289184570312,-6.692194938659668,1.2522578239440918
1772593968176539000,3.290538818359375,-0.2921940088272095,-5.078519821166992,1.0291070938110352
1772593968196803000,3.310802978515625,-0.2487037181854248,-3.041323661804199,0.6983561515808105
1772593968217067000,3.33106689453125,-0.10832667350769043,-0.935150146484375,0.24441814422607422
1772593968237330000,3.351329833984375,0.14572656154632568,1.0050783157348633,-0.3057687282562256
1772593968257594000,3.371593994140625,0.4155290126800537,2.643256187438965,-0.9470901489257812
1772593968277858000,3.391858154296875,0.6833017468452454,4.023372650146484,-1.6718173027038574
1772593968298121000,3.412120849609375,0.8979248404502869,5.0517072677612305,-2.4326624870300293
1772593968318385000,3.432385009765625,1.0017926692962646,5.769289970397949,-3.170440196990967
1772593968338649000,3.452649169921875,0.8684425354003906,6.158051490783691,-3.9077565670013428
1772593968358912000,3.472912109375,0.40600645542144775,6.416050910949707,-4.491900444030762
1772593968379176000,3.493176025390625,-0.4280078709125519,6.375005722045898,-5.08441162109375
1772593968399440000,3.51343994140625,-1.0751475095748901,6.263309478759766,-5.488393306732178
1772593968419703000,3.533703125,-0.659789502620697,5.859968185424805,-6.376821517944336
1772593968439967000,3.553967041015625,0.10417947918176651,5.452268600463867,-7.010331630706787
1772593968460231000,3.57423095703125,1.0895146131515503,4.6560282707214355,-7.679601192474365
1772593968480494000,3.594494140625,1.6862716674804688,4.725174903869629,-7.365137100219727
1772593968500758000,3.614758056640625,3.8312203884124756,5.051667213439941,-5.738654613494873
1772593968521022000,3.63502197265625,2.0209970474243164,6.602187156677246,-3.484341859817505
1772593968541285000,3.65528515625,0.7403880953788757,6.010011672973633,-1.4749189615249634
1772593968561549000,3.675549072265625,0.21775102615356445,4.016053199768066,-0.6027302145957947
1772593968581813000,3.69581298828125,0.04369014501571655,1.8481740951538086,-0.20136237144470215
1772593968602076000,3.716075927734375,-0.0008803978562355042,-0.13890743255615234,0.012260496616363525
1772593968622340000,3.736340087890625,0.03808256983757019,-1.876504898071289,0.15641969442367554
1772593968642604000,3.75660400390625,0.1331409215927124,-3.350940704345703,0.2747911214828491
1772593968662867000,3.776866943359375,0.22499459981918335,-4.588597297668457,0.4028940200805664
1772593968683131000,3.797130859375,0.3159828186035156,-5.502097129821777,0.48731422424316406
1772593968703395000,3.81739501953125,0.4541599750518799,-6.040097236633301,0.5501501560211182
1772593968723658000,3.837657958984375,0.3590327501296997,-5.625739097595215,0.5615530014038086
1772593968743922000,3.857921875,0.2143917679786682,-4.431395530700684,0.5653766393661499
1772593968764186000,3.87818603515625,0.09832412004470825,-2.589381217956543,0.41799771785736084
1772593968784449000,3.898448974609375,0.021146953105926514,-0.6677017211914062,0.13946247100830078
1772593968804713000,3.918712890625,-0.02441909909248352,1.079519271850586,-0.2841300964355469
1772593968824977000,3.938976806640625,-0.02320948988199234,2.464420795440674,-0.7864971160888672
1772593968845240000,3.959239990234375,0.03411223366856575,3.6035070419311523,-1.4095673561096191
1772593968865504000,3.97950390625,0.16734974086284637,4.4819793701171875,-2.07496976852417
1772593968885768000,3.999767822265625,0.41005268692970276,5.183370113372803,-2.7900099754333496
1772593968906031000,4.020031005859375,0.435482919216156,5.662324905395508,-3.5181570053100586
1772593968926295000,4.040294921875,0.09475918859243393,5.967658519744873,-4.208790302276611
1772593968946559000,4.06055908203125,-0.523167073726654,6.060925006866455,-4.940953254699707
1772593968966822000,4.08082177734375,-0.5657982230186462,6.052751064300537,-5.600771903991699
1772593968987086000,4.101086181640625,0.07072247564792633,6.0631422996521,-6.108695983886719
1772593969007350000,4.12135009765625,1.0689047574996948,5.723339557647705,-6.607725620269775
1772593969027613000,4.141613037109375,2.0434834957122803,5.159165382385254,-6.845580101013184
1772593969047877000,4.161877197265625,2.295499086380005,5.5736589431762695,-6.039737701416016
1772593969068141000,4.18214111328125,0.5134071111679077,6.433404922485352,-4.413913726806641
1772593969088404000,4.202404052734375,-0.05406524986028671,5.812391757965088,-2.6414310932159424
1772593969108668000,4.22266796875,-0.14500176906585693,4.262088298797607,-1.3532862663269043
1772593969128932000,4.24293212890625,-0.1320745348930359,2.360495090484619,-0.5519051551818848
1772593969149196000,4.263196044921875,-0.03402435779571533,0.4930248260498047,-0.09383893013000488
1772593969169459000,4.283458984375,0.08586150407791138,-1.0860958099365234,0.1817765235900879
1772593969189723000,4.303722900390625,0.2104969024658203,-2.360250473022461,0.3814418315887451
1772593969209987000,4.323987060546875,0.33459925651550293,-3.370363235473633,0.5622586011886597
1772593969230250000,4.34425,0.40566694736480713,-4.008225440979004,0.6988850831985474
1772593969250514000,4.364513916015625,0.4262498617172241,-4.239106178283691,0.8052618503570557
1772593969270778000,4.384778076171875,0.3367201089859009,-3.77447509765625,0.8249015808105469
1772593969291041000,4.405041015625,0.22107982635498047,-2.5381546020507812,0.6773993968963623
1772593969311305000,4.425304931640625,0.07616579532623291,-0.8370885848999023,0.2985093593597412
1772593969331569000,4.44556884765625,-0.06839871406555176,0.7815451622009277,-0.38991212844848633
1772593969351832000,4.46583203125,-0.15636882185935974,1.96333646774292,-1.3827881813049316
1772593969372096000,4.486095947265625,-0.21450358629226685,2.486419677734375,-2.481863021850586
1772593969392360000,4.50635986328125,-0.22184178233146667,2.4502196311950684,-3.4882736206054688
1772593969412623000,4.526623046875,-0.18447111546993256,2.1338582038879395,-4.337146282196045
1772593969432887000,4.546886962890625,-0.26355403661727905,1.7435121536254883,-5.0556840896606445
1772593969453151000,4.56715087890625,-0.4931759238243103,1.3516765832901,-5.705005168914795
1772593969473414000,4.587413818359375,-0.6402832865715027,0.9981424808502197,-6.361769676208496
1772593969493678000,4.607677978515625,-0.861469030380249,0.7572795152664185,-7.006548881530762
1772593969513942000,4.62794189453125,-1.219787836074829,0.6875641345977783,-7.580878734588623
1772593969534205000,4.648204833984375,-2.161761999130249,0.8525002598762512,-7.824119567871094
1772593969554469000,4.66846923828125,0.859776496887207,3.5039846897125244,-7.513978958129883
1772593969574733000,4.688733154296875,1.2102575302124023,6.316939830780029,-4.1510443687438965
1772593969594996000,4.708995849609375,0.6996178030967712,5.858758449554443,-1.438765048980713
1772593969615260000,4.729260009765625,0.2928127348423004,3.9006705284118652,-0.40344905853271484
1772593969635524000,4.749524169921875,0.09581941366195679,1.7186260223388672,-0.08867710828781128
1772593969655787000,4.769787109375,-0.0273171067237854,-0.5011501312255859,0.01840972900390625
1772593969676051000,4.790051025390625,-0.15881776809692383,-2.562366485595703,0.08845996856689453
1772593969696315000,4.81031494140625,-0.30146872997283936,-4.442586898803711,0.1748957633972168
1772593969716578000,4.830578125,-0.40961217880249023,-6.0933122634887695,0.30279889702796936
1772593969736842000,4.850842041015625,-0.5042604207992554,-7.289392471313477,0.43579626083374023
1772593969757106000,4.87110595703125,-0.2681976556777954,-7.797769546508789,0.5043212175369263
1772593969777369000,4.891369140625,-0.2880605459213257,-7.316352844238281,0.5051076412200928
1772593969797633000,4.911633056640625,-0.3180609941482544,-6.044193267822266,0.5156948566436768
1772593969817897000,4.93189697265625,-0.2946852445602417,-4.247261047363281,0.48384904861450195
1772593969838160000,4.952159912109375,-0.20029914379119873,-2.350860595703125,0.35544395446777344
1772593969858424000,4.972424072265625,-0.03784787654876709,-0.38848304748535156,0.07357537746429443
1772593969878688000,4.99268798828125,0.13028347492218018,1.4045448303222656,-0.325347900390625
1772593969898951000,5.012950927734375,0.25717294216156006,3.0377840995788574,-0.8863251209259033
1772593969919215000,5.033215087890625,0.3903363347053528,4.436437606811523,-1.5330126285552979
1772593969939479000,5.05347900390625,0.578222930431366,5.420116901397705,-2.188173294067383
1772593969959742000,5.073741943359375,0.7773489356040955,6.092350482940674,-2.83737850189209
1772593969980006000,5.094005859375,0.19243161380290985,6.474219799041748,-3.630887508392334
1772593970000270000,5.11427001953125,-0.9109671711921692,6.496987819671631,-4.436481475830078
1772593970020533000,5.134532958984375,-2.0558524131774902,6.1847333908081055,-5.060818195343018
1772593970040797000,5.154796875,-3.0259647369384766,5.729496479034424,-5.467523097991943
1772593970061061000,5.17506103515625,-3.981930732727051,5.216217994689941,-5.594524383544922
1772593970081324000,5.195323974609375,-3.6503207683563232,5.011938095092773,-6.3086466789245605
1772593970101588000,5.215587890625,-3.7900593280792236,5.271271228790283,-6.100850582122803
1772593970121852000,5.235851806640625,-1.763516902923584,5.853102207183838,-6.056062698364258
1772593970142115000,5.256114990234375,-0.3585059344768524,6.27506160736084,-4.779758453369141
1772593970162379000,5.27637890625,0.1442914456129074,6.258028507232666,-2.6234917640686035
1772593970182643000,5.296642822265625,0.006137537769973278,4.9238457679748535,-0.9825031161308289
1772593970202906000,5.316906005859375,-0.02630208432674408,2.8203439712524414,-0.2872624397277832
1772593970223170000,5.337170166015625,-0.010586977005004883,0.693263053894043,-0.043344080448150635
1772593970243434000,5.35743408203125,0.02242302894592285,-1.13623046875,0.05793726444244385
1772593970263697000,5.37769677734375,0.06335321068763733,-2.6120405197143555,0.14628064632415771
1772593970283961000,5.397961181640625,0.14902204275131226,-3.791470527648926,0.254075825214386
1772593970304225000,5.41822509765625,0.20312416553497314,-4.629877090454102,0.360901415348053
1772593970324488000,5.438488037109375,0.28259003162384033,-4.94094181060791,0.3732525110244751
1772593970344752000,5.458752197265625,0.27860701084136963,-4.637804985046387,0.33034825325012207
1772593970365016000,5.47901611328125,0.23822706937789917,-3.6292428970336914,0.3587360978126526
1772593970385279000,5.499279052734375,0.11578905582427979,-1.9609317779541016,0.3139982223510742
1772593970405543000,5.51954296875,-0.0006390810012817383,0.010572433471679688,-0.002681255340576172
1772593970425807000,5.53980712890625,-0.1073356568813324,1.7290153503417969,-0.6644151210784912
1772593970446071000,5.560071044921875,-0.18925586342811584,3.002953052520752,-1.644498348236084
1772593970466334000,5.580333984375,-0.2183588296175003,3.6931629180908203,-2.7891907691955566
1772593970486598000,5.600597900390625,-0.17082315683364868,3.925022602081299,-3.976710319519043
1772593970506862000,5.620862060546875,-0.015503902919590473,3.643728256225586,-5.10453462600708
1772593970527125000,5.641125,0.23714539408683777,3.0059385299682617,-6.0244879722595215
1772593970547389000,5.661388916015625,0.060084763914346695,2.264531135559082,-6.687093734741211
1772593970567653000,5.681653076171875,-0.20001360774040222,1.7615188360214233,-7.221804618835449
1772593970587916000,5.701916015625,-0.5543997883796692,1.4207167625427246,-7.6183552742004395
1772593970608180000,5.722179931640625,-0.6572872996330261,1.225987434387207,-7.969623565673828
1772593970628444000,5.74244384765625,-0.09745313227176666,0.9477877616882324,-8.355489730834961
1772593970648707000,5.76270703125,0.7412395477294922,2.5309953689575195,-8.13671588897705
1772593970668971000,5.782970947265625,-0.5106140375137329,5.973644256591797,-5.625931262969971
1772593970689235000,5.80323486328125,-0.7030385136604309,6.399100303649902,-2.6162264347076416
1772593970709498000,5.823498046875,-0.5080240964889526,4.896492958068848,-1.1490440368652344
1772593970729762000,5.843761962890625,-0.22584456205368042,2.9420461654663086,-0.48012423515319824
1772593970750026000,5.86402587890625,-0.050695329904556274,0.9877710342407227,-0.1267993450164795
1772593970770289000,5.884288818359375,0.029312998056411743,-0.8030509948730469,0.09303617477416992
1772593970790553000,5.904552978515625,0.07696357369422913,-2.3071298599243164,0.25367534160614014
1772593970810817000,5.924817138671875,0.13507091999053955,-3.556427001953125,0.38409698009490967
1772593970831080000,5.945079833984375,0.23221927881240845,-4.5589189529418945,0.49697816371917725
1772593970851344000,5.96534375,0.2965065836906433,-5.077703475952148,0.5781956911087036
1772593970871608000,5.985608154296875,0.22162240743637085,-4.896405220031738,0.606705904006958
1772593970891871000,6.00587109375,0.13740324974060059,-3.8821868896484375,0.5531474351882935
1772593970912135000,6.026135009765625,0.05832570791244507,-2.2673873901367188,0.39072465896606445
1772593970932399000,6.046399169921875,0.012534648180007935,-0.4398059844970703,0.09507393836975098
1772593970952662000,6.066662109375,-0.06007504463195801,1.3266048431396484,-0.35736727714538574
1772593970972926000,6.086926025390625,-0.19973057508468628,2.8750791549682617,-0.997046947479248
1772593970993190000,6.10718994140625,-0.35168036818504333,3.9978294372558594,-1.8078227043151855
1772593971013453000,6.127453125,-0.4260386824607849,4.751886367797852,-2.7572641372680664
1772593971033717000,6.147717041015625,-0.41346508264541626,5.06746768951416,-3.8212149143218994
1772593971053981000,6.16798095703125,-0.4865582287311554,4.970398902893066,-4.846068382263184
1772593971074244000,6.188244140625,-0.5886313319206238,4.668779373168945,-5.816668510437012
1772593971094508000,6.208508056640625,-0.7013967037200928,4.398914337158203,-6.604453086853027
1772593971114772000,6.22877197265625,-0.8185204267501831,4.152801513671875,-7.220513343811035
1772593971135035000,6.249034912109375,-1.0035384893417358,4.153834342956543,-7.588300704956055
1772593971155299000,6.269299072265625,1.592597484588623,3.3326892852783203,-8.192541122436523
1772593971175563000,6.28956298828125,5.250427722930908,2.1841275691986084,-7.109729766845703
1772593971195826000,6.309825927734375,6.9775776863098145,0.4858967065811157,-5.793093204498291
1772593971216090000,6.330090087890625,5.0137505531311035,0.17338944971561432,-7.632238388061523
1772593971236354000,6.35035400390625,4.603964328765869,2.8544857501983643,-6.990039348602295
1772593971256617000,6.370616943359375,1.6489734649658203,6.039999008178711,-5.052644729614258
1772593971276881000,6.390880859375,1.1083210706710815,5.829654216766357,-2.6023266315460205
1772593971297145000,6.41114501953125,0.6300875544548035,4.233227729797363,-1.0074610710144043
1772593971317408000,6.431407958984375,0.26554834842681885,2.223484992980957,-0.31003594398498535
1772593971337672000,6.451671875,0.048110008239746094,0.48969078063964844,-0.043926119804382324
1772593971357936000,6.47193603515625,-0.052088379859924316,-0.8234891891479492,0.05722731351852417
1772593971378199000,6.492198974609375,-0.06883463263511658,-1.851994514465332,0.12142646312713623
1772593971398463000,6.512462890625,-0.04154844582080841,-2.667391777038574,0.17271602153778076
1772593971418727000,6.532726806640625,-0.07125753164291382,-3.2265682220458984,0.20945632457733154
1772593971438990000,6.552989990234375,-0.0454799085855484,-3.3156957626342773,0.21956032514572144
1772593971459254000,6.57325390625,-0.07248848676681519,-2.5809383392333984,0.15611588954925537
1772593971479518000,6.59351806640625,-0.01682533323764801,-1.0788383483886719,0.07423913478851318
1772593971499781000,6.613781005859375,-0.0011414121836423874,1.0022773742675781,-0.13428151607513428
1772593971520045000,6.634045166015625,-0.042532145977020264,2.9520797729492188,-0.7230477333068848
1772593971540309000,6.65430908203125,-0.07581494748592377,4.244917869567871,-1.8309972286224365
1772593971560572000,6.674572021484375,-0.10045278817415237,4.601493835449219,-3.135993003845215
1772593971580836000,6.694836181640625,-0.10209938138723373,4.333496570587158,-4.392157077789307
1772593971601100000,6.71510009765625,0.11970233917236328,3.861225128173828,-5.433067321777344
1772593971621363000,6.735363037109375,0.2431718409061432,3.3657357692718506,-6.312543869018555
1772593971641627000,6.755626953125,0.002684688661247492,2.857151985168457,-7.07222843170166
1772593971661891000,6.77589111328125,-0.4272899627685547,2.2498319149017334,-7.7006683349609375
1772593971682154000,6.796154052734375,0.35664573311805725,1.6843204498291016,-8.219970703125
1772593971702418000,6.81641796875,2.410898208618164,1.264526128768921,-8.243431091308594
1772593971722682000,6.83668212890625,3.4409968852996826,1.281145453453064,-7.830974578857422
1772593971742946000,6.856946044921875,3.1643283367156982,2.57380747795105,-7.397701740264893
1772593971763209000,6.877208984375,1.6222171783447266,4.103068828582764,-6.707034111022949
1772593971783473000,6.897472900390625,0.11638160049915314,5.132493019104004,-4.919831275939941
1772593971803737000,6.917737060546875,-0.3456037640571594,4.578520774841309,-2.9704554080963135
1772593971824000000,6.938,-0.18418049812316895,3.078730583190918,-1.5502400398254395
1772593971844257000,6.958257080078125,-0.04777827858924866,1.3107280731201172,-0.5540132522583008
1772593971864520000,6.97852001953125,0.010706096887588501,-0.46808338165283203,0.1734154224395752
1772593971884784000,6.9987841796875,0.07618540525436401,-2.1653318405151367,0.7358815670013428
1772593971905048000,7.019048095703125,0.19411110877990723,-3.7077322006225586,1.1665868759155273
1772593971925311000,7.03931103515625,0.2984362840652466,-4.947270393371582,1.4193263053894043
1772593971945575000,7.059574951171875,0.39011383056640625,-5.815438270568848,1.5095410346984863
1772593971965839000,7.079839111328125,0.391976535320282,-6.21060848236084,1.4450297355651855
1772593971986102000,7.10010205078125,0.3085840940475464,-5.982454299926758,1.260561227798462
1772593972006366000,7.120365966796875,0.20094221830368042,-4.822078704833984,0.9677786827087402
1772593972026630000,7.1406298828125,0.11680346727371216,-3.206033706665039,0.6512646675109863
1772593972046893000,7.16089306640625,0.059845149517059326,-1.477219581604004,0.32234716415405273
1772593972067157000,7.181156982421875,-0.008958637714385986,0.1934375762939453,-0.04818391799926758
1772593972087421000,7.2014208984375,-0.09565871953964233,1.7450284957885742,-0.5102472305297852
1772593972107684000,7.22168408203125,-0.19855397939682007,3.030600070953369,-1.1005361080169678
1772593972127948000,7.241947998046875,-0.3125031888484955,4.027196407318115,-1.8564512729644775
1772593972148212000,7.2622119140625,-0.3365230858325958,4.724873065948486,-2.718360424041748
1772593972168475000,7.282474853515625,-0.2691846787929535,5.056974411010742,-3.758950710296631
1772593972188739000,7.302739013671875,-0.061573222279548645,4.892341613769531,-5.026097297668457
1772593972209003000,7.3230029296875,0.29428762197494507,4.399875640869141,-5.994135856628418
1772593972229266000,7.343265869140625,0.3999480605125427,3.7144041061401367,-6.795436382293701
1772593972249530000,7.363530029296875,2.103638172149658,2.927314519882202,-7.037395477294922
1772593972269794000,7.3837939453125,3.449955463409424,2.23921537399292,-6.81571102142334
1772593972290057000,7.404056884765625,3.6476802825927734,2.1623191833496094,-6.751546859741211
1772593972310321000,7.42432080078125,2.3405370712280273,2.860182285308838,-6.803709506988525
1772593972330585000,7.444585205078125,1.2734079360961914,4.256134510040283,-5.356561660766602
1772593972350848000,7.464847900390625,0.9739832878112793,4.432188987731934,-3.214738368988037
1772593972371112000,7.48511181640625,0.49943745136260986,3.3060412406921387,-1.5773615837097168
1772593972391376000,7.5053759765625,0.163843035697937,1.6472406387329102,-0.5868954658508301
1772593972411639000,7.52563916015625,-0.01683741807937622,-0.24050426483154297,0.0692746639251709
1772593972431903000,7.545903076171875,-0.11645650863647461,-2.287684440612793,0.5374941825866699
1772593972452167000,7.5661669921875,-0.0463128387928009,-4.378862380981445,0.8656693696975708
1772593972472430000,7.58643017578125,0.03340257704257965,-6.377353668212891,1.0930724143981934
1772593972492694000,7.606694091796875,0.02770157903432846,-8.108684539794922,1.2055913209915161
1772593972512958000,7.6269580078125,-0.10005125403404236,-9.222504615783691,1.1018404960632324
1772593972533221000,7.64722119140625,-0.12057200074195862,-9.359611511230469,0.8688259124755859
1772593972553485000,7.667485107421875,0.02311483770608902,-8.595499038696289,0.6961729526519775
1772593972573749000,7.6877490234375,0.029682353138923645,-7.215009689331055,0.5944034457206726
1772593972594012000,7.708011962890625,-0.024349726736545563,-5.591224670410156,0.5408092737197876
1772593972614276000,7.728276123046875,-0.056137993931770325,-3.770419120788574,0.4396549463272095
1772593972634540000,7.7485400390625,-0.03974705934524536,-1.7855663299560547,0.2735224962234497
1772593972654803000,7.768802978515625,0.005245178937911987,0.1635875701904297,-0.03369021415710449
1772593972675067000,7.78906689453125,0.0634053647518158,1.979982852935791,-0.5658779144287109
1772593972695331000,7.8093310546875,0.10750670731067657,3.474947929382324,-1.3611178398132324
1772593972715594000,7.829593994140625,0.1290052831172943,4.411758899688721,-2.4164083003997803
1772593972735858000,7.84985791015625,0.2930794954299927,4.695880889892578,-3.7997779846191406
1772593972756122000,7.8701220703125,0.5537627935409546,4.265827178955078,-5.2353949546813965
1772593972776385000,7.890385009765625,0.4938870072364807,3.3500733375549316,-6.445719242095947
1772593972796649000,7.91064892578125,0.33349546790122986,2.3900163173675537,-7.274834156036377
1772593972816913000,7.930912841796875,0.12965470552444458,1.9410932064056396,-7.679957389831543
1772593972837176000,7.951176025390625,0.7011847496032715,1.8000842332839966,-7.906915664672852
1772593972857440000,7.97143994140625,0.6289706230163574,2.493204355239868,-7.9043803215026855
1772593972877704000,7.991703857421875,-0.3123929500579834,4.789742946624756,-6.368210315704346
1772593972897967000,8.011967041015625,-0.6000341773033142,5.5782084465026855,-3.8964576721191406
1772593972918231000,8.03223095703125,-0.3441137671470642,4.6878156661987305,-2.0633699893951416
1772593972938495000,8.052494873046875,-0.16253644227981567,2.8924460411071777,-0.8721987009048462
1772593972958758000,8.0727578125,-0.035044848918914795,0.7517976760864258,-0.18065762519836426
1772593972979022000,8.09302197265625,0.05422323942184448,-1.3372478485107422,0.2762676477432251
1772593972999286000,8.1132861328125,0.12159782648086548,-3.333807945251465,0.5984951257705688
1772593973019549000,8.133548828125,0.1783597469329834,-5.128618240356445,0.8325307369232178
1772593973039813000,8.153813232421875,0.2987707853317261,-6.73691463470459,1.017700433731079
1772593973060077000,8.1740771484375,0.36146748065948486,-7.9138946533203125,1.1503986120224
1772593973080341000,8.194341064453125,0.33754056692123413,-8.27849292755127,1.1084530353546143
1772593973100604000,8.21460400390625,0.2918381690979004,-7.699745178222656,0.9569661617279053
1772593973120868000,8.2348681640625,0.28699779510498047,-6.39900016784668,0.7856650352478027
1772593973141132000,8.255132080078125,0.2107059359550476,-4.589809417724609,0.6094380617141724
1772593973161395000,8.27539501953125,0.12114226818084717,-2.49588680267334,0.37226414680480957
1772593973181659000,8.295658935546875,0.0178147554397583,-0.3331718444824219,0.058304429054260254
1772593973201923000,8.315923095703125,-0.11120915412902832,1.7873682975769043,-0.428291916847229
1772593973222186000,8.33618603515625,-0.27293938398361206,3.6121535301208496,-1.2640825510025024
1772593973242450000,8.356449951171875,-0.36342301964759827,4.798094749450684,-2.631242275238037
1772593973262714000,8.376714111328125,-0.339429646730423,4.940377235412598,-4.604219436645508
1772593973282977000,8.39697705078125,-0.4274541735649109,3.566293954849243,-6.642636775970459
1772593973303241000,8.417240966796875,-0.4415143132209778,0.7784610986709595,-7.948431968688965
1772593973323505000,8.4375048828125,0.030659843236207962,-2.327533721923828,-7.793397903442383
1772593973343768000,8.45776806640625,-0.14163044095039368,-4.118119239807129,-7.045853614807129
1772593973364032000,8.478031982421875,-0.7864166498184204,-3.2565598487854004,-7.638506889343262
1772593973384296000,8.4982958984375,-1.4541398286819458,3.437028408050537,-7.523221015930176
1772593973404559000,8.51855908203125,-1.5861399173736572,6.116598129272461,-2.8161585330963135
1772593973424823000,8.538822998046875,-0.6908212900161743,4.829745769500732,-1.1351754665374756
1772593973445087000,8.5590869140625,-0.26900649070739746,3.048190116882324,-0.46204185485839844
1772593973465350000,8.579349853515625,-0.08466994762420654,1.2247295379638672,-0.13245248794555664
1772593973485614000,8.599614013671875,0.03150123357772827,-0.5558958053588867,0.0500032901763916
1772593973505878000,8.6198779296875,0.1252461075782776,-2.2703857421875,0.1955462098121643
1772593973526141000,8.640140869140625,0.23260605335235596,-3.8900718688964844,0.32606983184814453
1772593973546405000,8.660405029296875,0.313970685005188,-5.4169721603393555,0.40932559967041016
1772593973566669000,8.6806689453125,0.3426032066345215,-6.420385360717773,0.450203537940979
1772593973586932000,8.700931884765625,0.37018585205078125,-6.318160057067871,0.43869447708129883
1772593973607196000,8.72119580078125,0.2547851800918579,-5.44548225402832,0.3565717339515686
1772593973627460000,8.741460205078125,0.24440717697143555,-4.484743118286133,0.27367842197418213
1772593973647723000,8.761722900390625,0.23853617906570435,-3.4463510513305664,0.1932457685470581
1772593973667987000,8.781987060546875,0.1907132863998413,-2.417128562927246,0.14063483476638794
1772593973688251000,8.8022509765625,0.11245381832122803,-1.3741893768310547,0.08339124917984009
1772593973708514000,8.82251416015625,0.03277432918548584,-0.4231853485107422,0.030439376831054688
1772593973728778000,8.842778076171875,-0.023407280445098877,0.2952594757080078,-0.024786651134490967
1772593973749042000,8.8630419921875,-0.07108145952224731,0.8065004348754883,-0.07790040969848633
1772593973769305000,8.88330517578125,-0.09454739093780518,1.0003690719604492,-0.09643280506134033
1772593973789569000,8.903569091796875,-0.05636727809906006,0.667449951171875,-0.06079012155532837
1772593973809833000,8.9238330078125,-0.012358009815216064,0.16916275024414062,-0.01442575454711914
1772593973830096000,8.944095947265625,0.02568948268890381,-0.3412332534790039,0.027210772037506104
1772593973850360000,8.964360107421875,0.06090313196182251,-0.8598785400390625,0.06514739990234375
1772593973870624000,8.9846240234375,0.09620153903961182,-1.4573450088500977,0.11734741926193237
1772593973890887000,9.004886962890625,0.12599146366119385,-2.06781005859375,0.17533743381500244
1772593973911151000,9.025151123046875,0.15388697385787964,-2.768888473510742,0.2379615306854248
1772593973931415000,9.0454150390625,0.1495441198348999,-3.260560989379883,0.26278752088546753
1772593973951678000,9.065677978515625,0.13565737009048462,-3.564332962036133,0.2992854118347168
1772593973971942000,9.08594189453125,0.1778656244277954,-3.7911758422851562,0.36449551582336426
1772593973992206000,9.1062060546875,0.22401493787765503,-3.938694953918457,0.4582245349884033
1772593974012469000,9.126468994140625,0.292873740196228,-4.029937744140625,0.5969557762145996
1772593974032733000,9.14673291015625,0.36643147468566895,-4.144537925720215,0.7759987115859985
1772593974052997000,9.1669970703125,0.47400641441345215,-4.330889701843262,0.9328196048736572
1772593974073260000,9.187260009765625,0.5699927806854248,-4.317110061645508,0.9395236968994141
1772593974093524000,9.20752392578125,0.5881814956665039,-3.9969711303710938,0.8146915435791016
1772593974113788000,9.227787841796875,0.5807530879974365,-3.527665138244629,0.7594945430755615
1772593974134051000,9.248051025390625,0.5765421390533447,-3.143308639526367,0.8482086658477783
1772593974154315000,9.26831494140625,0.5710239410400391,-2.81046199798584,0.9448599815368652
1772593974174579000,9.288578857421875,0.4653205871582031,-2.21468448638916,0.8709797859191895
1772593974194842000,9.308842041015625,0.32216572761535645,-1.4596147537231445,0.648836612701416
1772593974215106000,9.32910595703125,0.12857627868652344,-0.5593109130859375,0.27838993072509766
1772593974235370000,9.349369873046875,-0.10312008857727051,0.4053359031677246,-0.22798538208007812
1772593974255633000,9.3696328125,-0.4001443386077881,1.3142924308776855,-0.8837013244628906
1772593974275897000,9.38989697265625,-0.7185006141662598,1.812528133392334,-1.5633559226989746
1772593974296161000,9.4101611328125,-1.021116018295288,1.7825160026550293,-2.016706943511963
1772593974316424000,9.430423828125,-1.4718010425567627,1.8031835556030273,-2.4213757514953613
1772593974336688000,9.450688232421875,-2.1951801776885986,1.8738377094268799,-2.7637057304382324
1772593974356952000,9.4709521484375,-3.0950276851654053,1.7737034559249878,-2.9387688636779785
1772593974377216000,9.491216064453125,-3.9603404998779297,1.3349511623382568,-2.8118159770965576
1772593974397479000,9.51147900390625,-4.4995222091674805,0.7507758736610413,-2.3423988819122314
1772593974438007000,9.552007080078125,-4.4076619148254395,-0.021707411855459213,-1.1861388683319092
1772593974458270000,9.57227001953125,-3.828583240509033,-0.04148043319582939,-0.9981957674026489
1772593974478534000,9.592533935546875,-3.311889171600342,0.04722662270069122,-0.9081841707229614
1772593974498798000,9.612798095703125,-2.815520763397217,0.04729342460632324,-0.7964115142822266
1772593974519061000,9.63306103515625,-2.342223644256592,-0.0104806087911129,-0.6711130142211914
1772593974539325000,9.653324951171875,-1.977956771850586,-0.07766079902648926,-0.5397255420684814
1772593974559589000,9.673589111328125,-1.5487022399902344,-0.10807448625564575,-0.37726664543151855
1772593974579852000,9.69385205078125,-1.1098499298095703,-0.0889204740524292,-0.23816239833831787
1772593974600116000,9.714115966796875,-0.7293405532836914,-0.06484562158584595,-0.13914978504180908
1772593974620380000,9.7343798828125,-0.4127349853515625,-0.04003483057022095,-0.07054245471954346
1772593974640643000,9.75464306640625,-0.28937339782714844,-0.030937910079956055,-0.03689432144165039
1772593974660907000,9.774906982421875,-0.30526065826416016,-0.039252638816833496,-0.01722317934036255
1772593974681171000,9.7951708984375,-0.3362903594970703,-0.055255770683288574,0.0045622289180755615
1772593974701434000,9.81543408203125,-0.4484872817993164,-0.08535051345825195,0.030283629894256592
1772593974721698000,9.835697998046875,-0.6255044937133789,-0.13660240173339844,0.06754690408706665
1772593974741962000,9.8559619140625,-0.750666618347168,-0.17518377304077148,0.09901571273803711
1772593974762225000,9.876224853515625,-0.8748617172241211,-0.2178342342376709,0.1251373291015625
1772593974782489000,9.896489013671875,-0.9049625396728516,-0.23826241493225098,0.12835299968719482
1772593974802753000,9.9167529296875,-0.930450439453125,-0.25907158851623535,0.13098037242889404
1772593974823016000,9.937015869140625,-0.9566993713378906,-0.2824208736419678,0.13433504104614258
1772593974843280000,9.95727978515625,-0.9598846435546875,-0.30900120735168457,0.135406494140625
1772593974863544000,9.9775439453125,-0.9535932540893555,-0.3337249755859375,0.1354764699935913
1772593974883807000,9.997806884765625,-0.8490200042724609,-0.3248870372772217,0.12081444263458252
1772593974904071000,10.01807080078125,-0.7348108291625977,-0.30406808853149414,0.10508906841278076
1772593974924335000,10.038335205078125,-0.5688095092773438,-0.2443220615386963,0.08092212677001953
1772593974944598000,10.058597900390625,-0.4015331268310547,-0.17802095413208008,0.05675077438354492
1772593974964862000,10.078862060546875,-0.18936443328857422,-0.08567380905151367,0.026369690895080566
1772593974985126000,10.0991259765625,-0.07191181182861328,-0.03348541259765625,0.00993192195892334
1772593975005389000,10.11938916015625,0.03792285919189453,0.018126964569091797,-0.0051871538162231445
1772593975025653000,10.139653076171875,0.14000701904296875,0.06844043731689453,-0.018880724906921387
1772593975045917000,10.1599169921875,0.2116832733154297,0.10374116897583008,-0.027989745140075684
1772593975066180000,10.18018017578125,0.28115272521972656,0.13778018951416016,-0.03631746768951416
1772593975086444000,10.200444091796875,0.32358455657958984,0.15566730499267578,-0.040632009506225586
1772593975106708000,10.2207080078125,0.3605318069458008,0.17009782791137695,-0.04385113716125488
1772593975126971000,10.240970947265625,0.3687477111816406,0.1677989959716797,-0.04332709312438965
1772593975147235000,10.261235107421875,0.44214725494384766,0.19254732131958008,-0.04974246025085449
1772593975167499000,10.2814990234375,0.4627256393432617,0.19455766677856445,-0.04997539520263672
1772593975187762000,10.301761962890625,0.48116016387939453,0.1959216594696045,-0.04989856481552124
