time,seconds_elapsed,z,y,x
1772593965116816000,0.23081591796875,-0.004389929119497538,0.0014633096288889647,-0.004123872611671686
1772593965136958000,0.2509580078125,0.0011972533538937569,0.0005321126081980765,0.004389929119497538
1772593965157252000,0.271252197265625,0.00026605630409903824,0.004256900865584612,0.0011972533538937569
1772593965177516000,0.29151611328125,-0.004922041669487953,0.0005321126081980765,-0.003325703786686063
1772593965197779000,0.311779052734375,-0.0047890134155750275,0.0029266192577779293,-0.0007981689414009452
1772593965218043000,0.33204296875,0.0034587320405989885,0.0018623941577970982,0.0011972533538937569
1772593965238307000,0.35230712890625,0.0047890134155750275,0.004655985161662102,-0.0014633096288889647
1772593965258571000,0.372571044921875,0.0007981689414009452,0.0013302814913913608,0.0022614786867052317
1772593965278834000,0.392833984375,0.0015963378828018904,-0.004256900865584612,0.0007981689414009452
1772593965299098000,0.41309814453125,0.0038578163366764784,0.0035917600616812706,-0.0029266192577779293
1772593965319362000,0.433362060546875,0.004922041669487953,-0.0006651407456956804,0
1772593965339625000,0.453625,0.0009311970788985491,-0.0007981689414009452,0.001064225216396153
1772593965359889000,0.473888916015625,0.20712482929229736,-0.15178512036800385,0.06624802201986313
1772593965380153000,0.494153076171875,0.22840933501720428,-0.18238160014152527,0.08553709834814072
1772593965400416000,0.514416015625,0.21590469777584076,-0.1712072342634201,0.08141323179006577
1772593965420680000,0.534679931640625,0.17533110082149506,-0.13262906670570374,0.06292231380939484
1772593965440944000,0.554944091796875,0.10628949105739594,-0.07928477972745895,0.03764696791768074
1772593965461207000,0.57520703125,0.14393645524978638,-0.10269773006439209,0.0395093597471714
1772593965481471000,0.595470947265625,0.0965784415602684,-0.06850949674844742,0.02540837787091732
1772593965501735000,0.61573486328125,0.02514232136309147,-0.017825772985816002,0.006651407573372126
1772593965521998000,0.635998046875,0.11679871380329132,-0.06239020451903343,-0.05427548661828041
1772593965542262000,0.656261962890625,0.030330419540405273,-0.016229433938860893,-0.014100983738899231
1772593965562526000,0.67652587890625,0.05879844352602959,-0.023013871163129807,-0.057867247611284256
1772593965582789000,0.6967890625,0.041238728910684586,-0.01556429360061884,-0.04270203784108162
1772593965603053000,0.717052978515625,0.010642251931130886,-0.0039908443577587605,-0.011041336692869663
1772593965623317000,0.73731689453125,0.05108281224966049,0.00572021072730422,-0.08114717155694962
1772593965643580000,0.757579833984375,0.013302815146744251,0.0014633096288889647,-0.02101844735443592
1772593965663844000,0.777843994140625,0.0034587320405989885,0.0003990844707004726,-0.005454154219478369
1772593965684108000,0.79810791015625,0.07928477972745895,-0.010110139846801758,-0.0779544934630394
1772593965704371000,0.818370849609375,0.020619364455342293,-0.0026605629827827215,-0.020220279693603516
1772593965724635000,0.838634765625,0.005321125965565443,-0.0006651407456956804,-0.005188097711652517
1772593965744899000,0.858899169921875,-0.02035330794751644,0.06691315770149231,-0.11320696026086807
1772593965765162000,0.879161865234375,-0.005321125965565443,0.017426688224077225,-0.029399221763014793
1772593965785426000,0.899426025390625,-0.02354598231613636,0.05028464272618294,-0.0702388659119606
1772593965805690000,0.919690185546875,-0.017426688224077225,0.03644971549510956,-0.05015161260962486
1772593965825953000,0.939953125,-0.004522957373410463,0.00944499857723713,-0.0130367586389184
1772593965846217000,0.960217041015625,-0.008513801731169224,0.09285365045070648,-0.08899583667516708
1772593965866481000,0.98048095703125,-0.0022614786867052317,0.024078095331788063,-0.023146897554397583
1772593965886744000,1.000744140625,-0.0005321126081980765,0.006252323277294636,-0.005986266769468784
1772593965907008000,1.021008056640625,0.09272062033414841,-0.020220279693603516,-0.0025275349617004395
1772593965927272000,1.04127197265625,0.07143611460924149,-0.01636246219277382,-0.001064225216396153
1772593965947535000,1.06153515625,0.01849091239273548,-0.004256900865584612,-0.00026605630409903824
1772593965967799000,1.081799072265625,0.0867343544960022,-0.11892716586589813,0.08034900575876236
1772593965988063000,1.10206298828125,0.022481758147478104,-0.030862530693411827,0.020885419100522995
1772593966008326000,1.122325927734375,0.007582604885101318,-0.12531252205371857,0.05241309106349945
1772593966028590000,1.142590087890625,0.0019954221788793802,-0.03259189799427986,0.013568871654570103
1772593966048854000,1.16285400390625,0.0005321126081980765,-0.008513801731169224,0.0035917600616812706
1772593966069117000,1.183116943359375,0.05959661304950714,-0.11427118629217148,0.029665278270840645
1772593966089381000,1.203381103515625,0.015431265346705914,-0.029665278270840645,0.007715632673352957
1772593966109645000,1.22364501953125,0.0039908443577587605,-0.007715632673352957,0.0019954221788793802
1772593966129908000,1.243907958984375,0.001064225216396153,-0.0019954221788793802,0.0005321126081980765
1772593966150172000,1.264171875,0.00026605630409903824,-0.0005321126081980765,0.00013302815204951912
1772593966170436000,1.28443603515625,0.00013302815204951912,-0.00013302815204951912,0
1772593966190699000,1.304698974609375,0.06119294837117195,0.05494062602519989,-0.026605630293488503
1772593966210963000,1.324962890625,0.015830349177122116,0.014234011992812157,-0.006917464081197977
1772593966231227000,1.345226806640625,0.004123872611671686,0.0037247883155941963,-0.0017293660202994943
1772593966251490000,1.365489990234375,0.001064225216396153,0.0009311970788985491,-0.0003990844707004726
1772593966271754000,1.38575390625,0.01144042145460844,0.06890857964754105,-0.0034587320405989885
1772593966292018000,1.406017822265625,0.0029266192577779293,0.017958801239728928,-0.0009311970788985491
1772593966312281000,1.426281005859375,0.0007981689414009452,0.004655985161662102,-0.00026605630409903824
1772593966332545000,1.446544921875,0.00026605630409903824,0.0011972533538937569,0
1772593966352809000,1.46680908203125,0,0.00026605630409903824,0
1772593966373072000,1.48707177734375,0,0.00013302815204951912,0
1772593966393336000,1.507336181640625,-0.07289943099021912,-0.07103703171014786,0.014899153262376785
1772593966413600000,1.52760009765625,-0.01888999715447426,-0.01849091239273548,0.0038578163366764784
1772593966433863000,1.54786279296875,-0.004922041669487953,-0.0047890134155750275,0.001064225216396153
1772593966454127000,1.568127197265625,-0.13050061464309692,-0.046958938241004944,-0.06305534392595291
1772593966474391000,1.58839111328125,-0.03392218053340912,-0.01223859004676342,-0.01636246219277382
1772593966494654000,1.608654052734375,-0.008779858238995075,-0.0031926757656037807,-0.004256900865584612
1772593966514918000,1.62891796875,-0.1339593529701233,-0.06850949674844742,-0.041637811809778214
1772593966535182000,1.64918212890625,-0.034720346331596375,-0.017825772985816002,-0.010775280185043812
1772593966555446000,1.669446044921875,-0.009045914746820927,-0.004655985161662102,-0.0027935912366956472
1772593966575709000,1.689708984375,0.10456012934446335,-0.08979400247335434,0.11759688705205917
1772593966595973000,1.70997314453125,0.07436273992061615,0.026738658547401428,0.07236731797456741
1772593966616237000,1.730237060546875,0.09431695938110352,0.0686425268650055,0.06890857964754105
1772593966636500000,1.7505,0.050417669117450714,0.03631668537855148,0.03259189799427986
1772593966656764000,1.770763916015625,0.23399652540683746,0.026605630293488503,0.13183090090751648
1772593966677028000,1.791028076171875,0.15577596426010132,0.06678013503551483,0.05334429070353508
1772593966697291000,1.811291015625,0.11054639518260956,0.08274351060390472,0.00944499857723713
1772593966717555000,1.831554931640625,0.028734080493450165,0.021417532116174698,0.0025275349617004395
1772593966737819000,1.85181884765625,0.1970146894454956,0.0065183793194592,0.07915174961090088
1772593966758082000,1.87208203125,0.05121583864092827,0.0017293660202994943,0.020486336201429367
1772593966778346000,1.892345947265625,0.15737231075763702,-0.04496351629495621,0.12065653502941132
1772593966798610000,1.91260986328125,0.11427118629217148,-0.034720346331596375,0.09006005525588989
1772593966818873000,1.932873046875,0.029665278270840645,-0.009045914746820927,0.023412954062223434
1772593966839137000,1.953136962890625,0.07223428785800934,0.08021597564220428,-0.0018623941577970982
1772593966859401000,1.97340087890625,0.017692744731903076,0.09471604228019714,-0.056403934955596924
1772593966879664000,1.9936640625,0.0039908443577587605,0.06225717440247536,-0.04310112074017525
1772593966899928000,2.013927978515625,0.019688166677951813,0.09817477315664291,-0.08487196266651154
1772593966920192000,2.03419189453125,0.008912886492908001,0.07223428785800934,-0.08660132437944412
1772593966940455000,2.054454833984375,-0.03817908093333244,0.10402801632881165,-0.13542266190052032
1772593966960719000,2.074718994140625,-0.07489485293626785,0.10522526502609253,-0.15245026350021362
1772593966980983000,2.094983154296875,-0.04150478169322014,0.05121583864092827,-0.07861963659524918
1772593967001246000,2.115245849609375,-0.04177083820104599,0.024344151839613914,-0.09325273334980011
1772593967021510000,2.135510009765625,-0.026605630293488503,0.011972533538937569,-0.061325978487730026
1772593967041774000,2.155774169921875,-0.006917464081197977,0.003059647511690855,-0.015963377431035042
1772593967062037000,2.176037109375,-0.16056497395038605,0.08500499278306961,-0.1422071009874344
1772593967082301000,2.196301025390625,-0.041637811809778214,0.022082673385739326,-0.03698182478547096
1772593967102565000,2.216565185546875,-0.010775280185043812,0.00572021072730422,-0.009578026831150055
1772593967122828000,2.236828125,-0.0027935912366956472,0.0014633096288889647,-0.0025275349617004395
1772593967143092000,2.257092041015625,-0.04709196463227272,-0.06717921793460846,0.009311970323324203
1772593967163356000,2.27735595703125,-0.03578457236289978,-0.05188097804784775,0.007449576631188393
1772593967183619000,2.297619140625,0.04908738657832146,-0.1339593529701233,0.08420681953430176
1772593967203883000,2.317883056640625,0.012770703062415123,-0.03485337644815445,0.021816616877913475
1772593967224147000,2.33814697265625,-0.1954183578491211,-0.0433671772480011,-0.052945204079151154
1772593967244410000,2.35841015625,-0.5365025401115417,-0.25448286533355713,-0.13861533999443054
1772593967264674000,2.378674072265625,-0.6614159941673279,-0.38897430896759033,-0.1630925089120865
1772593967284938000,2.39893798828125,-0.6707279682159424,-0.4194377660751343,0.028334995731711388
1772593967305201000,2.419200927734375,-0.800962507724762,-0.6427920460700989,0.5017821788787842
1772593967325465000,2.439465087890625,-0.5633742213249207,-0.6950721144676208,0.9335915446281433
1772593967345729000,2.45972900390625,0.35039615631103516,-0.741365909576416,1.1159731149673462
1772593967365992000,2.479991943359375,1.2915703058242798,-2.1522624492645264,-0.12531252205371857
1772593967386256000,2.500255859375,1.834192156791687,-4.804843902587891,-3.9116928577423096
1772593967406520000,2.52052001953125,2.777228832244873,-6.043468952178955,-8.094630241394043
1772593967426783000,2.540782958984375,3.6629302501678467,-5.149919033050537,-9.212864875793457
1772593967447047000,2.561046875,4.004546642303467,-2.8535869121551514,-6.746522903442383
1772593967467311000,2.58131103515625,4.538122177124023,-0.4840894341468811,-2.711512804031372
1772593967487574000,2.601573974609375,6.245538711547852,1.5034841299057007,1.5501770973205566
1772593967507838000,2.621837890625,8.60027027130127,0.020486336201429367,-0.6920124292373657
1772593967528102000,2.642101806640625,7.115143775939941,-0.6852279901504517,-0.8935500979423523
1772593967548365000,2.662364990234375,3.3781168460845947,-2.178868055343628,-0.9535458087921143
1772593967568629000,2.68262890625,0.5991588234901428,-3.6264803409576416,-3.7794628143310547
1772593967588893000,2.702892822265625,-0.7054482698440552,-3.0388951301574707,-4.4972825050354
1772593967609156000,2.723156005859375,-0.8167928457260132,-1.2448774576187134,-2.925422191619873
1772593967629420000,2.743419921875,-0.5813330411911011,0.44484615325927734,-0.44803881645202637
1772593967649684000,2.76368408203125,-0.4940665662288666,0.5378327965736389,1.4279241561889648
1772593967669947000,2.78394677734375,-0.5483420491218567,0.2892031967639923,1.482731819152832
1772593967690211000,2.804211181640625,-1.166523814201355,-0.48488759994506836,0.0740966796875
1772593967710475000,2.82447509765625,-1.5891543626785278,-0.6495764851570129,-1.1017391681671143
1772593967730738000,2.844738037109375,-1.550576090812683,-0.26765263080596924,-1.2573820352554321
1772593967751002000,2.865002197265625,-1.281061053276062,0.2523544132709503,-0.7062464356422424
1772593967771266000,2.88526611328125,-1.2512627840042114,0.4834243059158325,-0.38205686211586
1772593967791529000,2.905529052734375,-1.5311540365219116,0.26432693004608154,-0.5024473071098328
1772593967811793000,2.92579296875,-1.5343466997146606,0.14180800318717957,-1.0300369262695312
1772593967832057000,2.94605712890625,-1.3066024780273438,0.6034156680107117,-0.6803059577941895
1772593967852321000,2.966321044921875,-1.185546875,1.2587124109268188,0.30024453997612
1772593967872584000,2.986583984375,-0.6920124292373657,1.3494375944137573,1.0565096139907837
1772593967892848000,3.00684814453125,-0.49765831232070923,0.9558072686195374,1.288643717765808
1772593967913112000,3.027112060546875,-0.23120293021202087,0.5142868161201477,1.2787996530532837
1772593967933375000,3.047375,0.326185017824173,0.16495491564273834,1.1936615705490112
1772593967953639000,3.067638916015625,1.1351292133331299,0.05281217768788338,1.0474636554718018
1772593967973903000,3.087903076171875,1.8316646814346313,0.30490052700042725,1.0728720426559448
1772593967994166000,3.108166015625,2.272120952606201,0.7646458148956299,0.7948431968688965
1772593968014430000,3.128429931640625,2.178868055343628,1.0690141916275024,0.2904004454612732
1772593968034694000,3.14869384765625,1.5234384536743164,0.48821333050727844,0.045096542686223984
1772593968054957000,3.16895703125,0.6659389138221741,-0.01569732278585434,-0.27749672532081604
1772593968075221000,3.189220947265625,0.10389498621225357,-0.4433828294277191,-0.7210125923156738
1772593968095485000,3.20948486328125,-0.26379483938217163,-0.5353052616119385,-0.9825459122657776
1772593968115748000,3.229748046875,-0.5669659972190857,-0.4775710701942444,-0.9574036002159119
1772593968136012000,3.250011962890625,-0.8367470502853394,-0.4303460717201233,-0.8573664426803589
1772593968156276000,3.27027587890625,-0.9289355874061584,-0.32033178210258484,-0.8594948649406433
1772593968176539000,3.290538818359375,-1.0529178380966187,-0.046293795108795166,-1.0462664365768433
1772593968196803000,3.310802978515625,-1.1730422973632812,0.30157482624053955,-1.3344054222106934
1772593968217067000,3.33106689453125,-1.0565096139907837,0.45974528789520264,-1.3626073598861694
1772593968237330000,3.351329833984375,-1.1848818063735962,0.6917464137077332,-0.9358530640602112
1772593968257594000,3.371593994140625,-1.5795762538909912,0.819586455821991,-0.6639435291290283
1772593968277858000,3.391858154296875,-2.0008764266967773,1.0993446111679077,0.09444998949766159
1772593968298121000,3.412120849609375,-1.9807891845703125,1.2823914289474487,1.0276424884796143
1772593968318385000,3.432385009765625,-1.5066767930984497,1.1431108713150024,1.398658037185669
1772593968338649000,3.452649169921875,-1.3700569868087769,1.0883033275604248,1.7024942636489868
1772593968358912000,3.472912109375,-1.508805274963379,1.0240507125854492,2.012183904647827
1772593968379176000,3.493176025390625,-1.6990355253219604,0.8763894438743591,2.3044466972351074
1772593968399440000,3.51343994140625,-1.830600380897522,0.6623471975326538,2.560925006866455
1772593968419703000,3.533703125,-1.9718762636184692,0.14260618388652802,1.846031665802002
1772593968439967000,3.553967041015625,-3.3190524578094482,-2.3460845947265625,-6.335598945617676
1772593968460231000,3.57423095703125,-4.949578285217285,-5.289066314697266,-15.772748947143555
1772593968480494000,3.594494140625,-4.255836486816406,-3.6357924938201904,-12.855308532714844
1772593968500758000,3.614758056640625,-0.5736173987388611,-1.1259503364562988,-0.6148561239242554
1772593968521022000,3.63502197265625,5.922147274017334,-0.5806679129600525,3.4362502098083496
1772593968541285000,3.65528515625,11.53034782409668,1.0723398923873901,8.8731107711792
1772593968561549000,3.675549072265625,11.310452461242676,4.435690879821777,9.472801208496094
1772593968581813000,3.69581298828125,6.407966136932373,4.260625839233398,5.147391319274902
1772593968602076000,3.716075927734375,2.5323238372802734,3.060445547103882,2.2018818855285645
1772593968622340000,3.736340087890625,0.8539077043533325,1.9670872688293457,0.9772248268127441
1772593968642604000,3.75660400390625,0.0031926757656037807,0.9946514964103699,0.5568558573722839
1772593968662867000,3.776866943359375,-0.47238296270370483,0.18357884883880615,0.44152042269706726
1772593968683131000,3.797130859375,-0.8563022017478943,-0.4872821271419525,0.4496351480484009
1772593968703395000,3.81739501953125,-1.1711798906326294,-0.6337460875511169,0.4292818605899811
1772593968723658000,3.837657958984375,-1.328286051750183,-0.7912514209747314,-0.20885419845581055
1772593968743922000,3.857921875,-1.5448559522628784,-0.5086996555328369,-1.323364019393921
1772593968764186000,3.87818603515625,-1.8034626245498657,0.22867539525032043,-2.0031378269195557
1772593968784449000,3.898448974609375,-2.0797622203826904,0.8364810347557068,-1.8186278343200684
1772593968804713000,3.918712890625,-2.387057065963745,1.1174365282058716,-1.1512256860733032
1772593968824977000,3.938976806640625,-2.2223682403564453,1.1639963388442993,-0.26751962304115295
1772593968845240000,3.959239990234375,-1.8823482990264893,0.8040221333503723,0.30051058530807495
1772593968865504000,3.97950390625,-2.1953635215759277,0.5980945825576782,0.5894477367401123
1772593968885768000,3.999767822265625,-2.6032278537750244,0.40906158089637756,0.8018937110900879
1772593968906031000,4.020031005859375,-1.7771230936050415,0.17905589938163757,1.0357571840286255
1772593968926295000,4.040294921875,-0.6957372426986694,-0.036848798394203186,1.2523269653320312
1772593968946559000,4.06055908203125,-0.363166868686676,-0.1169317439198494,1.4558601379394531
1772593968966822000,4.08082177734375,-0.8452608585357666,-0.39642390608787537,1.6548701524734497
1772593968987086000,4.101086181640625,-2.641939163208008,-1.4234012365341187,0.10655555129051208
1772593969007350000,4.12135009765625,-4.038069725036621,-5.161093235015869,-5.815857887268066
1772593969027613000,4.141613037109375,-4.573108673095703,-7.854115009307861,-9.006670951843262
1772593969047877000,4.161877197265625,-3.8159124851226807,-5.588246822357178,-6.140180587768555
1772593969068141000,4.18214111328125,0.4637361466884613,0.41518086194992065,1.3624743223190308
1772593969088404000,4.202404052734375,3.8234951496124268,2.4538373947143555,8.350975036621094
1772593969108668000,4.22266796875,7.0030012130737305,-1.379634976387024,2.172881841659546
1772593969128932000,4.24293212890625,6.625068187713623,-1.011945128440857,0.4210340976715088
1772593969149196000,4.263196044921875,4.739527225494385,2.4418647289276123,-0.2200285643339157
1772593969169459000,4.283458984375,3.1780426502227783,2.1654322147369385,0.12424829602241516
1772593969189723000,4.303722900390625,1.8790225982666016,0.7416319251060486,0.26539117097854614
1772593969209987000,4.323987060546875,0.8958115577697754,-0.651837944984436,0.09205548465251923
1772593969230250000,4.34425,-0.12105561792850494,-1.3084648847579956,0.18730363249778748
1772593969250514000,4.364513916015625,-1.2035056352615356,-1.5695991516113281,0.17054209113121033
1772593969270778000,4.384778076171875,-2.6339573860168457,-1.324162244796753,-0.6368057727813721
1772593969291041000,4.405041015625,-4.531337738037109,-0.5500714182853699,-1.0656884908676147
1772593969311305000,4.425304931640625,-6.344378471374512,0.05959661304950714,-0.4928693175315857
1772593969331569000,4.44556884765625,-7.558792591094971,0.2617993950843811,-0.10203259438276291
1772593969351832000,4.46583203125,-7.881917953491211,0.4883463382720947,-0.20220279693603516
1772593969372096000,4.486095947265625,-7.027877330780029,0.700526237487793,-0.46945634484291077
1772593969392360000,4.50635986328125,-5.716485977172852,0.7244713306427002,-0.5350392460823059
1772593969412623000,4.526623046875,-4.429571628570557,0.5830624103546143,-0.31807032227516174
1772593969432887000,4.546886962890625,-3.4764246940612793,0.477970153093338,0.023146897554397583
1772593969453151000,4.56715087890625,-2.6625585556030273,0.4621398150920868,0.5157501697540283
1772593969473414000,4.587413818359375,-1.9289082288742065,0.5013831257820129,1.2162764072418213
1772593969493678000,4.607677978515625,-1.6129662990570068,0.5830624103546143,1.7816460132598877
1772593969513942000,4.62794189453125,-1.1754367351531982,0.7790128588676453,2.54496169090271
1772593969534205000,4.648204833984375,0.12770701944828033,1.507741093635559,4.825064182281494
1772593969554469000,4.66846923828125,5.241708278656006,2.527801036834717,9.752693176269531
1772593969574733000,4.688733154296875,17.28807258605957,-6.658591270446777,-8.46537971496582
1772593969594996000,4.708995849609375,19.995861053466797,-7.73478889465332,-8.67223834991455
1772593969615260000,4.729260009765625,13.00483226776123,-0.8316919803619385,0.16389068961143494
1772593969635524000,4.749524169921875,6.9100141525268555,1.4325801134109497,2.5434982776641846
1772593969655787000,4.769787109375,3.2563960552215576,0.9993074536323547,2.0560832023620605
1772593969676051000,4.790051025390625,0.9989084005355835,0.32472172379493713,1.0180644989013672
1772593969696315000,4.81031494140625,-0.24783144891262054,0.18836785852909088,0.04802316427230835
1772593969716578000,4.830578125,-0.6612829566001892,0.3050335645675659,-0.48927754163742065
1772593969736842000,4.850842041015625,-0.937715470790863,0.2244184911251068,-0.3062308132648468
1772593969757106000,4.87110595703125,-1.1775652170181274,-0.2119138389825821,0.12145470082759857
1772593969777369000,4.891369140625,-1.2870473861694336,-0.7293933629989624,0.42515796422958374
1772593969797633000,4.911633056640625,-1.2898409366607666,-0.8915546536445618,-0.27031320333480835
1772593969817897000,4.93189697265625,-1.1065281629562378,-0.3792632520198822,-1.4936400651931763
1772593969838160000,4.952159912109375,-1.0879042148590088,0.5245299935340881,-1.6492830514907837
1772593969858424000,4.972424072265625,-1.2952951192855835,1.185945987701416,-1.0047615766525269
1772593969878688000,4.99268798828125,-1.633319616317749,1.4924428462982178,-0.47118571400642395
1772593969898951000,5.012950927734375,-1.9744038581848145,1.5789111852645874,0.35106128454208374
1772593969919215000,5.033215087890625,-2.341827630996704,1.5465853214263916,1.2573820352554321
1772593969939479000,5.05347900390625,-1.923321008682251,1.2533912658691406,1.76288902759552
1772593969959742000,5.073741943359375,-1.1030694246292114,0.9237474799156189,2.271056652069092
1772593969980006000,5.094005859375,-0.9703073501586914,0.5941037535667419,2.811283826828003
1772593970000270000,5.11427001953125,-1.7188568115234375,0.29665279388427734,3.480149507522583
1772593970020533000,5.134532958984375,-2.733196496963501,0.06691315770149231,4.348690509796143
1772593970040797000,5.154796875,-3.0412895679473877,-0.2902674376964569,5.050546646118164
1772593970061061000,5.17506103515625,-2.9725141525268555,-0.5512686371803284,5.298245429992676
1772593970081324000,5.195323974609375,-2.9675920009613037,-1.0034313201904297,4.178414344787598
1772593970101588000,5.215587890625,-5.032188892364502,-3.2509419918060303,-5.65595817565918
1772593970121852000,5.235851806640625,-2.892164945602417,-2.420048236846924,-11.70833969116211
1772593970142115000,5.256114990234375,3.947211265563965,-1.9834496974945068,-3.787045478820801
1772593970162379000,5.27637890625,6.809045791625977,-1.6790813207626343,-2.7946553230285645
1772593970182643000,5.296642822265625,9.409879684448242,0.0839407667517662,-1.1133126020431519
1772593970202906000,5.316906005859375,11.474343299865723,2.440800428390503,0.7399025559425354
1772593970223170000,5.337170166015625,8.117644309997559,1.9422110319137573,1.682806134223938
1772593970243434000,5.35743408203125,4.005477428436279,-0.4068000912666321,1.2913042306900024
1772593970263697000,5.37769677734375,1.411827802658081,0.5206722021102905,0.804155170917511
1772593970283961000,5.397961181640625,-0.15018878877162933,-0.04642682522535324,0.5738834738731384
1772593970304225000,5.41822509765625,-1.2016433477401733,-0.7327190637588501,0.5470117330551147
1772593970324488000,5.438488037109375,-1.7768570184707642,-1.1194318532943726,0.6435902118682861
1772593970344752000,5.458752197265625,-1.9654909372329712,-1.5065438747406006,0.7683706283569336
1772593970365016000,5.47901611328125,-2.163569927215576,-1.4293874502182007,0.2786939740180969
1772593970385279000,5.499279052734375,-2.7975821495056152,-0.5764110088348389,-0.7400355935096741
1772593970405543000,5.51954296875,-4.073454856872559,-0.7516090869903564,-1.1940606832504272
1772593970425807000,5.53980712890625,-5.328841686248779,-0.3272492587566376,-0.7372420430183411
1772593970446071000,5.560071044921875,-6.270813941955566,0.09897294640541077,-0.08966097235679626
1772593970466334000,5.580333984375,-6.400250434875488,0.2919968068599701,0.13089969754219055
1772593970486598000,5.600597900390625,-5.973229885101318,0.35199248790740967,0.27802884578704834
1772593970506862000,5.620862060546875,-5.295451641082764,0.3138134181499481,0.39602482318878174
1772593970527125000,5.641125,-4.121744155883789,0.2514232099056244,0.4423186182975769
1772593970547389000,5.661388916015625,-3.592691421508789,0.2880059480667114,0.21284504234790802
1772593970567653000,5.681653076171875,-3.402461051940918,0.3074280619621277,-0.12637674808502197
1772593970587916000,5.701916015625,-2.645930051803589,0.2574094831943512,-0.0658489316701889
1772593970608180000,5.722179931640625,-2.003004789352417,0.2781618535518646,0.16056497395038605
1772593970628444000,5.74244384765625,-1.9922295808792114,0.3695521950721741,0.148193359375
1772593970648707000,5.76270703125,-1.982784628868103,-1.527828335762024,-2.6312968730926514
1772593970668971000,5.782970947265625,4.471076011657715,-7.468599319458008,-4.299469947814941
1772593970689235000,5.80323486328125,19.596643447875977,-3.771347999572754,7.675192356109619
1772593970709498000,5.823498046875,17.096511840820312,2.97105073928833,7.777225017547607
1772593970729762000,5.843761962890625,8.521384239196777,3.4362502098083496,1.9290412664413452
1772593970750026000,5.86402587890625,3.6913981437683105,1.9717432260513306,-0.7826046347618103
1772593970770289000,5.884288818359375,1.590085506439209,0.39482754468917847,-1.5392687320709229
1772593970790553000,5.904552978515625,0.6298882961273193,-0.37021735310554504,-1.2974236011505127
1772593970810817000,5.924817138671875,0.13701899349689484,-0.4710526764392853,-0.5804018378257751
1772593970831080000,5.945079833984375,-0.17280356585979462,-0.4642682373523712,0.21603772044181824
1772593970851344000,5.96534375,-0.43047910928726196,-0.5871862769126892,0.6567599773406982
1772593970871608000,5.985608154296875,-0.7069116234779358,-0.7541366219520569,0.5031124949455261
1772593970891871000,6.00587109375,-1.203771710395813,-0.7098382115364075,0.1987440586090088
1772593970912135000,6.026135009765625,-2.0481014251708984,-0.5213373303413391,0.11985836178064346
1772593970932399000,6.046399169921875,-2.773637056350708,-0.4400571286678314,0.1920926570892334
1772593970952662000,6.066662109375,-3.46817684173584,-0.39655691385269165,0.3116849660873413
1772593970972926000,6.086926025390625,-3.907968044281006,-0.2623315155506134,0.3785981237888336
1772593970993190000,6.10718994140625,-3.8060684204101562,-0.08700041472911835,0.3594420552253723
1772593971013453000,6.127453125,-4.193978786468506,0.07050491869449615,0.28893715143203735
1772593971033717000,6.147717041015625,-3.7768023014068604,0.0993720293045044,0.24344152212142944
1772593971053981000,6.16798095703125,-3.0745465755462646,0.05959661304950714,0.18544124066829681
1772593971074244000,6.188244140625,-3.0233309268951416,0.043500207364559174,0.054807599633932114
1772593971094508000,6.208508056640625,-2.830573081970215,-0.03418823331594467,0.06731224805116653
1772593971114772000,6.22877197265625,-0.5943697690963745,-0.20206975936889648,0.5298511385917664
1772593971135035000,6.249034912109375,2.3331806659698486,-0.307295024394989,1.0679500102996826
1772593971155299000,6.269299072265625,3.2259325981140137,-0.6743196845054626,0.49579593539237976
1772593971175563000,6.28956298828125,-0.42302951216697693,-4.243597984313965,-14.198760032653809
1772593971195826000,6.309825927734375,-5.597691535949707,-18.64469337463379,-12.173938751220703
1772593971216090000,6.330090087890625,-5.434731960296631,-5.049482822418213,-10.893143653869629
1772593971236354000,6.35035400390625,-0.17320264875888824,13.477348327636719,-3.057918071746826
1772593971256617000,6.370616943359375,10.957262992858887,19.3139591217041,11.306461334228516
1772593971287013000,6.40101318359375,18.02903938293457,7.114212512969971,7.821656227111816
1772593971307277000,6.421277099609375,13.963699340820312,3.055656671524048,1.3280200958251953
1772593971327540000,6.4415400390625,10.360764503479004,2.314556837081909,-0.21178081631660461
1772593971347804000,6.461803955078125,6.591145992279053,1.370988130569458,0.389107346534729
1772593971368068000,6.482068115234375,3.6997790336608887,-0.2979830503463745,0.7513430118560791
1772593971388331000,6.5023310546875,1.8709079027175903,-1.3532954454421997,0.5764110088348389
1772593971408595000,6.522594970703125,0.4588140845298767,-1.6418334245681763,0.563241183757782
1772593971428859000,6.54285888671875,-0.8363479971885681,-1.716861367225647,1.0007708072662354
1772593971449122000,6.5631220703125,-2.1098265647888184,-1.8702428340911865,1.1988496780395508
1772593971469386000,6.583385986328125,-3.3963418006896973,-1.707416296005249,0.6465167999267578
1772593971489650000,6.60364990234375,-4.4231858253479,-0.8447287678718567,-0.15817047655582428
1772593971509913000,6.6239130859375,-5.159363746643066,0.04243598133325577,-0.5682962536811829
1772593971530177000,6.644177001953125,-5.889289379119873,0.5395621657371521,-0.8258387446403503
1772593971550441000,6.66444091796875,-5.767036437988281,0.8226460814476013,-1.058771014213562
1772593971570704000,6.684703857421875,-5.711430549621582,0.9957157373428345,-1.3111255168914795
1772593971590968000,6.704968017578125,-6.276001930236816,1.195124864578247,-1.7477238178253174
1772593971611232000,6.72523193359375,-6.145501613616943,1.2379599809646606,-2.153592824935913
1772593971631495000,6.745494873046875,-4.629379749298096,1.0486608743667603,-1.8138388395309448
1772593971651759000,6.765759033203125,-2.3564605712890625,1.8602657318115234,0.8789169788360596
1772593971672023000,6.78602294921875,-0.7081088423728943,3.375589370727539,4.972060203552246
1772593971692286000,6.806285888671875,0.06225717440247536,3.408846378326416,7.282892227172852
1772593971712550000,6.8265498046875,-1.8423068523406982,-6.889793872833252,-9.963276863098145
1772593971732814000,6.84681396484375,-0.5047088265419006,-23.23004150390625,-20.485004425048828
1772593971753077000,6.867076904296875,0.13475751876831055,-8.035565376281738,-5.831554889678955
1772593971773341000,6.8873408203125,2.202547073364258,6.274272918701172,2.991936206817627
1772593971793605000,6.907605224609375,4.651063442230225,8.092767715454102,11.222254753112793
1772593971813868000,6.927867919921875,8.4366455078125,6.799468040466309,11.030960083007812
1772593971834125000,6.948125,8.842913627624512,3.8156464099884033,4.730215072631836
1772593971854388000,6.968387939453125,6.453062534332275,2.353400945663452,-0.01556429360061884
1772593971874652000,6.98865185546875,4.2610249519348145,1.3993231058120728,-1.6939804553985596
1772593971894916000,7.008916015625,2.9193027019500732,0.6100671291351318,-1.1983176469802856
1772593971915179000,7.029178955078125,2.0536885261535645,0.045362599194049835,-0.7965725660324097
1772593971935443000,7.04944287109375,1.5203787088394165,-0.3541209399700165,-0.4296809434890747
1772593971955707000,7.069706787109375,0.8537746667861938,-0.4149148166179657,-0.12451434880495071
1772593971975970000,7.089969970703125,0.6015533208847046,-0.6342782378196716,0.4384607970714569
1772593971996234000,7.11023388671875,0.08487196266651154,-0.5995578765869141,0.6485122442245483
1772593972016498000,7.130497802734375,-0.2990472912788391,-0.8130680918693542,0.800031304359436
1772593972036761000,7.150760986328125,-0.8416691422462463,-1.0513215065002441,0.7593246698379517
1772593972057025000,7.17102490234375,-1.4984290599822998,-1.122890591621399,0.2526204586029053
1772593972077289000,7.1912890625,-2.229684829711914,-0.8646829724311829,-0.09205548465251923
1772593972097552000,7.2115517578125,-3.0032434463500977,-0.5080345273017883,-0.24676722288131714
1772593972117816000,7.231816162109375,-3.8167107105255127,-0.28960227966308594,-0.34041905403137207
1772593972138080000,7.252080078125,-4.492626667022705,-0.06278929114341736,-0.5059060454368591
1772593972158343000,7.272343017578125,-4.263419151306152,0.04416534677147865,-0.7023886442184448
1772593972178607000,7.292607177734375,-3.497310161590576,-0.05334429070353508,-0.8213158249855042
1772593972198871000,7.31287109375,-4.09274435043335,-0.061725061386823654,-1.0875051021575928
1772593972219134000,7.333134033203125,-4.591333866119385,-0.011839505285024643,-1.3576853275299072
1772593972239398000,7.35339794921875,-4.622994422912598,0.06505076587200165,-1.4191442728042603
1772593972259662000,7.373662109375,-4.220717430114746,-2.7970499992370605,-4.833312034606934
1772593972279925000,7.393925048828125,-2.555736780166626,-12.477774620056152,-11.413549423217773
1772593972300189000,7.41418896484375,-1.2390241622924805,-10.367682456970215,-6.892587661743164
1772593972320453000,7.434453125,0.4674609303474426,2.5034568309783936,2.4894888401031494
1772593972340716000,7.454716064453125,-0.13741807639598846,6.492970943450928,12.897611618041992
1772593972360980000,7.47497998046875,6.865715980529785,0.19728074967861176,4.610888957977295
1772593972381244000,7.495243896484375,10.376860618591309,0.6369388103485107,1.3298823833465576
1772593972401507000,7.515507080078125,8.08984088897705,1.4840620756149292,0.422763466835022
1772593972421771000,7.53577099609375,5.044427394866943,1.3528963327407837,0.8834399580955505
1772593972442035000,7.556034912109375,2.9645323753356934,0.6946730017662048,0.8838390707969666
1772593972462299000,7.576298828125,2.0504958629608154,0.3533227741718292,0.6235029697418213
1772593972482562000,7.59656201171875,1.5512412786483765,0.26432693004608154,0.21417532861232758
1772593972502826000,7.616825927734375,1.047330617904663,0.2272120863199234,-0.2800242602825165
1772593972523090000,7.63708984375,0.6381360292434692,0.23346440494060516,-0.4214331805706024
1772593972543353000,7.65735302734375,0.2897353172302246,0.1289042830467224,-0.23905159533023834
1772593972563617000,7.677616943359375,0.05906450003385544,0.03272492438554764,0.26273059844970703
1772593972583881000,7.697880859375,-0.35252460837364197,-0.27310678362846375,0.4258231222629547
1772593972604144000,7.71814404296875,-1.0771290063858032,-0.7403016686439514,-0.030995558947324753
1772593972624408000,7.738407958984375,-2.1146154403686523,-0.919623613357544,-0.6012872457504272
1772593972644672000,7.758672119140625,-3.256263017654419,-0.9353209137916565,-0.7147602438926697
1772593972664935000,7.778934814453125,-4.198235511779785,-0.7305905818939209,-0.24769842624664307
1772593972685199000,7.79919921875,-5.086597442626953,-0.39642390608787537,0.2727077007293701
1772593972705463000,7.819463134765625,-5.858559608459473,-0.04655985161662102,0.2249506115913391
1772593972725726000,7.839725830078125,-5.403204441070557,0.1378171592950821,0.031261615455150604
1772593972745990000,7.859989990234375,-4.9743218421936035,0.26579025387763977,-0.2575424909591675
1772593972766254000,7.880254150390625,-5.614054203033447,0.5406264066696167,-0.8335543870925903
1772593972786517000,7.90051708984375,-5.388571262359619,0.6071404814720154,-1.1985836029052734
1772593972806781000,7.920781005859375,-5.4727783203125,0.7852652072906494,-1.585030436515808
1772593972827045000,7.941045166015625,-5.2806854248046875,0.8485865592956543,-1.8730363845825195
1772593972847308000,7.96130810546875,-2.665485143661499,-1.2980886697769165,-1.7030264139175415
1772593972867572000,7.981572021484375,0.16149617731571198,-5.010372161865234,-1.1735743284225464
1772593972887836000,8.0018359375,7.403016567230225,-2.5411038398742676,5.544480323791504
1772593972908099000,8.02209912109375,13.30640697479248,1.7115402221679688,10.85722541809082
1772593972928363000,8.042363037109375,10.410118103027344,2.277308940887451,4.485177040100098
1772593972948627000,8.062626953125,6.817825794219971,2.11275315284729,-0.32857954502105713
1772593972968890000,8.08289013671875,4.537058353424072,1.8139718770980835,-1.4524013996124268
1772593972989154000,8.103154052734375,2.8950917720794678,0.8017606735229492,-0.9760275483131409
1772593973009418000,8.12341796875,1.6785491704940796,-0.17493201792240143,-0.4884793758392334
1772593973029681000,8.143680908203125,1.129675030708313,-0.40799733996391296,-0.2542167901992798
1772593973049945000,8.163945068359375,0.8286323547363281,-0.3303089141845703,-0.10362893342971802
1772593973070209000,8.184208984375,0.4280845820903778,-0.25767552852630615,0.16641822457313538
1772593973090472000,8.204471923828125,0.15790441632270813,-0.418905645608902,0.5051078796386719
1772593973110736000,8.22473583984375,-0.20100553333759308,-0.5544613599777222,0.6028835773468018
1772593973131000000,8.245,-0.49819043278694153,-0.8089441657066345,0.7102373242378235
1772593973151263000,8.265262939453125,-0.7856642603874207,-1.0820510387420654,0.789522111415863
1772593973171527000,8.28552685546875,-1.2092258930206299,-1.1114501953125,0.3134143352508545
1772593973191791000,8.305791015625,-1.9331650733947754,-0.9214860200881958,-0.30809319019317627
1772593973212054000,8.326053955078125,-3.7760040760040283,-0.08992703258991241,-0.4707866311073303
1772593973232318000,8.34631787109375,-8.157419204711914,-0.004256900865584612,-0.19674864411354065
1772593973252582000,8.366581787109375,-14.123465538024902,0.8669444918632507,-0.5597824454307556
1772593973272845000,8.386844970703125,-15.781129837036133,0.6824344396591187,0.8451278209686279
1772593973293109000,8.40710888671875,-12.80435848236084,0.6425259709358215,2.0375921726226807
1772593973313373000,8.427373046875,-7.790527820587158,3.7887747287750244,-0.8872977495193481
1772593973333636000,8.447635986328125,-6.367924690246582,5.146460056304932,-2.6367509365081787
1772593973353900000,8.467900146484375,-4.854330062866211,2.45237398147583,-5.508695602416992
1772593973374164000,8.4881640625,15.825295448303223,2.9826242923736572,17.19947624206543
1772593973394427000,8.508427001953125,36.58872985839844,-1.14949631690979,8.982858657836914
1772593973414691000,8.528691162109375,21.5087890625,0.5831954479217529,-1.5485807657241821
1772593973434955000,8.548955078125,8.650288581848145,0.4995207190513611,-1.4462820291519165
1772593973455218000,8.569218017578125,3.228992223739624,-0.4099927544593811,-2.379873752593994
1772593973475482000,8.589482177734375,1.4276580810546875,-0.22854237258434296,-2.4925484657287598
1772593973495746000,8.60974609375,1.034559965133667,0.5386309623718262,-1.3294833898544312
1772593973516009000,8.630009033203125,0.7397695779800415,0.7921826243400574,-0.014367040246725082
1772593973536273000,8.65027294921875,0.44697460532188416,0.45429113507270813,0.6619480848312378
1772593973556537000,8.670537109375,0.45415809750556946,-0.1009683683514595,0.7094391584396362
1772593973576800000,8.690800048828125,0.6986638307571411,-0.45482325553894043,0.32405656576156616
1772593973597064000,8.71106396484375,0.38019445538520813,-0.363432914018631,0.16721639037132263
1772593973617328000,8.731328125,-0.08008294552564621,0.03711485490202904,0.5762779712677002
1772593973637591000,8.751591064453125,-0.2107165902853012,0.08088111877441406,0.7751550674438477
1772593973657855000,8.77185498046875,-0.17852377891540527,-0.22135885059833527,0.26379483938217163
1772593973678119000,8.792118896484375,-0.15604202449321747,-0.39043763279914856,-0.29159772396087646
1772593973698382000,8.812382080078125,-0.1729366034269333,-0.2486296147108078,-0.3969559967517853
1772593973718646000,8.83264599609375,-0.4687912166118622,-0.1048261821269989,-0.33829060196876526
1772593973738910000,8.852909912109375,-1.0819180011749268,-0.03179372847080231,-0.031261615455150604
1772593973759174000,8.873173828125,-0.755998969078064,0.1657530814409256,0.422763466835022
1772593973779437000,8.89343701171875,0.3078271448612213,0.21257898211479187,0.33403369784355164
1772593973799701000,8.913700927734375,0.7558659315109253,0.0609268918633461,0.030995558947324753
1772593973819965000,8.93396484375,0.7071776390075684,-0.0658489316701889,-0.15896864235401154
1772593973840228000,8.95422802734375,0.5531310439109802,-0.13635385036468506,-0.20433124899864197
1772593973860492000,8.974491943359375,0.4028092324733734,-0.17054209113121033,-0.1882348358631134
1772593973880756000,8.994755859375,0.06066083908081055,-0.29598763585090637,-0.411190003156662
1772593973901019000,9.015018798828125,-0.4687912166118622,-0.49539685249328613,-0.6039478182792664
1772593973921283000,9.035282958984375,-0.7391043901443481,-0.4956628978252411,-0.5502044558525085
1772593973941547000,9.055547119140625,-0.8613572716712952,-0.2737719416618347,-0.4368644654750824
1772593973961810000,9.075809814453125,-0.3758045434951782,0.15763835608959198,-0.3090243935585022
1772593973982074000,9.09607421875,-0.06491773575544357,0.7403016686439514,-0.10615646839141846
1772593974002338000,9.116338134765625,-0.3847174048423767,0.9676467776298523,0.7863293886184692
1772593974022601000,9.13660107421875,-1.101473093032837,0.8467242121696472,1.2827904224395752
1772593974042865000,9.156864990234375,-1.8935227394104004,0.6055441498756409,1.142844796180725
1772593974063129000,9.177129150390625,-2.3411624431610107,0.5874522924423218,1.1818220615386963
1772593974083392000,9.19739208984375,-1.7094117403030396,0.681902289390564,0.9182933568954468
1772593974103656000,9.217656005859375,0.03179372847080231,1.154152274131775,0.6515718698501587
1772593974123920000,9.237919921875,1.6744253635406494,1.2684234380722046,0.270712286233902
1772593974144183000,9.25818310546875,0.4517636001110077,-0.25767552852630615,0.17905589938163757
1772593974164447000,9.278447021484375,-2.984353542327881,-2.529264211654663,0.5627090930938721
1772593974184711000,9.2987109375,-4.63310432434082,-3.140528678894043,0.5237318277359009
1772593974204974000,9.31897412109375,-4.0455193519592285,-2.2094645500183105,0.6066083908081055
1772593974225238000,9.339238037109375,-3.118445873260498,-1.0356241464614868,0.6393333077430725
1772593974245502000,9.359501953125,-3.0713539123535156,-0.35106128454208374,0.8626875877380371
1772593974265765000,9.37976513671875,-3.8603439331054688,0.44843789935112,1.4003874063491821
1772593974286029000,9.400029052734375,-4.904481887817383,2.0998494625091553,1.9464678764343262
1772593974306293000,9.42029296875,-5.723935127258301,4.640820026397705,2.3725571632385254
1772593974326556000,9.440555908203125,-5.953009605407715,7.837353706359863,2.160510301589966
1772593974346820000,9.460820068359375,-5.421828269958496,9.95476245880127,1.1001428365707397
1772593974367084000,9.481083984375,-4.673943996429443,9.3917875289917,0.30596473813056946
1772593974387347000,9.501346923828125,-3.8848211765289307,7.217708587646484,0.33350157737731934
1772593974407611000,9.52161083984375,-3.3990023136138916,6.084042549133301,1.0575737953186035
1772593974448138000,9.562137939453125,-2.1698222160339355,4.26980447769165,3.3613553047180176
1772593974468402000,9.58240185546875,-0.8793160915374756,0.0130367586389184,1.9799909591674805
1772593974488666000,9.602666015625,0.47171783447265625,-4.149547100067139,0.1811843365430832
1772593974508929000,9.622928955078125,0.4138505756855011,-3.5573058128356934,-1.1481659412384033
1772593974529193000,9.64319287109375,-0.8084120750427246,-0.6193791031837463,-0.5447502732276917
1772593974549457000,9.663456787109375,-1.7197879552841187,1.6458243131637573,0.901398777961731
1772593974569720000,9.683719970703125,-1.9181329011917114,2.9848856925964355,1.8356554508209229
1772593974589984000,9.70398388671875,-1.9761332273483276,3.5417416095733643,1.8172975778579712
1772593974610248000,9.724248046875,-1.911481499671936,3.6013381481170654,1.4152865409851074
1772593974630511000,9.744510986328125,-1.6375765800476074,3.2303225994110107,1.0416104793548584
1772593974650775000,9.764775146484375,-1.2803959846496582,2.455167531967163,0.7472191452980042
1772593974671039000,9.7850390625,-1.024183750152588,1.7203201055526733,0.5384979844093323
1772593974691302000,9.805302001953125,-0.8588297367095947,1.1743725538253784,0.4625388979911804
1772593974711566000,9.825566162109375,-0.6571590900421143,0.8387424945831299,0.5317135453224182
1772593974731830000,9.845830078125,-0.21497349441051483,0.6610168814659119,0.8110726475715637
1772593974752093000,9.866093017578125,0.3726118505001068,0.6380029916763306,1.3689926862716675
1772593974772357000,9.886357177734375,0.6354754567146301,0.6002230048179626,1.4543968439102173
1772593974792621000,9.90662109375,0.5037776231765747,0.4488369822502136,1.1594734191894531
1772593974812884000,9.926884033203125,0.22960658371448517,0.22628088295459747,0.7069116234779358
1772593974833148000,9.94714794921875,0.002128450432792306,0.08447287976741791,0.45854803919792175
1772593974853412000,9.967412109375,-0.02421112358570099,0.045362599194049835,0.5669659972190857
1772593974873675000,9.987675048828125,0.16056497395038605,0.08261048048734665,0.9507521986961365
1772593974893939000,10.00793896484375,0.17533110082149506,0.07768844068050385,1.0574407577514648
1772593974914203000,10.028202880859375,0.3013087511062622,0.11600054800510406,1.245010495185852
1772593974934466000,10.048466064453125,0.4570847451686859,0.17213842272758484,1.2681573629379272
1772593974964862000,10.078862060546875,0.4287497401237488,0.16349159181118011,0.790054202079773
1772593974985126000,10.0991259765625,0.251822292804718,0.06983978301286697,0.3481346666812897
1772593975005389000,10.11938916015625,0.14180800318717957,-0.03578457236289978,0.03325703740119934
1772593975025653000,10.139653076171875,0.1146702691912651,-0.07715632766485214,-0.09737660735845566
1772593975045917000,10.1599169921875,0.06425260007381439,-0.09790872037410736,-0.14646399021148682
1772593975066180000,10.18018017578125,0.05374337360262871,-0.13648688793182373,-0.19275778532028198
1772593975086444000,10.200444091796875,0.06544984877109528,-0.1388813853263855,-0.18025314807891846
1772593975106708000,10.2207080078125,0.01755971647799015,-0.1662851870059967,-0.1636246293783188
1772593975126971000,10.240970947265625,-0.04868830367922783,-0.1943541318178177,-0.1975468099117279
1772593975147235000,10.261235107421875,-0.056669991463422775,-0.18677152693271637,-0.5329107642173767
1772593975167499000,10.2814990234375,-0.047224994748830795,-0.1761292666196823,-0.8578985333442688
1772593975187762000,10.301761962890625,-0.11347301304340363,-0.23426257073879242,-0.915100634098053
1772593975208026000,10.322026123046875,-0.19129447638988495,-0.27151045203208923,-0.7307236194610596
