time,seconds_elapsed,z,y,x
1772593965136958000,0.2509580078125,6.231508255004883,-6.084265232086182,5.423166275024414
1772593965157252000,0.271252197265625,6.2398881912231445,-6.104915142059326,5.430647850036621
1772593965177516000,0.29151611328125,6.243180274963379,-6.107608318328857,5.446808815002441
1772593965197779000,0.311779052734375,6.250362873077393,-6.118382453918457,5.45339298248291
1772593965218043000,0.33204296875,6.247968673706055,-6.134543418884277,5.449801445007324
1772593965238307000,0.35230712890625,6.237493991851807,-6.130652904510498,5.444115161895752
1772593965258571000,0.372571044921875,6.213851451873779,-6.127659797668457,5.431545734405518
1772593965278834000,0.392833984375,6.189011573791504,-6.13633918762207,5.411195278167725
1772593965299098000,0.41309814453125,6.157886981964111,-6.143820762634277,5.391442775726318
1772593965319362000,0.433362060546875,6.140528678894043,-6.145915985107422,5.378873348236084
1772593965339625000,0.453625,6.11209774017334,-6.14950704574585,5.365406036376953
1772593965359889000,0.473888916015625,6.102520942687988,-6.14950704574585,5.351340293884277
1772593965380153000,0.494153076171875,6.086060523986816,-6.139331817626953,5.335179328918457
1772593965400416000,0.514416015625,6.082469463348389,-6.1321492195129395,5.333683013916016
1772593965420680000,0.534679931640625,6.070797920227051,-6.142324447631836,5.3238067626953125
1772593965440944000,0.554944091796875,6.055534839630127,-6.134842395782471,5.319616794586182
1772593965461207000,0.57520703125,6.043862819671631,-6.144718647003174,5.307945251464844
1772593965481471000,0.595470947265625,6.028599739074707,-6.153995990753174,5.307346820831299
1772593965501735000,0.61573486328125,6.015730857849121,-6.1611785888671875,5.301061630249023
1772593965521998000,0.635998046875,6.016329765319824,-6.156390190124512,5.295974254608154
1772593965542262000,0.656261962890625,6.007351398468018,-6.170755386352539,5.296872138977051
1772593965562526000,0.67652587890625,6.01423454284668,-6.170156955718994,5.295974254608154
1772593965582789000,0.6967890625,6.002861976623535,-6.174047470092773,5.286098003387451
1772593965603053000,0.717052978515625,5.990890979766846,-6.18182897567749,5.276222229003906
1772593965623317000,0.73731689453125,5.975029468536377,-6.174346923828125,5.265448093414307
1772593965643580000,0.757579833984375,5.971737384796143,-6.171952724456787,5.2666449546813965
1772593965663844000,0.777843994140625,5.9642558097839355,-6.171952724456787,5.262156009674072
1772593965684108000,0.79810791015625,5.963956356048584,-6.1716532707214355,5.261856555938721
1772593965704371000,0.818370849609375,5.962759494781494,-6.171952724456787,5.259761810302734
1772593965724635000,0.838634765625,5.969343185424805,-6.175543785095215,5.259761810302734
1772593965744899000,0.858899169921875,5.957671642303467,-6.178835868835449,5.260061264038086
1772593965765162000,0.879161865234375,5.962160587310791,-6.18182897567749,5.254075527191162
1772593965785426000,0.899426025390625,5.966948986053467,-6.186617374420166,5.242702960968018
1772593965805690000,0.919690185546875,5.961263179779053,-6.1863179206848145,5.233425617218018
1772593965825953000,0.939953125,5.950189590454102,-6.186617374420166,5.21906042098999
1772593965846217000,0.960217041015625,5.948992729187012,-6.192602634429932,5.222053050994873
1772593965866481000,0.98048095703125,5.951686382293701,-6.198887348175049,5.221155166625977
1772593965886744000,1.000744140625,5.961263179779053,-6.198887348175049,5.221155166625977
1772593965907008000,1.021008056640625,5.964554786682129,-6.1955952644348145,5.249287128448486
1772593965927272000,1.04127197265625,5.963357925415039,-6.188712120056152,5.268141746520996
1772593965947535000,1.06153515625,5.961861610412598,-6.186617374420166,5.293580055236816
1772593965967799000,1.081799072265625,5.9555768966674805,-6.18302583694458,5.316324710845947
1772593965988063000,1.10206298828125,5.950489044189453,-6.186617374420166,5.316624164581299
1772593966008326000,1.122325927734375,5.9415106773376465,-6.189610004425049,5.306149482727051
1772593966028590000,1.142590087890625,5.9519853591918945,-6.20188045501709,5.282207489013672
1772593966048854000,1.16285400390625,5.959766387939453,-6.202478885650635,5.2801127433776855
1772593966069117000,1.183116943359375,5.957671642303467,-6.196194171905518,5.28190803527832
1772593966089381000,1.203381103515625,5.953481674194336,-6.189908981323242,5.28340482711792
1772593966109645000,1.22364501953125,5.958270072937012,-6.179434776306152,5.274725437164307
1772593966129908000,1.243907958984375,5.956175327301025,-6.188113689422607,5.2765212059021
1772593966150172000,1.264171875,5.957073211669922,-6.190806865692139,5.259761810302734
1772593966170436000,1.28443603515625,5.954977989196777,-6.178536891937256,5.251681327819824
1772593966190699000,1.304698974609375,5.9537811279296875,-6.17374849319458,5.253477096557617
1772593966210963000,1.324962890625,5.950489044189453,-6.165966987609863,5.248988151550293
1772593966231227000,1.345226806640625,5.959167957305908,-6.152499675750732,5.244199752807617
1772593966251490000,1.365489990234375,5.949292182922363,-6.152200698852539,5.244798183441162
1772593966271754000,1.38575390625,5.950788497924805,-6.154594898223877,5.2672438621521
1772593966292018000,1.406017822265625,5.955875873565674,-6.159981727600098,5.28340482711792
1772593966312281000,1.426281005859375,5.956474781036377,-6.157886981964111,5.298966884613037
1772593966332545000,1.446544921875,5.958868980407715,-6.155791759490967,5.314828395843506
1772593966352809000,1.46680908203125,5.965752124786377,-6.163872241973877,5.331288814544678
1772593966373072000,1.48707177734375,5.96066427230835,-6.155193328857422,5.342062473297119
1772593966393336000,1.507336181640625,5.951686382293701,-6.161478042602539,5.3669023513793945
1772593966413600000,1.52760009765625,5.9427080154418945,-6.160281181335449,5.38366174697876
1772593966433863000,1.54786279296875,5.954977989196777,-6.155791759490967,5.401618480682373
1772593966454127000,1.568127197265625,5.958569526672363,-6.159083843231201,5.421370506286621
1772593966474391000,1.58839111328125,5.947795391082764,-6.149806499481201,5.437531471252441
1772593966494654000,1.608654052734375,5.949591159820557,-6.147112846374512,5.427355766296387
1772593966514918000,1.62891796875,5.959766387939453,-6.146514415740967,5.404311656951904
1772593966535182000,1.64918212890625,5.99298620223999,-6.14831018447876,5.373486518859863
1772593966555446000,1.669446044921875,6.015730857849121,-6.138433933258057,5.340865612030029
1772593966575709000,1.689708984375,6.04775333404541,-6.165368556976318,5.324106216430664
1772593966595973000,1.70997314453125,6.091447830200195,-6.209960460662842,5.310638427734375
1772593966616237000,1.730237060546875,6.135441303253174,-6.244078159332275,5.294477939605713
1772593966636500000,1.7505,6.143820762634277,-6.277895927429199,5.285799026489258
1772593966656764000,1.770763916015625,6.159083843231201,-6.298546314239502,5.2771196365356445
1772593966677028000,1.791028076171875,6.160281181335449,-6.3069257736206055,5.2801127433776855
1772593966697291000,1.811291015625,6.170156955718994,-6.300042629241943,5.2801127433776855
1772593966717555000,1.831554931640625,6.188113689422607,-6.279093265533447,5.263053894042969
1772593966737819000,1.85181884765625,6.179135322570801,-6.270414352416992,5.267542839050293
1772593966758082000,1.87208203125,6.175543785095215,-6.27280855178833,5.2585649490356445
1772593966778346000,1.892345947265625,6.1845221519470215,-6.280290126800537,5.243900299072266
1772593966798610000,1.91260986328125,6.19379997253418,-6.300341606140137,5.2444987297058105
1772593966818873000,1.932873046875,6.19379997253418,-6.32757568359375,5.231330871582031
1772593966839137000,1.953136962890625,6.197391033172607,-6.346130847930908,5.221155166625977
1772593966859401000,1.97340087890625,6.204274654388428,-6.358101844787598,5.221155166625977
1772593966879664000,1.9936640625,6.197391033172607,-6.380846977233887,5.228637218475342
1772593966899928000,2.013927978515625,6.1734490394592285,-6.383241176605225,5.214870452880859
1772593966920192000,2.03419189453125,6.147412300109863,-6.378751754760742,5.219359874725342
1772593966940455000,2.054454833984375,6.1210761070251465,-6.370072841644287,5.218461990356445
1772593966960719000,2.074718994140625,6.10012674331665,-6.343138217926025,5.2142720222473145
1772593966980983000,2.094983154296875,6.084863662719727,-6.326079368591309,5.213075160980225
1772593967001246000,2.115245849609375,6.108506202697754,-6.3174004554748535,5.219658851623535
1772593967021510000,2.135510009765625,6.069900035858154,-6.303035259246826,5.218760967254639
1772593967041774000,2.155774169921875,6.026205539703369,-6.255749702453613,5.2229509353637695
1772593967062037000,2.176037109375,6.019322395324707,-6.247968673706055,5.219958305358887
1772593967082301000,2.196301025390625,6.046855449676514,-6.247968673706055,5.225046157836914
1772593967102565000,2.216565185546875,6.057330131530762,-6.243479251861572,5.218162536621094
1772593967122828000,2.236828125,6.0396728515625,-6.242880821228027,5.223250389099121
1772593967143092000,2.257092041015625,6.0330891609191895,-6.233902454376221,5.246593952178955
1772593967163356000,2.27735595703125,6.042067050933838,-6.226719856262207,5.266345977783203
1772593967183619000,2.297619140625,6.039972305297852,-6.197989463806152,5.319317817687988
1772593967203883000,2.317883056640625,5.978321552276611,-6.197092056274414,5.393836975097656
1772593967224147000,2.33814697265625,5.959167957305908,-6.229114055633545,6.174646377563477
1772593967244410000,2.35841015625,5.962160587310791,-6.224325656890869,6.156689643859863
1772593967264674000,2.378674072265625,5.89512300491333,-5.260360240936279,6.12825870513916
1772593967284938000,2.39893798828125,4.951807498931885,-4.4164042472839355,5.259462356567383
1772593967305201000,2.419200927734375,4.089895248413086,-3.534440279006958,4.304774761199951
1772593967325465000,2.439465087890625,4.038120269775391,-3.4659061431884766,3.4739866256713867
1772593967345729000,2.45972900390625,-0.33429041504859924,-3.4641106128692627,2.6919806003570557
1772593967365992000,2.479991943359375,-3.368342399597168,-4.304176330566406,2.614767551422119
1772593967386256000,2.500255859375,-3.4380736351013184,-4.39425802230835,1.5855600833892822
1772593967406520000,2.52052001953125,-3.324648380279541,-4.449624061584473,1.512536883354187
1772593967426783000,2.540782958984375,-1.7292121648788452,-4.4933180809021,0.7646481394767761
1772593967447047000,2.561046875,-0.5213374495506287,-4.571728229522705,0.7436988949775696
1772593967467311000,2.58131103515625,1.0980406999588013,-8.275857925415039,-0.06374561786651611
1772593967487574000,2.601573974609375,4.086004257202148,-13.110947608947754,-3.0517094135284424
1772593967507838000,2.621837890625,4.100070476531982,-16.83363151550293,-2.288557529449463
1772593967528102000,2.642101806640625,-0.922366201877594,-16.871639251708984,-0.9864110946655273
1772593967548365000,2.662364990234375,-4.401141166687012,-15.902586936950684,0.6350619792938232
1772593967568629000,2.68262890625,-4.34876823425293,-14.292186737060547,0.6479308605194092
1772593967588893000,2.702892822265625,-2.4459762573242188,-13.062166213989258,0.6431424021720886
1772593967609156000,2.723156005859375,1.0468647480010986,-12.016199111938477,0.6739677786827087
1772593967629420000,2.743419921875,1.1444283723831177,-11.982081413269043,0.7535749673843384
1772593967649684000,2.76368408203125,-0.20260931551456451,-11.950058937072754,1.5822679996490479
1772593967669947000,2.78394677734375,-2.0138227939605713,-11.883021354675293,2.580949544906616
1772593967690211000,2.804211181640625,-2.047341823577881,-11.115081787109375,2.6216509342193604
1772593967710475000,2.82447509765625,-1.976114273071289,-11.088445663452148,2.6512792110443115
1772593967730738000,2.844738037109375,-1.050755262374878,-11.0300874710083,2.7102363109588623
1772593967751002000,2.865002197265625,-1.8189947605133057,-10.272622108459473,3.521571397781372
1772593967771266000,2.88526611328125,-2.618957281112671,-9.393052101135254,3.5389294624328613
1772593967791529000,2.905529052734375,-2.557007312774658,-9.33588981628418,3.5377323627471924
1772593967811793000,2.92579296875,-0.7511807680130005,-8.387187957763672,3.509899616241455
1772593967832057000,2.94605712890625,0.24331074953079224,-7.464522361755371,3.4671032428741455
1772593967852321000,2.966321044921875,0.28371289372444153,-6.654384136199951,3.4012627601623535
1772593967872584000,2.986583984375,0.3175309896469116,-6.641515731811523,2.6500821113586426
1772593967892848000,3.00684814453125,0.32112228870391846,-7.570765018463135,2.629431962966919
1772593967913112000,3.027112060546875,0.33848026394844055,-9.405621528625488,2.620753049850464
1772593967933375000,3.047375,0.40222588181495667,-11.664850234985352,2.5743653774261475
1772593967953639000,3.067638916015625,1.1483190059661865,-15.418659210205078,2.5213937759399414
1772593967973903000,3.087903076171875,1.169268250465393,-20.317195892333984,2.477998733520508
1772593967994166000,3.108166015625,1.2084733247756958,-23.850139617919922,2.5172038078308105
1772593968014430000,3.128429931640625,1.1641805171966553,-24.76412582397461,3.3761236667633057
1772593968034694000,3.14869384765625,-0.4776432514190674,-22.413618087768555,3.416226625442505
1772593968054957000,3.16895703125,-1.4745290279388428,-19.571401596069336,3.4467525482177734
1772593968075221000,3.189220947265625,-1.4951789379119873,-16.432903289794922,3.4626142978668213
1772593968095485000,3.20948486328125,-1.4697405099868774,-13.234848022460938,3.433584451675415
1772593968115748000,3.229748046875,-1.4218565225601196,-10.14632797241211,3.356072187423706
1772593968136012000,3.250011962890625,-1.4538789987564087,-7.2912421226501465,2.553715467453003
1772593968156276000,3.27027587890625,-1.5209165811538696,-5.169680118560791,2.496553897857666
1772593968176539000,3.290538818359375,-1.4984710216522217,-3.8061821460723877,1.6645687818527222
1772593968196803000,3.310802978515625,-0.6251859068870544,-2.794931173324585,1.6403274536132812
1772593968217067000,3.33106689453125,-0.5611410140991211,-2.715024709701538,1.6014217138290405
1772593968237330000,3.351329833984375,-0.4869207739830017,-1.6543933153152466,1.5394717454910278
1772593968257594000,3.371593994140625,0.34177228808403015,-1.5840636491775513,1.4805145263671875
1772593968277858000,3.391858154296875,0.345363587141037,-0.7742249965667725,0.6655880808830261
1772593968298121000,3.412120849609375,0.3636193871498108,-0.7311293482780457,0.6590040326118469
1772593968318385000,3.432385009765625,0.36990416049957275,-0.6943184733390808,0.6545149087905884
1772593968338649000,3.452649169921875,0.36900633573532104,-0.6605004072189331,0.6602011322975159
1772593968358912000,3.472912109375,0.36900633573532104,-0.5976526141166687,0.6446388363838196
1772593968379176000,3.493176025390625,0.37169981002807617,-0.5545569658279419,0.6314706802368164
1772593968399440000,3.51343994140625,0.31453824043273926,-0.49978959560394287,0.6338648796081543
1772593968419703000,3.533703125,-1.5110405683517456,0.23163901269435883,0.6126163601875305
1772593968439967000,3.553967041015625,-1.4413094520568848,0.22685061395168304,0.6063315868377686
1772593968460231000,3.57423095703125,-0.4578910768032074,0.17657238245010376,0.6266822814941406
1772593968480494000,3.594494140625,-0.42856210470199585,-1.6077064275741577,1.613093376159668
1772593968500758000,3.614758056640625,-3.5482068061828613,-3.3949780464172363,1.6938977241516113
1772593968521022000,3.63502197265625,0.5641337633132935,-10.956765174865723,1.5852607488632202
1772593968541285000,3.65528515625,1.5298948287963867,-17.4252986907959,-0.20530278980731964
1772593968561549000,3.675549072265625,1.5373767614364624,-22.81105613708496,0.6988075971603394
1772593968581813000,3.69581298828125,1.5756839513778687,-22.854450225830078,0.7326257228851318
1772593968602076000,3.716075927734375,1.5532383918762207,-20.592529296875,0.7757213711738586
1772593968622340000,3.736340087890625,1.4781203269958496,-17.167024612426758,1.5759832859039307
1772593968642604000,3.75660400390625,1.4053963422775269,-14.471752166748047,1.6540940999984741
1772593968662867000,3.776866943359375,1.3640964031219482,-12.112565994262695,2.4660277366638184
1772593968683131000,3.797130859375,1.2970588207244873,-10.693103790283203,2.5276784896850586
1772593968703395000,3.81739501953125,-0.4456208050251007,-8.64007568359375,2.554912567138672
1772593968723658000,3.837657958984375,-1.4942811727523804,-6.808810234069824,2.548927068710327
1772593968743922000,3.857921875,-1.4299370050430298,-5.262754440307617,2.507028341293335
1772593968764186000,3.87818603515625,-0.6500257849693298,-3.9701850414276123,2.4432828426361084
1772593968784449000,3.898448974609375,0.16968904435634613,-2.841618061065674,2.367865562438965
1772593968804713000,3.918712890625,0.2041056901216507,-1.986289620399475,1.4505869150161743
1772593968824977000,3.938976806640625,0.22595278918743134,-1.9255367517471313,1.4083890914916992
1772593968845240000,3.959239990234375,0.2355295866727829,-0.9864110946655273,1.3281834125518799
1772593968865504000,3.97950390625,0.24181437492370605,-0.9463081955909729,1.2614450454711914
1772593968885768000,3.999767822265625,0.23283611238002777,-0.8831611275672913,0.5650315880775452
1772593968906031000,4.020031005859375,0.23044191300868988,-0.829590916633606,0.5473743677139282
1772593968926295000,4.040294921875,0.21547815203666687,-0.7709329724311829,0.5099649429321289
1772593968946559000,4.06055908203125,0.20440496504306793,-0.03950432687997818,0.49230772256851196
1772593968966822000,4.08082177734375,-0.9100959300994873,-0.02454056777060032,0.4638765752315521
1772593968987086000,4.101086181640625,-0.978330671787262,-0.010773907415568829,0.4390367269515991
1772593969007350000,4.12135009765625,-0.9032126069068909,-0.037409402430057526,0.4357447028160095
1772593969027613000,4.141613037109375,-0.8592191338539124,-1.2545616626739502,1.6307506561279297
1772593969047877000,4.161877197265625,-0.8819640278816223,-3.4787750244140625,2.621950149536133
1772593969068141000,4.18214111328125,2.349011182785034,-8.971672058105469,3.477877140045166
1772593969088404000,4.202404052734375,1.822885274887085,-15.674539566040039,3.511096715927124
1772593969108668000,4.22266796875,1.6672621965408325,-20.472219467163086,2.526780605316162
1772593969128932000,4.24293212890625,2.4998457431793213,-21.71660614013672,1.160290002822876
1772593969149196000,4.263196044921875,2.4821887016296387,-19.480422973632812,1.0761936902999878
1772593969169459000,4.283458984375,1.2782044410705566,-16.127641677856445,1.0663175582885742
1772593969189723000,4.303722900390625,1.2446856498718262,-12.76109504699707,1.8821418285369873
1772593969209987000,4.323987060546875,1.293766736984253,-9.97065258026123,2.7183167934417725
1772593969230250000,4.34425,0.023343466222286224,-7.49654483795166,3.6984431743621826
1772593969250514000,4.364513916015625,-0.7649474143981934,-5.5324015617370605,5.135562419891357
1772593969270778000,4.384778076171875,0.32860419154167175,-3.8920741081237793,6.318597793579102
1772593969291041000,4.405041015625,0.3761889338493347,-2.284966230392456,6.372467041015625
1772593969311305000,4.425304931640625,0.36810851097106934,-1.0785878896713257,6.35301399230957
1772593969331569000,4.44556884765625,0.3372831642627716,-0.9855132699012756,5.09575891494751
1772593969351832000,4.46583203125,0.3190273642539978,-0.19063830375671387,3.84269380569458
1772593969372096000,4.486095947265625,0.3016694188117981,-0.17477671802043915,2.8685529232025146
1772593969392360000,4.50635986328125,0.2917933464050293,-0.14514847099781036,2.799121141433716
1772593969412623000,4.526623046875,0.31184476613998413,-0.11252748221158981,2.014122247695923
1772593969432887000,4.546886962890625,0.3190273642539978,-0.07960720360279083,1.1767501831054688
1772593969453151000,4.56715087890625,0.32950201630592346,-0.05357026308774948,1.1336544752120972
1772593969473414000,4.587413818359375,0.339078813791275,-0.029029695317149162,1.0672154426574707
1772593969493678000,4.607677978515625,0.35913026332855225,-0.03082534670829773,0.2968810200691223
1772593969513942000,4.62794189453125,0.400130957365036,-0.06344634294509888,0.2669534981250763
1772593969534205000,4.648204833984375,1.367687702178955,-0.8316858410835266,0.23762452602386475
1772593969554469000,4.66846923828125,-5.530306816101074,-4.636970043182373,1.3434463739395142
1772593969574733000,4.688733154296875,-1.578676700592041,-11.717822074890137,1.2958617210388184
1772593969594996000,4.708995849609375,-0.6099228858947754,-18.396148681640625,-0.0035913025494664907
1772593969615260000,4.729260009765625,0.2355295866727829,-22.364238739013672,-0.7948749661445618
1772593969635524000,4.749524169921875,0.19812019169330597,-22.409130096435547,-0.6880336999893188
1772593969655787000,4.769787109375,-0.7841010689735413,-22.321741104125977,0.7547720670700073
1772593969676051000,4.790051025390625,-1.7043722867965698,-20.606294631958008,1.5499463081359863
1772593969696315000,4.81031494140625,-1.6385318040847778,-18.778621673583984,1.6328455209732056
1772593969716578000,4.830578125,-0.6165069341659546,-16.530166625976562,2.5528175830841064
1772593969736842000,4.850842041015625,0.23493103682994843,-12.726079940795898,2.548927068710327
1772593969757106000,4.87110595703125,0.21996727585792542,-9.865906715393066,2.5154082775115967
1772593969777369000,4.891369140625,-2.262221336364746,-6.857293128967285,1.7271173000335693
1772593969797633000,4.911633056640625,-2.1948843002319336,-5.493794918060303,1.6777368783950806
1772593969817897000,4.93189697265625,-1.1390414237976074,-4.023156642913818,1.6331448554992676
1772593969838160000,4.952159912109375,-0.34506431221961975,-2.861968755722046,1.5607202053070068
1772593969858424000,4.972424072265625,-0.2711433470249176,-1.9913772344589233,1.490091323852539
1772593969878688000,4.99268798828125,0.49559974670410156,-1.9105730056762695,1.4329297542572021
1772593969898951000,5.012950927734375,0.5120598673820496,-1.1297639608383179,1.3560160398483276
1772593969919215000,5.033215087890625,0.5318120718002319,-1.082478404045105,0.6242880821228027
1772593969939479000,5.05347900390625,0.5877765417098999,-1.0145429372787476,0.6093243360519409
1772593969959742000,5.073741943359375,0.5985504388809204,-0.960673451423645,0.6147112846374512
1772593969980006000,5.094005859375,0.6090250611305237,-0.23612813651561737,0.612017810344696
1772593970000270000,5.11427001953125,0.5829881429672241,-0.21338322758674622,0.5985504388809204
1772593970020533000,5.134532958984375,0.5557540655136108,-0.2041056901216507,0.5970540642738342
1772593970040797000,5.154796875,0.5156511664390564,-0.19063830375671387,0.5895721912384033
1772593970061061000,5.17506103515625,0.44352585077285767,-0.17477671802043915,0.5979518890380859
1772593970081324000,5.195323974609375,-0.998681366443634,-0.2017114907503128,0.6072294116020203
1772593970101588000,5.215587890625,0.3636193871498108,-0.9932944178581238,0.6500257849693298
1772593970121852000,5.235851806640625,-0.8092401623725891,-3.939958095550537,2.934094190597534
1772593970142115000,5.256114990234375,-0.9971849918365479,-8.014290809631348,3.7223851680755615
1772593970162379000,5.27637890625,-0.9065046310424805,-13.610737800598145,0.7365162968635559
1772593970182643000,5.296642822265625,1.191115379333496,-19.324199676513672,-1.6813281774520874
1772593970202906000,5.316906005859375,1.2877812385559082,-22.634483337402344,-1.6959925889968872
1772593970223170000,5.337170166015625,1.2973580360412598,-21.78125,-0.7790133953094482
1772593970243434000,5.35743408203125,1.2832920551300049,-18.541595458984375,0.4776432514190674
1772593970263697000,5.37769677734375,1.294066071510315,-14.897022247314453,1.9698294401168823
1772593970283961000,5.397961181640625,1.325789213180542,-11.883620262145996,2.7545289993286133
1772593970304225000,5.41822509765625,1.3467384576797485,-9.282020568847656,2.7793688774108887
1772593970324488000,5.438488037109375,1.2829928398132324,-7.0033392906188965,2.818873167037964
1772593970344752000,5.458752197265625,-0.7550713419914246,-4.997297286987305,2.8733413219451904
1772593970365016000,5.47901611328125,-0.783801794052124,-3.265092611312866,3.689464807510376
1772593970385279000,5.499279052734375,-0.7170634269714355,-1.9270330667495728,3.7205893993377686
1772593970405543000,5.51954296875,0.14814123511314392,-1.1471219062805176,3.7158010005950928
1772593970425807000,5.53980712890625,0.17088614404201508,-1.0911574363708496,3.649960517883301
1772593970446071000,5.560071044921875,0.20350714027881622,-0.30137014389038086,2.5824458599090576
1772593970466334000,5.580333984375,0.21278467774391174,-0.28700491786003113,2.5189995765686035
1772593970486598000,5.600597900390625,0.17747020721435547,-0.25827449560165405,1.599326729774475
1772593970506862000,5.620862060546875,0.14754268527030945,-0.22206220030784607,1.5487492084503174
1772593970527125000,5.641125,0.11761515587568283,-0.17088614404201508,1.492485523223877
1772593970547389000,5.661388916015625,0.0900818407535553,-0.1173158809542656,1.4299370050430298
1772593970567653000,5.681653076171875,0.08499415963888168,-0.07751227915287018,0.6979097723960876
1772593970587916000,5.701916015625,0.09606734663248062,-0.04040215536952019,0.674267053604126
1772593970608180000,5.722179931640625,0.08858546614646912,-0.025438392534852028,0.6500257849693298
1772593970628444000,5.74244384765625,-1.0570400953292847,-0.06673837453126907,0.6200982332229614
1772593970648707000,5.76270703125,-1.037886381149292,-2.4229321479797363,0.6266822814941406
1772593970668971000,5.782970947265625,2.273294448852539,-8.066065788269043,1.4610615968704224
1772593970689235000,5.80323486328125,2.0817582607269287,-15.045762062072754,1.533486247062683
1772593970709498000,5.823498046875,2.031480073928833,-19.9272403717041,1.5999252796173096
1772593970729762000,5.843761962890625,0.4941033720970154,-21.234474182128906,1.645115852355957
1772593970750026000,5.86402587890625,-0.5796960592269897,-20.29265594482422,1.6855180263519287
1772593970770289000,5.884288818359375,-0.545877993106842,-18.193838119506836,1.7055693864822388
1772593970790553000,5.904552978515625,0.2693476974964142,-15.155895233154297,1.7148469686508179
1772593970810817000,5.924817138671875,1.1195886135101318,-12.522871971130371,1.764526605606079
1772593970831080000,5.945079833984375,1.1725603342056274,-10.026019096374512,1.8402433395385742
1772593970851344000,5.96534375,0.32531216740608215,-7.519888401031494,1.900996208190918
1772593970871608000,5.985608154296875,0.24570494890213013,-6.203975200653076,2.7159225940704346
1772593970891871000,6.00587109375,0.2735375463962555,-4.705803394317627,2.7742812633514404
1772593970912135000,6.026135009765625,0.29239189624786377,-3.364152669906616,2.797325372695923
1772593970932399000,6.046399169921875,0.2816179692745209,-2.1634604930877686,2.75003981590271
1772593970952662000,6.066662109375,0.2463034987449646,-1.4143747091293335,1.9291280508041382
1772593970972926000,6.086926025390625,0.19482816755771637,-0.5644330382347107,1.8824410438537598
1772593970993190000,6.10718994140625,0.1613093465566635,-0.545877993106842,1.8168997764587402
1772593971013453000,6.127453125,0.12300211191177368,-0.4836287498474121,1.0567407608032227
1772593971033717000,6.147717041015625,0.09217676520347595,-0.441430926322937,1.0426748991012573
1772593971053981000,6.16798095703125,0.07571662962436676,-0.4058171808719635,1.0196306705474854
1772593971074244000,6.188244140625,0.08319851011037827,-0.3770867586135864,0.9531915783882141
1772593971094508000,6.208508056640625,0.06434416770935059,-0.3660135865211487,-0.04519055783748627
1772593971114772000,6.22877197265625,0.07661445438861847,-0.33518823981285095,-0.06584054976701736
1772593971135035000,6.249034912109375,0.14006079733371735,-0.2711433470249176,-0.08170213550329208
1772593971155299000,6.269299072265625,-2.4525604248046875,0.7739257216453552,-0.16430209577083588
1772593971175563000,6.28956298828125,-2.3768436908721924,0.7823054194450378,-0.0975637212395668
1772593971195826000,6.309825927734375,-1.3419500589370728,0.7395090460777283,0.9627683758735657
1772593971216090000,6.330090087890625,1.9800047874450684,-0.22595278918743134,2.047341823577881
1772593971236354000,6.35035400390625,-1.2288240194320679,-3.4024598598480225,3.0334534645080566
1772593971256617000,6.370616943359375,1.4598644971847534,-10.489596366882324,4.476858139038086
1772593971276881000,6.390880859375,-2.0003554821014404,-17.078739166259766,3.269881010055542
1772593971297145000,6.41114501953125,-1.9991583824157715,-22.51357650756836,-1.0001777410507202
1772593971317408000,6.431407958984375,-1.036689281463623,-22.468385696411133,-2.106598138809204
1772593971337672000,6.451671875,-0.06643909960985184,-18.364126205444336,-2.1467010974884033
1772593971357936000,6.47193603515625,-0.08200141042470932,-12.78384017944336,-1.0863690376281738
1772593971378199000,6.492198974609375,-0.004788403399288654,-9.655516624450684,0.17088614404201508
1772593971398463000,6.512462890625,1.0399813652038574,-7.474997043609619,1.4000093936920166
1772593971418727000,6.532726806640625,1.0468647480010986,-5.804741859436035,2.43011474609375
1772593971438990000,6.552989990234375,-0.1529296338558197,-4.299986362457275,3.262399196624756
1772593971459254000,6.57325390625,-0.21517887711524963,-3.148076057434082,3.2824504375457764
1772593971479518000,6.59351806640625,-0.22206220030784607,-2.0317795276641846,3.2632968425750732
1772593971499781000,6.613781005859375,-0.20709845423698425,-1.0776900053024292,3.201047658920288
1772593971520045000,6.634045166015625,-0.18974047899246216,-1.015440821647644,2.3038206100463867
1772593971540309000,6.65430908203125,-0.1637035459280014,-0.2322375625371933,2.271498918533325
1772593971560572000,6.674572021484375,-0.1678933948278427,-0.21308395266532898,2.2358851432800293
1772593971580836000,6.694836181640625,-0.16729484498500824,-0.18644845485687256,2.1793220043182373
1772593971601100000,6.71510009765625,-0.12330138683319092,-0.14006079733371735,1.1082161664962769
1772593971621363000,6.735363037109375,0.7116764783859253,-0.07870937883853912,0.19273324310779572
1772593971641627000,6.755626953125,0.7371148467063904,-0.014065935276448727,0.10444705188274384
1772593971661891000,6.77589111328125,0.7317278981208801,0.04369417950510979,0.06733692437410355
1772593971682154000,6.796154052734375,-1.7564462423324585,0.10265139490365982,0.054767362773418427
1772593971702418000,6.81641796875,-2.718616008758545,0.1041477769613266,0.10444705188274384
1772593971722682000,6.83668212890625,-1.6621745824813843,-1.0908581018447876,2.1024084091186523
1772593971742946000,6.856946044921875,-0.6500257849693298,-2.6476879119873047,3.6927568912506104
1772593971763209000,6.877208984375,1.3174095153808594,-5.148431301116943,5.196614742279053
1772593971783473000,6.897472900390625,2.972700595855713,-10.543166160583496,5.984307289123535
1772593971803737000,6.917737060546875,3.0544028282165527,-16.991350173950195,6.027402877807617
1772593971824000000,6.938,1.361402988433838,-20.432716369628906,5.174468517303467
1772593971844257000,6.958257080078125,0.16071078181266785,-20.506038665771484,4.187757968902588
1772593971864520000,6.97852001953125,0.1289876103401184,-19.402311325073242,3.2468366622924805
1772593971884784000,6.9987841796875,0.05985504388809204,-17.73145866394043,3.157952070236206
1772593971905048000,7.019048095703125,0.08589198440313339,-15.948974609375,2.271498918533325
1772593971925311000,7.03931103515625,0.1660977452993393,-14.16260051727295,2.2334909439086914
1772593971945575000,7.059574951171875,0.9436147212982178,-11.94437313079834,2.1856069564819336
1772593971965839000,7.079839111328125,0.9989806413650513,-9.71357536315918,2.1475989818573
1772593971986102000,7.10010205078125,1.0660183429718018,-8.76337718963623,2.1529858112335205
1772593972006366000,7.120365966796875,1.0384849309921265,-5.6191911697387695,2.187103271484375
1772593972026630000,7.1406298828125,0.016160860657691956,-4.2458176612854,2.238279342651367
1772593972046893000,7.16089306640625,-0.029628245159983635,-2.912546396255493,2.2789807319641113
1772593972067157000,7.181156982421875,-0.03531447425484657,-2.022202491760254,2.328061819076538
1772593972087421000,7.2014208984375,-0.05746084079146385,-1.148618221282959,2.3394343852996826
1772593972107684000,7.22168408203125,-0.06883329898118973,-1.1019313335418701,2.290353298187256
1772593972127948000,7.241947998046875,-0.10803835093975067,-1.0351929664611816,2.212242364883423
1772593972148212000,7.2622119140625,-0.14694413542747498,-0.9720458984375,1.4197616577148438
1772593972168475000,7.282474853515625,-0.1834557056427002,-0.18914192914962769,1.3730746507644653
1772593972188739000,7.302739013671875,-0.18046295642852783,-0.18315643072128296,1.2934675216674805
1772593972209003000,7.3230029296875,-0.1388636976480484,-0.1346738487482071,1.2246341705322266
1772593972229266000,7.343265869140625,-0.10594342648983002,-0.0975637212395668,1.1632827520370483
1772593972249530000,7.363530029296875,-4.011185646057129,-0.12419921159744263,1.204582691192627
1772593972269794000,7.3837939453125,-2.9706058502197266,-0.18794482946395874,1.2282254695892334
1772593972290057000,7.404056884765625,-0.4456208050251007,-0.9301473498344421,2.0638017654418945
1772593972310321000,7.42432080078125,2.072181463241577,-3.746027946472168,4.894646167755127
1772593972330585000,7.444585205078125,0.9124901294708252,-10.81011962890625,6.0010666847229
1772593972350848000,7.464847900390625,-2.372354507446289,-17.37921142578125,4.055478572845459
1772593972371112000,7.48511181640625,-1.0046669244766235,-20.98457908630371,2.9101521968841553
1772593972391376000,7.5053759765625,0.5605424642562866,-21.04623031616211,2.1326351165771484
1772593972411639000,7.52563916015625,0.6186018586158752,-21.05820083618164,2.1024084091186523
1772593972431903000,7.545903076171875,0.6251859068870544,-21.895572662353516,1.169268250465393
1772593972452167000,7.5661669921875,0.5240309238433838,-21.88479995727539,1.1040263175964355
1772593972472430000,7.58643017578125,-0.6509236097335815,-20.628740310668945,1.0528502464294434
1772593972492694000,7.606694091796875,-0.6772598028182983,-18.587385177612305,1.0456676483154297
1772593972512958000,7.6269580078125,-0.5919663906097412,-15.252561569213867,1.070208191871643
1772593972533221000,7.64722119140625,0.5060743689537048,-12.451345443725586,1.103128433227539
1772593972553485000,7.667485107421875,0.5841852426528931,-9.845256805419922,1.1827356815338135
1772593972573749000,7.6877490234375,-0.7996633648872375,-7.168240070343018,2.0275895595550537
1772593972594012000,7.708011962890625,-0.8062474131584167,-4.683956146240234,2.9852702617645264
1772593972614276000,7.728276123046875,-0.7236474752426147,-2.6360161304473877,3.005321741104126
1772593972634540000,7.7485400390625,0.08259996026754379,-1.5637129545211792,2.9939491748809814
1772593972654803000,7.768802978515625,0.05297171324491501,-1.4850035905838013,2.954145669937134
1772593972675067000,7.78906689453125,-0.008379706181585789,-0.7089830040931702,2.8906993865966797
1772593972695331000,7.8093310546875,-0.042197804898023605,-0.6667851805686951,1.9030910730361938
1772593972715594000,7.829593994140625,-0.06763619929552078,-0.5961562395095825,1.8519150018692017
1772593972735858000,7.84985791015625,-0.08978256583213806,0.21966800093650818,1.7803882360458374
1772593972756122000,7.8701220703125,-0.06883329898118973,0.2513911724090576,0.9729437232017517
1772593972776385000,7.890385009765625,-0.03711012750864029,0.28042086958885193,0.9615712761878967
1772593972796649000,7.91064892578125,-0.02693476900458336,0.24690204858779907,0.9537901282310486
1772593972816913000,7.930912841796875,-0.10175357013940811,-0.5776011347770691,0.9373299479484558
1772593972837176000,7.951176025390625,-1.040579915046692,-0.6362590789794922,0.9247604012489319
1772593972857440000,7.97143994140625,0.35733461380004883,-2.275688648223877,0.9726444482803345
1772593972877704000,7.991703857421875,1.8324620723724365,-7.210437774658203,3.3189620971679688
1772593972897967000,8.011967041015625,1.8510172367095947,-13.950714111328125,4.2631754875183105
1772593972918231000,8.03223095703125,0.4522048532962799,-18.9638729095459,3.6721067428588867
1772593972938495000,8.052494873046875,0.4213795065879822,-21.931486129760742,2.5528175830841064
1772593972958758000,8.0727578125,0.37828385829925537,-22.653337478637695,2.510619640350342
1772593972979022000,8.09302197265625,0.30705636739730835,-21.31827163696289,2.4684219360351562
1772593972999286000,8.1132861328125,0.2744353711605072,-20.216638565063477,1.669357180595398
1772593973019549000,8.133548828125,0.31184476613998413,-18.806453704833984,1.6660650968551636
1772593973039813000,8.153813232421875,1.0944494009017944,-16.84979248046875,1.7070658206939697
1772593973060077000,8.1740771484375,1.1162965297698975,-14.119504928588867,1.7588404417037964
1772593973080341000,8.194341064453125,1.1252747774124146,-11.02859115600586,1.8112136125564575
1772593973100604000,8.21460400390625,1.1201871633529663,-8.292317390441895,1.8315643072128296
1772593973120868000,8.2348681640625,1.0785878896713257,-5.946897983551025,1.81151282787323
1772593973141132000,8.255132080078125,-0.24450784921646118,-3.7131075859069824,1.745672345161438
1772593973161395000,8.27539501953125,-0.27323827147483826,-1.4835072755813599,1.6929998397827148
1772593973181659000,8.295658935546875,-0.27084407210350037,0.7260416746139526,1.758241891860962
1772593973201923000,8.315923095703125,-0.2513911724090576,2.259827136993408,2.728492021560669
1772593973222186000,8.33618603515625,-0.25258827209472656,2.3044190406799316,2.801814556121826
1772593973242450000,8.356449951171875,-0.28790274262428284,1.5361796617507935,2.765302896499634
1772593973262714000,8.376714111328125,-0.21847090125083923,1.4395138025283813,1.7408839464187622
1772593973282977000,8.39697705078125,0.8729857802391052,0.5512649416923523,0.9017162322998047
1772593973303241000,8.417240966796875,0.8418611884117126,0.5731120109558105,-0.04638765752315521
1772593973323505000,8.4375048828125,0.021547814831137657,0.574907660484314,-0.12180501222610474
1772593973343768000,8.45776806640625,0.10235211998224258,-0.2190694510936737,-0.08439560979604721
1772593973364032000,8.478031982421875,0.8182184100151062,-4.049492835998535,0.9184756278991699
1772593973384296000,8.4982958984375,0.7808090448379517,-10.708965301513672,0.9552865028381348
1772593973404559000,8.51855908203125,3.9285857677459717,-17.48305892944336,1.900696873664856
1772593973424823000,8.538822998046875,-0.25318682193756104,-18.406024932861328,1.9270330667495728
1772593973445087000,8.5590869140625,-1.0663175582885742,-18.317138671875,1.9195512533187866
1772593973465350000,8.579349853515625,-0.1735796183347702,-17.471088409423828,0.9175778031349182
1772593973485614000,8.599614013671875,0.8370727896690369,-17.503110885620117,0.9795277714729309
1772593973505878000,8.6198779296875,1.634940505027771,-16.612468719482422,1.0402805805206299
1772593973526141000,8.640140869140625,1.5463550090789795,-15.614983558654785,0.9579799771308899
1772593973546405000,8.660405029296875,0.7413046956062317,-15.56201171875,-0.05117605999112129
1772593973566669000,8.6806689453125,0.6593033075332642,-14.14673900604248,0.8008604645729065
1772593973586932000,8.700931884765625,1.5658079385757446,-9.66299819946289,0.7715315222740173
1772593973607196000,8.72119580078125,1.6268600225448608,-8.842385292053223,0.6994061470031738
1772593973627460000,8.741460205078125,0.39564183354377747,-8.788216590881348,0.6619967818260193
1772593973647723000,8.761722900390625,0.3082534670829773,-7.873033046722412,0.6281786561012268
1772593973667987000,8.781987060546875,0.28730419278144836,-7.097910404205322,0.5925649404525757
1772593973688251000,8.8022509765625,0.3372831642627716,-7.036558628082275,0.6488286852836609
1772593973708514000,8.82251416015625,0.4076128304004669,-7.06409215927124,1.604414463043213
1772593973728778000,8.842778076171875,1.1546037197113037,-8.32673454284668,1.568501353263855
1772593973749042000,8.8630419921875,1.1109095811843872,-10.269330024719238,0.6305728554725647
1772593973769305000,8.88330517578125,1.039382815361023,-12.154165267944336,0.591667115688324
1772593973789569000,8.903569091796875,0.9816226959228516,-13.125911712646484,0.6230909824371338
1772593973809833000,8.9238330078125,0.9678560495376587,-13.960590362548828,0.6102221608161926
1772593973830096000,8.944095947265625,0.9956886172294617,-13.920187950134277,0.5416881442070007
1772593973850360000,8.964360107421875,0.23074118793010712,-13.120524406433105,0.62458735704422
1772593973870624000,8.9846240234375,0.17058686912059784,-13.068450927734375,1.5780781507492065
1772593973890887000,9.004886962890625,0.1397615224123001,-13.138481140136719,1.645115852355957
1772593973911151000,9.025151123046875,0.1660977452993393,-14.095562934875488,2.3442227840423584
1772593973931415000,9.0454150390625,0.16849194467067719,-13.333908081054688,1.303044319152832
1772593973951678000,9.065677978515625,0.21039047837257385,-13.311761856079102,1.3248913288116455
1772593973971942000,9.08594189453125,2.3190836906433105,-14.280515670776367,2.418442964553833
1772593973992206000,9.1062060546875,2.39928936958313,-14.345458030700684,3.498826503753662
1772593974012469000,9.126468994140625,3.1558570861816406,-14.377181053161621,5.01405668258667
1772593974032733000,9.14673291015625,3.1884782314300537,-14.337976455688477,5.97682523727417
1772593974052997000,9.1669970703125,3.2480337619781494,-14.279019355773926,4.742913722991943
1772593974073260000,9.187260009765625,3.243544816970825,-12.642881393432617,1.7959505319595337
1772593974093524000,9.20752392578125,1.7687164545059204,-10.008062362670898,-0.8993220329284668
1772593974113788000,9.227787841796875,1.6774375438690186,-8.947430610656738,2.7841572761535645
1772593974134051000,9.248051025390625,1.6430208683013916,-8.069058418273926,6.96622896194458
1772593974154315000,9.26831494140625,1.599626064300537,-8.03194808959961,7.816769123077393
1772593974174579000,9.288578857421875,1.5349825620651245,-6.613682746887207,6.213851451873779
1772593974194842000,9.308842041015625,1.5373767614364624,-5.072116374969482,5.099050998687744
1772593974215106000,9.32910595703125,1.5987281799316406,-3.5230677127838135,5.0592474937438965
1772593974235370000,9.349369873046875,2.332251787185669,-2.1493945121765137,5.045181751251221
1772593974255633000,9.3696328125,3.0684688091278076,-0.6473323106765747,4.2975921630859375
1772593974275897000,9.38989697265625,4.2293572425842285,0.11133038252592087,3.2887353897094727
1772593974296161000,9.4101611328125,5.32889461517334,0.08649053424596786,1.9159599542617798
1772593974316424000,9.430423828125,5.353435039520264,-0.6727706789970398,0.7347206473350525
1772593974336688000,9.450688232421875,5.300164222717285,-0.7035959959030151,0.6700772047042847
1772593974356952000,9.4709521484375,4.39156436920166,-0.6874351501464844,0.6003460884094238
1772593974377216000,9.491216064453125,4.306570529937744,0.6356605291366577,-0.12360066175460815
1772593974397479000,9.51147900390625,5.084685802459717,0.7101801037788391,-0.14694413542747498
1772593974417743000,9.5317431640625,5.901707172393799,0.7407061457633972,-0.14694413542747498
1772593974458270000,9.57227001953125,9.051877975463867,-0.28371289372444153,5.433640956878662
1772593974478534000,9.592533935546875,9.073724746704102,-1.3766659498214722,5.380070686340332
1772593974498798000,9.612798095703125,10.078092575073242,-0.14903905987739563,3.7900211811065674
1772593974519061000,9.63306103515625,10.006865501403809,0.7547720670700073,2.3104045391082764
1772593974539325000,9.653324951171875,9.210494041442871,1.912368655204773,0.7700351476669312
1772593974559589000,9.673589111328125,9.205705642700195,1.9282301664352417,-0.4129997789859772
1772593974579852000,9.69385205078125,9.223662376403809,1.8513164520263672,-1.3751696348190308
1772593974600116000,9.714115966796875,9.262567520141602,1.8237831592559814,-1.3593080043792725
1772593974620380000,9.7343798828125,9.329904556274414,1.789965033531189,-1.3218985795974731
1772593974640643000,9.75464306640625,9.334393501281738,1.7747019529342651,-1.258152961730957
1772593974660907000,9.774906982421875,9.270050048828125,1.7767969369888306,-1.2195464372634888
1772593974681171000,9.7951708984375,8.409933090209961,1.8722656965255737,-1.1893197298049927
1772593974701434000,9.81543408203125,8.32254409790039,1.9431939125061035,-1.12736976146698
1772593974721698000,9.835697998046875,7.39060115814209,2.7548282146453857,-1.1127052307128906
1772593974741962000,9.8559619140625,7.401674747467041,2.8230631351470947,-1.1186907291412354
1772593974762225000,9.876224853515625,7.49923849105835,2.864961624145508,-1.1393407583236694
1772593974782489000,9.896489013671875,8.620622634887695,2.913743495941162,-1.1869255304336548
1772593974802753000,9.9167529296875,8.668806076049805,2.943970203399658,-1.1857284307479858
1772593974823016000,9.937015869140625,8.66431713104248,3.005920171737671,-1.1985971927642822
1772593974843280000,9.95727978515625,8.6089506149292,3.773860454559326,-1.2102689743041992
1772593974863544000,9.9775439453125,8.555679321289062,3.8510735034942627,-1.2012907266616821
1772593974883807000,9.997806884765625,8.507197380065918,4.595071792602539,-1.2219406366348267
1772593974904071000,10.01807080078125,8.50749683380127,4.581005573272705,-1.212663173675537
1772593974924335000,10.038335205078125,8.563161849975586,4.55496883392334,-1.2177507877349854
1772593974944598000,10.058597900390625,8.640374183654785,4.527734756469727,-1.216254472732544
1772593974964862000,10.078862060546875,9.346664428710938,4.4705729484558105,-1.2198457717895508
1772593974985126000,10.0991259765625,9.370606422424316,4.40892219543457,-1.1914145946502686
1772593975005389000,10.11938916015625,9.367314338684082,4.357746601104736,-1.1653777360916138
1772593975025653000,10.139653076171875,9.337087631225586,4.290110111236572,-1.1195886135101318
1772593975045917000,10.1599169921875,9.307758331298828,4.226963043212891,-1.0690110921859741
1772593975066180000,10.18018017578125,9.279027938842773,4.203021049499512,-1.0214263200759888
1772593975086444000,10.200444091796875,9.268852233886719,4.150947093963623,-0.9923965930938721
1772593975106708000,10.2207080078125,9.224260330200195,4.075230598449707,-0.9415197968482971
1772593975126971000,10.240970947265625,9.238924980163574,3.327042579650879,-0.9181763529777527
1772593975147235000,10.261235107421875,10.056844711303711,3.336918592453003,-0.9139865040779114
1772593975167499000,10.2814990234375,10.071807861328125,3.3662476539611816,-0.8759785294532776
1772593975187762000,10.301761962890625,10.00836181640625,3.413832426071167,-0.851138710975647
1772593975208026000,10.322026123046875,9.00160026550293,3.438971519470215,-0.8173205852508545
