time,seconds_elapsed,z,y,x
1772594391772561000,0.249560791015625,6.480505466461182,-6.773795127868652,3.7759554386138916
1772594391792825000,0.2698251953125,6.49636697769165,-6.7749924659729,3.776853084564209
1772594391813088000,0.290087890625,6.499659061431885,-6.77618932723999,3.7591960430145264
1772594391833352000,0.31035205078125,6.501454830169678,-6.776488780975342,3.75829815864563
1772594391853616000,0.3306162109375,6.519710540771484,-6.776488780975342,3.7508163452148438
1772594391873879000,0.350879150390625,6.5283894538879395,-6.7749924659729,3.745429277420044
1772594391894143000,0.37114306640625,6.556221961975098,-6.776787757873535,3.728969097137451
1772594391914407000,0.391406982421875,6.589740753173828,-6.760926246643066,3.726275682449341
1772594391934670000,0.411670166015625,6.626551628112793,-6.747758388519287,3.733159065246582
1772594391954934000,0.43193408203125,6.650493621826172,-6.757634162902832,3.7597944736480713
1772594391975198000,0.452197998046875,6.657377243041992,-6.739078998565674,3.78104305267334
1772594391995461000,0.472461181640625,6.610091686248779,-6.737882137298584,3.768174171447754
1772594392015725000,0.49272509765625,6.574777126312256,-6.73459005355835,3.755903959274292
1772594392035989000,0.512989013671875,5.826589107513428,-6.653785705566406,3.70742130279541
1772594392056252000,0.533251953125,5.864297866821289,-5.858611583709717,3.673004627227783
1772594392076516000,0.55351611328125,5.903502941131592,-4.862324237823486,2.8580782413482666
1772594392096780000,0.573780029296875,5.881057262420654,-3.687669277191162,2.8113913536071777
1772594392117043000,0.59404296875,5.101744651794434,-3.63649320602417,2.7491421699523926
1772594392137307000,0.614306884765625,3.176506996154785,-3.608959674835205,2.686593532562256
1772594392157571000,0.634571044921875,-3.098097085952759,-4.712686538696289,1.9740192890167236
1772594392177834000,0.654833984375,-1.7905635833740234,-7.577049732208252,1.9369091987609863
1772594392198098000,0.675097900390625,2.7108349800109863,-8.8163480758667,1.8761563301086426
1772594392218362000,0.695362060546875,3.4904468059539795,-9.808146476745605,1.1186907291412354
1772594392238625000,0.715625,2.5468320846557617,-10.945093154907227,1.0399813652038574
1772594392258889000,0.735888916015625,1.4383167028427124,-13.3796968460083,0.191835418343544
1772594392279153000,0.75615283203125,1.3706804513931274,-14.646827697753906,0.9768342971801758
1772594392299416000,0.776416015625,1.3069348335266113,-14.636652946472168,1.9141643047332764
1772594392319680000,0.796679931640625,1.316511631011963,-13.283031463623047,1.8845360279083252
1772594392339944000,0.81694384765625,1.2847884893417358,-11.748347282409668,1.8139070272445679
1772594392360207000,0.83720703125,1.2907739877700806,-11.710938453674316,1.7612346410751343
1772594392380471000,0.857470947265625,1.2850877046585083,-11.656170845031738,1.6980875730514526
1772594392400735000,0.87773486328125,1.2874820232391357,-10.829572677612305,1.6531962156295776
1772594392420998000,0.897997802734375,1.2922704219818115,-10.741286277770996,1.5846621990203857
1772594392441262000,0.918261962890625,1.337161660194397,-9.450512886047363,1.5212159156799316
1772594392461526000,0.938526123046875,1.3733739852905273,-9.367613792419434,0.7122750282287598
1772594392481789000,0.958788818359375,1.3913304805755615,-9.351752281188965,0.7317278981208801
1772594392502053000,0.97905322265625,1.412279725074768,-9.406818389892578,0.8182184100151062
1772594392522317000,0.999317138671875,1.4449007511138916,-9.42447566986084,1.6202759742736816
1772594392542580000,1.019580078125,1.468244194984436,-9.441235542297363,1.612195611000061
1772594392562844000,1.039843994140625,1.4853029251098633,-10.194510459899902,1.6319477558135986
1772594392583108000,1.060108154296875,1.492485523223877,-10.210371971130371,1.647510051727295
1772594392603371000,1.08037109375,1.4969745874404907,-10.219650268554688,1.647510051727295
1772594392623635000,1.100635009765625,1.5107412338256836,-10.226832389831543,1.633743405342102
1772594392643899000,1.12089892578125,1.523909330368042,-10.23431396484375,1.6124948263168335
1772594392664162000,1.141162109375,1.533486247062683,-10.226234436035156,1.5705963373184204
1772594392684426000,1.161426025390625,1.5086463689804077,-10.217255592346191,1.5400702953338623
1772594392704690000,1.18168994140625,1.5050550699234009,-10.186729431152344,1.5068507194519043
1772594392724953000,1.201953125,1.499967336654663,-10.151714324951172,1.48081374168396
1772594392745217000,1.222217041015625,1.4760253429412842,-10.129568099975586,1.457769513130188
1772594392765481000,1.24248095703125,1.4559738636016846,-10.10053825378418,1.4437036514282227
1772594392785744000,1.262743896484375,1.4434043169021606,-10.062829971313477,1.427542805671692
1772594392806008000,1.283008056640625,1.4407109022140503,-10.03260326385498,1.4128782749176025
1772594392826272000,1.30327197265625,1.4392144680023193,-10.038289070129395,1.393126130104065
1772594392846535000,1.323534912109375,1.4266449213027954,-10.047566413879395,1.3706804513931274
1772594392866799000,1.343799072265625,1.4209587574005127,-10.032303810119629,1.3503297567367554
1772594392887063000,1.36406298828125,1.3982137441635132,-10.017938613891602,1.3308768272399902
1772594392907326000,1.384325927734375,1.3643957376480103,-10.001777648925781,1.3260884284973145
1772594392927590000,1.40458984375,1.334767460823059,-9.987412452697754,1.3479355573654175
1772594392947854000,1.42485400390625,1.3135188817977905,-9.975740432739258,1.3530232906341553
1772594392968117000,1.445116943359375,1.2758102416992188,-9.95209789276123,1.3452420234680176
1772594392988381000,1.465380859375,1.2339117527008057,-9.946112632751465,1.324292778968811
1772594393008645000,1.48564501953125,1.1956044435501099,-9.938630104064941,1.313219666481018
1772594393028909000,1.505908935546875,1.1411364078521729,-9.9371337890625,1.305139183998108
1772594393049172000,1.526171875,1.104325532913208,-9.918878555297852,1.2883797883987427
1772594393069436000,1.546435791015625,1.0770914554595947,-9.912294387817383,1.2623428106307983
1772594393089700000,1.5667001953125,1.081281304359436,-9.882965087890625,1.2336124181747437
1772594393109963000,1.586962890625,1.0660183429718018,-9.844059944152832,1.1758522987365723
1772594393130227000,1.60722705078125,1.0684125423431396,-9.83687686920166,1.1127052307128906
1772594393150491000,1.627490966796875,1.0402805805206299,-9.84376049041748,1.0537480115890503
1772594393170754000,1.647754150390625,0.9852139949798584,-9.85423469543457,1.013944387435913
1772594393191018000,1.66801806640625,0.9322422742843628,-9.88386344909668,0.9720458984375
1772594393211282000,1.688281982421875,0.8708908557891846,-9.913790702819824,0.9352350234985352
1772594393231545000,1.708545166015625,0.812831461429596,-9.905410766601562,0.9002198576927185
1772594393251809000,1.72880908203125,0.74040687084198,-9.896133422851562,0.8771756291389465
1772594393272073000,1.749072998046875,0.6697779297828674,-9.888052940368652,0.8610147833824158
1772594393292336000,1.769336181640625,0.6159083843231201,-9.862914085388184,0.826897382736206
1772594393312600000,1.78960009765625,0.5734112858772278,-9.83448314666748,0.7855974435806274
1772594393332864000,1.809864013671875,0.50876784324646,-9.809642791748047,0.7745242714881897
1772594393353127000,1.830126953125,0.4387374520301819,-9.7791166305542,0.7571662664413452
1772594393373391000,1.85039111328125,0.37798458337783813,-9.773730278015137,0.7329249978065491
1772594393393655000,1.870655029296875,0.3250128924846649,-9.783007621765137,0.7493851184844971
1772594393413918000,1.89091796875,0.2669534981250763,-9.781211853027344,0.7616553902626038
1772594393434335000,1.9113349609375,0.21458032727241516,-9.793182373046875,0.7652466893196106
1772594393454598000,1.931597900390625,0.18046295642852783,-9.793781280517578,0.8056488633155823
1772594393474862000,1.951862060546875,0.14335282146930695,-9.797073364257812,0.8209118843078613
1772594393495126000,1.9721259765625,0.10863690078258514,-9.793481826782227,0.8352771401405334
1772594393515389000,1.992388916015625,0.0769137293100357,-9.825803756713867,0.8729857802391052
1772594393535653000,2.012653076171875,0.048482585698366165,-9.861717224121094,0.9124901294708252
1772594393555917000,2.0329169921875,0.028730420395731926,-9.885359764099121,0.9340379238128662
1772594393576180000,2.053179931640625,0.0011971008498221636,-9.918279647827148,0.9681553244590759
1772594393596444000,2.07344384765625,-0.01496376097202301,-9.951498985290527,1.0028712749481201
1772594393616708000,2.0937080078125,0.0002992752124555409,-9.983521461486816,1.0360907316207886
1772594393636971000,2.113970947265625,0.01107318326830864,-9.959878921508789,1.0145429372787476
1772594393657235000,2.13423486328125,0.024839842692017555,-9.952696800231934,1.013944387435913
1772594393677499000,2.154498779296875,0.03621229901909828,-9.936835289001465,1.0160393714904785
1772594393697762000,2.174761962890625,0.04668693244457245,-9.934440612792969,0.9786299467086792
1772594393718026000,2.19502587890625,0.05596446618437767,-9.936535835266113,0.9460089206695557
1772594393758553000,2.235552978515625,0.06254851818084717,-9.90122127532959,0.8924387097358704
1772594393778817000,2.255817138671875,0.07032967358827591,-9.899724960327148,0.8672995567321777
1772594393799081000,2.2760810546875,0.07332243025302887,-9.882665634155273,0.8484452366828918
1772594393819344000,2.29634375,0.07900865375995636,-9.886556625366211,0.8182184100151062
1772594393839608000,2.316608154296875,0.08080431073904037,-9.885957717895508,0.8005611896514893
1772594393859872000,2.3368720703125,0.08768763393163681,-9.88506031036377,0.7796119451522827
1772594393880135000,2.357135009765625,0.08559270948171616,-9.883264541625977,0.7652466893196106
1772594393900399000,2.377399169921875,0.09367313981056213,-9.874286651611328,0.7523778676986694
1772594393920663000,2.3976630859375,0.0942716896533966,-9.870994567871094,0.735319197177887
1772594393940926000,2.417926025390625,0.09696517139673233,-9.860519409179688,0.7368155717849731
1772594393961190000,2.43818994140625,0.09277531504631042,-9.853636741638184,0.7481880187988281
1772594393981454000,2.4584541015625,0.09576806426048279,-9.862914085388184,0.7481880187988281
1772594394001717000,2.478717041015625,0.10205284506082535,-9.900921821594238,0.7401075959205627
1772594394021981000,2.49898095703125,0.10025719553232193,-9.924564361572266,0.7185598015785217
1772594394042245000,2.5192451171875,0.11432313174009323,-9.938331604003906,0.7098808288574219
1772594394062508000,2.539508056640625,0.1116296574473381,-9.925761222839355,0.6931213736534119
1772594394082772000,2.55977197265625,0.114023856818676,-9.916184425354004,0.6769605278968811
1772594394103036000,2.580035888671875,0.11462240666151047,-9.909899711608887,0.6643909811973572
1772594394123299000,2.600299072265625,0.1149216815829277,-9.907206535339355,0.6521207094192505
1772594394143563000,2.62056298828125,0.12749123573303223,-9.912893295288086,0.6512228846549988
1772594394163827000,2.640826904296875,0.13018471002578735,-9.911396026611328,0.6599018573760986
1772594394184090000,2.661090087890625,0.14245499670505524,-9.932644844055176,0.6581062078475952
1772594394204354000,2.68135400390625,0.14245499670505524,-9.954193115234375,0.6407482028007507
1772594394224618000,2.701617919921875,0.14036007225513458,-9.973346710205078,0.6326677799224854
1772594394244881000,2.721880859375,0.14784196019172668,-9.981725692749023,0.6281786561012268
1772594394265145000,2.74214501953125,0.15652093291282654,-9.960477828979492,0.6209960579872131
1772594394285409000,2.762408935546875,0.152031809091568,-9.947309494018555,0.6150105595588684
1772594394305672000,2.782671875,0.1487397849559784,-9.929652214050293,0.6045359373092651
1772594394325936000,2.80293603515625,0.1463455855846405,-9.920374870300293,0.6111199855804443
1772594394346200000,2.823199951171875,0.15771803259849548,-9.912294387817383,0.6003460884094238
1772594394366463000,2.843462890625,0.14784196019172668,-9.906009674072266,0.629675030708313
1772594394386727000,2.863726806640625,0.1834557056427002,-9.90122127532959,0.6596025824546814
1772594394406991000,2.8839912109375,0.18465280532836914,-9.894038200378418,0.652719259262085
1772594394427254000,2.90425390625,0.18166005611419678,-9.882965087890625,0.652719259262085
1772594394447518000,2.92451806640625,0.1735796183347702,-9.888052940368652,0.6563105583190918
1772594394467782000,2.944781982421875,0.176871657371521,-9.885659217834473,0.6488286852836609
1772594394488045000,2.965045166015625,0.1660977452993393,-9.891345024108887,0.646434485912323
1772594394508309000,2.98530908203125,0.16340427100658417,-9.883264541625977,0.6500257849693298
1772594394528573000,3.005572998046875,0.15831658244132996,-9.87817668914795,0.6494272351264954
1772594394548836000,3.025836181640625,0.15263035893440247,-9.882965087890625,0.6449381113052368
1772594394569100000,3.04610009765625,0.1553238332271576,-9.88386344909668,0.6344634294509888
1772594394589364000,3.066364013671875,0.14574703574180603,-9.884461402893066,0.6344634294509888
1772594394609627000,3.086626953125,0.1472434103488922,-9.882965087890625,0.634762704372406
1772594394629891000,3.10689111328125,0.13916297256946564,-9.881468772888184,0.623390257358551
1772594394650155000,3.127155029296875,0.166995570063591,-9.880271911621094,0.6218938827514648
1772594394670419000,3.1474189453125,0.1876455545425415,-9.880271911621094,0.6147112846374512
1772594394690682000,3.16768212890625,0.21128830313682556,-9.885359764099121,0.618302583694458
1772594394710946000,3.187946044921875,0.22206220030784607,-9.880571365356445,0.6105214357376099
1772594394731210000,3.2082099609375,0.21039047837257385,-9.870994567871094,0.6036381125450134
1772594394751473000,3.228472900390625,0.20380641520023346,-9.863213539123535,0.613214910030365
1772594394771737000,3.248737060546875,0.19961656630039215,-9.867403030395508,0.6209960579872131
1772594394792001000,3.2690009765625,0.2008136659860611,-9.864410400390625,0.6111199855804443
1772594394812264000,3.289263916015625,0.2313397377729416,-9.85842514038086,0.6099228858947754
1772594394832528000,3.30952783203125,0.2495955228805542,-9.856629371643066,0.613214910030365
1772594394852792000,3.3297919921875,0.2753331959247589,-9.85423469543457,0.6236895322799683
1772594394873055000,3.350054931640625,0.2882020175457001,-9.841365814208984,0.6257844567298889
1772594394893319000,3.37031884765625,0.30945056676864624,-9.856030464172363,0.6212953329086304
1772594394913583000,3.3905830078125,0.3106476664543152,-9.85034465789795,0.6308721303939819
1772594394933846000,3.410845947265625,0.3175309896469116,-9.856629371643066,0.6350619792938232
1772594394954110000,3.43110986328125,0.32172083854675293,-9.846453666687012,0.6266822814941406
1772594394974374000,3.451373779296875,0.32860419154167175,-9.850942611694336,0.6257844567298889
1772594394994637000,3.471636962890625,0.33997663855552673,-9.85543155670166,0.6302735805511475
1772594395014901000,3.49190087890625,0.3381809890270233,-9.859322547912598,0.641047477722168
1772594395035165000,3.5121650390625,0.320523738861084,-9.857526779174805,0.6338648796081543
1772594395055428000,3.532427978515625,0.3010708689689636,-9.866804122924805,0.6254851818084717
1772594395075692000,3.552692138671875,0.29867666959762573,-9.869797706604004,0.6221931576728821
1772594395095956000,3.5729560546875,0.30945056676864624,-9.8691987991333,0.618302583694458
1772594395116219000,3.593218994140625,0.3223194181919098,-9.865307807922363,0.6197989583015442
1772594395136483000,3.613483154296875,0.3298012912273407,-9.861717224121094,0.6174047589302063
1772594395156747000,3.6337470703125,0.33339259028434753,-9.868599891662598,0.6218938827514648
1772594395177010000,3.654010009765625,0.3477577865123749,-9.875184059143066,0.619499683380127
1772594395197274000,3.674274169921875,0.3555389642715454,-9.866804122924805,0.613214910030365
1772594395217538000,3.6945380859375,0.36002808809280396,-9.862914085388184,0.6141127347946167
1772594395237801000,3.714801025390625,0.37229835987091064,-9.855133056640625,0.6168062090873718
1772594395258065000,3.73506494140625,0.37888240814208984,-9.855133056640625,0.6212953329086304
1772594395278329000,3.7553291015625,0.3845686614513397,-9.859322547912598,0.6153098344802856
1772594395298592000,3.775592041015625,0.39803603291511536,-9.859023094177246,0.6186018586158752
1772594395318856000,3.79585595703125,0.4067150056362152,-9.876680374145508,0.6153098344802856
1772594395339120000,3.8161201171875,0.41629183292388916,-9.902717590332031,0.6126163601875305
1772594395359383000,3.836383056640625,0.42676645517349243,-9.896432876586914,0.6186018586158752
1772594395379647000,3.85664697265625,0.42766427993774414,-9.889249801635742,0.6275801062583923
1772594395399911000,3.876910888671875,0.4258686304092407,-9.87967300415039,0.6299743056297302
1772594395420174000,3.897174072265625,0.4240729808807373,-9.881169319152832,0.6335656046867371
1772594395440438000,3.91743798828125,0.41778820753097534,-9.883563995361328,0.6186018586158752
1772594395460702000,3.937701904296875,0.43185412883758545,-9.882665634155273,0.6189011335372925
1772594395480965000,3.957965087890625,0.4354454278945923,-9.913491249084473,0.623390257358551
1772594395501229000,3.97822900390625,0.4372410774230957,-9.936835289001465,0.6224924325942993
1772594395521493000,3.998492919921875,0.444722980260849,-9.928455352783203,0.6153098344802856
1772594395541756000,4.018755859375,0.43664252758026123,-9.923068046569824,0.6126163601875305
1772594395562020000,4.03902001953125,0.4396352767944336,-9.913491249084473,0.619499683380127
1772594395582284000,4.059283935546875,0.43694180250167847,-9.908403396606445,0.6114192605018616
1772594395602547000,4.079546875,0.43424832820892334,-9.903914451599121,0.6165069341659546
1772594395622811000,4.099810791015625,0.4420294761657715,-9.9000244140625,0.6171054840087891
1772594395643075000,4.120074951171875,0.4462193548679352,-9.890148162841797,0.6180033087730408
1772594395663338000,4.140337890625,0.43514615297317505,-9.8877534866333,0.6162076592445374
1772594395683602000,4.160601806640625,0.44262802600860596,-9.88506031036377,0.6096236109733582
1772594395703866000,4.1808662109375,0.43185412883758545,-9.883563995361328,0.6000468134880066
1772594395724129000,4.20112890625,0.4315548539161682,-9.891345024108887,0.6042366623878479
1772594395744393000,4.22139306640625,0.43005847930908203,-9.89553451538086,0.5988497138023376
1772594395764657000,4.241656982421875,0.40372225642204285,-9.898528099060059,0.6045359373092651
1772594395784920000,4.261920166015625,0.36810851097106934,-9.894038200378418,0.6090250611305237
1772594395805184000,4.28218408203125,0.35344403982162476,-9.8877534866333,0.5994482636451721
1772594395825448000,4.302447998046875,0.3214215636253357,-9.911097526550293,0.5925649404525757
1772594395845711000,4.322711181640625,0.3438672125339508,-9.908403396606445,0.586579442024231
1772594395865975000,4.34297509765625,0.3447650372982025,-9.900921821594238,0.6006453633308411
1772594395886239000,4.363239013671875,0.35344403982162476,-9.88745403289795,0.6057330369949341
1772594395906502000,4.383501953125,0.339078813791275,-9.881768226623535,0.6171054840087891
1772594395926766000,4.40376611328125,0.3241150677204132,-9.877877235412598,0.6147112846374512
1772594395947030000,4.424030029296875,0.30795419216156006,-9.880870819091797,0.613214910030365
1772594395967294000,4.4442939453125,0.28042086958885193,-9.882367134094238,0.6236895322799683
1772594395987557000,4.46455712890625,0.26665422320365906,-9.8970308303833,0.6293757557868958
1772594396007821000,4.484821044921875,0.243011474609375,-9.926060676574707,0.6177040338516235
1772594396028085000,4.5050849609375,0.2322375625371933,-9.924564361572266,0.6099228858947754
1772594396048348000,4.525347900390625,0.22625206410884857,-9.908702850341797,0.6177040338516235
1772594396068612000,4.545612060546875,0.2091933786869049,-9.892541885375977,0.6186018586158752
1772594396088876000,4.5658759765625,0.19871874153614044,-9.875184059143066,0.6108207106590271
1772594396109139000,4.586138916015625,0.18944120407104492,-9.867103576660156,0.6168062090873718
1772594396129403000,4.60640283203125,0.19482816755771637,-9.864110946655273,0.6063315868377686
1772594396149667000,4.6266669921875,0.19123685359954834,-9.87578296661377,0.603039562702179
1772594396169930000,4.646929931640625,0.19123685359954834,-9.870994567871094,0.603039562702179
1772594396190194000,4.66719384765625,0.1759738177061081,-9.866804122924805,0.595557689666748
1772594396210458000,4.6874580078125,0.1801636815071106,-9.860519409179688,0.5958569645881653
1772594396230721000,4.707720947265625,0.17178396880626678,-9.853636741638184,0.5910685658454895
1772594396250985000,4.72798486328125,0.16549919545650482,-9.849146842956543,0.5988497138023376
1772594396271249000,4.748248779296875,0.1604115068912506,-9.850643157958984,0.6042366623878479
1772594396291512000,4.768511962890625,0.16220717132091522,-9.853935241699219,0.60184246301651
1772594396311776000,4.78877587890625,0.17328034341335297,-9.854534149169922,0.5976526141166687
1772594396332040000,4.8090400390625,0.18046295642852783,-9.844358444213867,0.5988497138023376
1772594396352303000,4.82930322265625,0.16160862147808075,-9.83807373046875,0.6087257862091064
1772594396372567000,4.849567138671875,0.1529296338558197,-9.844059944152832,0.6087257862091064
1772594396392831000,4.8698310546875,0.16819266974925995,-9.865307807922363,0.6045359373092651
1772594396413094000,4.890093994140625,0.19692309200763702,-9.877279281616211,0.6162076592445374
1772594396433358000,4.910358154296875,0.2289455384016037,-9.86231517791748,0.6087257862091064
1772594396453622000,4.9306220703125,0.25438392162323,-9.873088836669922,0.6057330369949341
1772594396473885000,4.950885009765625,0.25258827209472656,-9.86889934539795,0.6039373874664307
1772594396494149000,4.971149169921875,0.24570494890213013,-9.854833602905273,0.6162076592445374
1772594396514413000,4.9914130859375,0.2753331959247589,-9.846453666687012,0.62458735704422
1772594396534676000,5.011676025390625,0.30047231912612915,-9.841964721679688,0.6135141849517822
1772594396554940000,5.03193994140625,0.3025672435760498,-9.838373184204102,0.6168062090873718
1772594396575204000,5.0522041015625,0.31872808933258057,-9.835979461669922,0.6230909824371338
1772594396595467000,5.072467041015625,0.33698388934135437,-9.838672637939453,0.6129156351089478
1772594396615731000,5.09273095703125,0.3513490855693817,-9.841066360473633,0.6189011335372925
1772594396635995000,5.112994873046875,0.3603273630142212,-9.833285331726074,0.6126163601875305
1772594396656258000,5.133258056640625,0.3612251877784729,-9.830891609191895,0.6093243360519409
1772594396676522000,5.15352197265625,0.3696048855781555,-9.83448314666748,0.6147112846374512
1772594396696786000,5.173785888671875,0.3621230125427246,-9.85543155670166,0.6165069341659546
1772594396717049000,5.194049072265625,0.37499183416366577,-9.856629371643066,0.618302583694458
1772594396737313000,5.21431298828125,0.3734954595565796,-9.853636741638184,0.6126163601875305
1772594396757577000,5.234576904296875,0.3761889338493347,-9.840767860412598,0.6117185354232788
1772594396777840000,5.254840087890625,0.38067805767059326,-9.83807373046875,0.6215946078300476
1772594396798104000,5.27510400390625,0.3902548849582672,-9.847352027893066,0.6230909824371338
1772594396818368000,5.295367919921875,0.39384618401527405,-9.844657897949219,0.6200982332229614
1772594396838631000,5.315630859375,0.39534255862236023,-9.852438926696777,0.62458735704422
1772594396858895000,5.33589501953125,0.36332011222839355,-9.88506031036377,0.6281786561012268
1772594396879159000,5.356158935546875,0.3630208373069763,-9.900921821594238,0.6242880821228027
1772594396899422000,5.376421875,0.36002808809280396,-9.903316497802734,0.6197989583015442
1772594396919686000,5.396685791015625,0.37229835987091064,-9.903316497802734,0.6129156351089478
1772594396939950000,5.4169501953125,0.383670836687088,-9.897929191589355,0.5784989595413208
1772594396960213000,5.437212890625,0.38875851035118103,-9.889249801635742,0.5617395639419556
1772594396980477000,5.457476806640625,0.3908534348011017,-9.880870819091797,0.5578489899635315
1772594397000741000,5.4777412109375,0.40282443165779114,-9.886856079101562,0.5614402890205383
1772594397021004000,5.498004150390625,0.41270050406455994,-9.881468772888184,0.5692214369773865
1772594397041268000,5.51826806640625,0.41689038276672363,-9.898228645324707,0.5656301379203796
1772594397061532000,5.538531982421875,0.42287588119506836,-9.902118682861328,0.5602431893348694
1772594397081795000,5.558795166015625,0.4282628297805786,-9.89194393157959,0.5671265125274658
1772594397102059000,5.57905908203125,0.4330512285232544,-9.891644477844238,0.5802946090698242
1772594397122323000,5.599322998046875,0.4372410774230957,-9.877279281616211,0.5826888680458069
1772594397142586000,5.619586181640625,0.43843817710876465,-9.876082420349121,0.591667115688324
1772594397162850000,5.63985009765625,0.414795458316803,-9.865008354187012,0.5913678407669067
1772594397183114000,5.660114013671875,0.38995561003685,-9.876680374145508,0.5910685658454895
1772594397203377000,5.680376953125,0.3737947344779968,-9.90122127532959,0.5850830674171448
1772594397223641000,5.70064111328125,0.3471592366695404,-9.905710220336914,0.5928642153739929
1772594397243905000,5.720905029296875,0.3306991159915924,-9.89553451538086,0.6036381125450134
1772594397264169000,5.7411689453125,0.304063618183136,-9.892541885375977,0.5970540642738342
1772594397284432000,5.761431884765625,0.2968810200691223,-9.88745403289795,0.60184246301651
1772594397304696000,5.781696044921875,0.30526071786880493,-9.8877534866333,0.6126163601875305
1772594397324960000,5.8019599609375,0.32381579279899597,-9.894038200378418,0.6147112846374512
1772594397345223000,5.822222900390625,0.33518823981285095,-9.900622367858887,0.6066308617591858
1772594397365487000,5.842487060546875,0.3447650372982025,-9.916184425354004,0.603039562702179
1772594397385751000,5.8627509765625,0.3510498106479645,-9.948805809020996,0.6117185354232788
1772594397406014000,5.883013916015625,0.3546411395072937,-9.96257209777832,0.6138134598731995
1772594397426278000,5.90327783203125,0.37229835987091064,-9.988908767700195,0.6192004084587097
1772594397446542000,5.9235419921875,0.3663128614425659,-10.032901763916016,0.6350619792938232
1772594397466805000,5.943804931640625,0.3630208373069763,-10.075399398803711,0.6425438523292542
1772594397487069000,5.96406884765625,0.36002808809280396,-10.106822967529297,0.6320692300796509
1772594397507333000,5.9843330078125,0.36481648683547974,-10.094552993774414,0.6054337620735168
1772594397527596000,6.004595947265625,0.3669114112854004,-10.058938980102539,0.5832874178886414
1772594397547860000,6.02485986328125,0.35254621505737305,-9.998785018920898,0.5910685658454895
1772594397568124000,6.0451240234375,0.36002808809280396,-9.959280967712402,0.596754789352417
1772594397588387000,6.065386962890625,0.3743932843208313,-9.914389610290527,0.6272808313369751
1772594397608651000,6.085651123046875,0.39055415987968445,-9.904213905334473,0.6422445774078369
1772594397628915000,6.1059150390625,0.3935469090938568,-9.89314079284668,0.661697506904602
1772594397649178000,6.12617822265625,0.3884592354297638,-9.907206535339355,0.6769605278968811
1772594397669442000,6.146442138671875,0.35913026332855225,-9.894936561584473,0.6634931564331055
1772594397689706000,6.1667060546875,0.34326866269111633,-9.829095840454102,0.6299743056297302
1772594397709969000,6.186968994140625,0.33010056614875793,-9.80216121673584,0.629675030708313
1772594397730233000,6.207233154296875,0.3172317147254944,-9.81024169921875,0.6275801062583923
1772594397750497000,6.2274970703125,0.30376434326171875,-9.809343338012695,0.6572083830833435
1772594397770760000,6.247760009765625,0.31184476613998413,-9.802759170532227,0.6766612529754639
1772594397791024000,6.268024169921875,0.3324947655200958,-9.813833236694336,0.70090252161026
1772594397811288000,6.2882880859375,0.34925416111946106,-9.81832218170166,0.7299322485923767
1772594397831551000,6.308551025390625,0.3693056106567383,-9.794380187988281,0.7469909191131592
1772594397851815000,6.32881494140625,0.3429693877696991,-9.798569679260254,0.768538773059845
1772594397872079000,6.3490791015625,0.3010708689689636,-9.771934509277344,0.7595604658126831
1772594397892342000,6.369342041015625,0.2819172441959381,-9.78061294555664,0.7457938194274902
1772594397912606000,6.38960595703125,0.2579752206802368,-9.82071590423584,0.7694365978240967
1772594397932870000,6.409869873046875,0.2528875470161438,-9.85962200164795,0.7799112200737
1772594397953133000,6.430133056640625,0.23253683745861053,-9.886556625366211,0.796371340751648
1772594397973397000,6.45039697265625,0.2190694510936737,-9.879075050354004,0.8143278360366821
1772594397993661000,6.470660888671875,0.2091933786869049,-9.863811492919922,0.8044517636299133
1772594398013924000,6.490924072265625,0.19602526724338531,-9.865307807922363,0.8242039084434509
1772594398034188000,6.51118798828125,0.18824410438537598,-9.895236015319824,0.8349778652191162
1772594398054452000,6.531451904296875,0.18555063009262085,-9.918878555297852,0.87897127866745
1772594398074715000,6.55171484375,0.18974047899246216,-9.915586471557617,0.8735843300819397
1772594398094979000,6.57197900390625,0.21278467774391174,-9.911097526550293,0.884058952331543
1772594398115243000,6.592242919921875,0.20260931551456451,-9.90241813659668,0.9271546006202698
1772594398135506000,6.612505859375,0.21996727585792542,-9.890447616577148,0.9552865028381348
1772594398155770000,6.63277001953125,0.20111294090747833,-9.854534149169922,0.9463081955909729
1772594398176034000,6.653033935546875,0.21697452664375305,-9.85184097290039,0.9621698260307312
1772594398196297000,6.673296875,0.22266076505184174,-9.85423469543457,0.9929951429367065
1772594398216561000,6.693560791015625,0.2148796021938324,-9.848548889160156,1.0106524229049683
1772594398236825000,6.7138251953125,0.2082955539226532,-9.856329917907715,1.0082582235336304
1772594398257088000,6.734087890625,0.19722236692905426,-9.88386344909668,1.0007762908935547
1772594398277352000,6.75435205078125,0.191835418343544,-9.905710220336914,0.9965864419937134
1772594398297616000,6.774615966796875,0.17477671802043915,-9.924863815307617,0.9911994934082031
1772594398317879000,6.794879150390625,0.1702875941991806,-9.902118682861328,0.9816226959228516
1772594398338143000,6.81514306640625,0.1693897694349289,-9.87817668914795,0.970848798751831
1772594398358407000,6.835406982421875,0.14933833479881287,-9.877877235412598,0.9717466235160828
1772594398378670000,6.855670166015625,0.114023856818676,-9.884162902832031,0.9735422730445862
1772594398398934000,6.87593408203125,0.07870937883853912,-9.873987197875977,0.9675567746162415
1772594398419198000,6.896197998046875,0.054168812930583954,-9.874286651611328,0.9430161714553833
1772594398439461000,6.916461181640625,0.029029695317149162,-9.873088836669922,0.9130886793136597
1772594398459725000,6.93672509765625,-0.0065840547904372215,-9.859023094177246,0.8942343592643738
1772594398479989000,6.956989013671875,-0.02753331884741783,-9.83807373046875,0.851138710975647
1772594398500252000,6.977251953125,-0.05776011571288109,-9.825504302978516,0.7909843921661377
1772594398520516000,6.99751611328125,-0.06823474913835526,-9.794380187988281,0.7484872937202454
1772594398540780000,7.017780029296875,-0.06374561786651611,-9.796773910522461,0.7439981698989868
1772594398561044000,7.0380439453125,-0.07212532311677933,-9.83448314666748,0.761954665184021
1772594398581307000,7.058306884765625,-0.14065934717655182,-10.8720703125,0.7790133953094482
1772594398601571000,7.078571044921875,-1.0776900053024292,-10.89990234375,0.8110358119010925
1772594398621835000,7.0988349609375,-1.01753568649292,-10.87566089630127,0.821809709072113
1772594398642098000,7.119097900390625,-0.9765350222587585,-10.854413032531738,0.8508394360542297
1772594398662362000,7.139362060546875,-0.912190854549408,-10.843339920043945,0.8598176836967468
1772594398682626000,7.1596259765625,-0.14484919607639313,-10.83047103881836,0.8687959313392639
1772594398702889000,7.179888916015625,-0.12030863761901855,-10.834660530090332,0.921169102191925
1772594398723153000,7.20015283203125,-0.09786299616098404,-10.779294967651367,0.9870096445083618
1772594398743417000,7.2204169921875,-0.07062894850969315,-9.84615421295166,1.8644845485687256
1772594398763680000,7.240679931640625,-0.05267243832349777,-8.993220329284668,2.877531051635742
1772594398783944000,7.26094384765625,0,-7.803301811218262,3.843890905380249
1772594398804208000,7.2812080078125,0.0520738884806633,-7.756914138793945,3.881300210952759
1772594398824471000,7.301470947265625,0.05776011571288109,-7.803900241851807,3.8860886096954346
1772594398844735000,7.32173486328125,0.04249707981944084,-8.683769226074219,3.8932712078094482
1772594398864999000,7.3419990234375,0.08499415963888168,-8.7298583984375,3.897461175918579
1772594398885262000,7.362261962890625,0.1613093465566635,-8.803778648376465,3.9357683658599854
1772594398905526000,7.382526123046875,0.14814123511314392,-8.814553260803223,3.976170539855957
1772594398925790000,7.4027900390625,0.11611878126859665,-8.7977933883667,3.9519290924072266
1772594398946053000,7.42305322265625,0.04369417950510979,-8.815450668334961,3.940556764602661
1772594398966317000,7.443317138671875,-0.010474632494151592,-8.822632789611816,3.9956233501434326
1772594398986581000,7.4635810546875,-0.032022446393966675,-8.795698165893555,4.045901775360107
1772594399006844000,7.483843994140625,-0.053270988166332245,-8.825326919555664,4.092588424682617
1772594399027108000,7.504108154296875,-0.06314706802368164,-8.801684379577637,4.146458148956299
1772594399047372000,7.5243720703125,-0.03681085258722305,-7.9987287521362305,4.095282077789307
1772594399067635000,7.544635009765625,-0.020949264988303185,-7.999027729034424,4.096778392791748
1772594399087899000,7.56489892578125,-0.011971008032560349,-8.087613105773926,4.147655010223389
1772594399108163000,7.5851630859375,-0.03711012750864029,-9.31613826751709,4.226364612579346
1772594399128426000,7.605426025390625,-0.0769137293100357,-9.362525939941406,4.250606060028076
1772594399148690000,7.62568994140625,-0.08529343456029892,-9.349357604980469,4.251204490661621
1772594399168954000,7.6459541015625,-0.08559270948171616,-9.303568840026855,4.190152168273926
1772594399189217000,7.666217041015625,-0.054168812930583954,-9.329306602478027,4.194641590118408
1772594399209481000,7.68648095703125,-0.07631517946720123,-9.383774757385254,4.235941410064697
1772594399229745000,7.706744873046875,-0.08768763393163681,-9.40173053741455,4.241328239440918
1772594399250008000,7.727008056640625,-0.0727238729596138,-9.412505149841309,4.254795551300049
1772594399270272000,7.74727197265625,-0.08259996026754379,-9.42327880859375,4.269759654998779
1772594399290536000,7.767535888671875,-0.07032967358827591,-9.428366661071777,4.326920986175537
1772594399310799000,7.787799072265625,-0.046088382601737976,-9.466374397277832,4.390068054199219
1772594399331063000,7.80806298828125,-0.023343466222286224,-9.499893188476562,4.451419353485107
1772594399351327000,7.828326904296875,-0.0017956512747332454,-10.945392608642578,5.166388034820557
1772594399371590000,7.84858984375,-0.002992752008140087,-11.982680320739746,5.164592266082764
1772594399391854000,7.86885400390625,-0.006284779403358698,-12.907739639282227,5.159803867340088
1772594399412118000,7.889117919921875,0.0017956512747332454,-12.99812126159668,5.164592266082764
1772594399432381000,7.909380859375,0.028730420395731926,-13.903727531433105,5.1780595779418945
1772594399452645000,7.92964501953125,0.08768763393163681,-13.956399917602539,5.202001571655273
1772594399472909000,7.949908935546875,0.89573073387146,-13.988123893737793,5.218461990356445
1772594399493172000,7.970171875,0.9088988304138184,-13.958495140075684,5.217564105987549
1772594399513436000,7.990435791015625,0.9430161714553833,-13.889362335205078,5.162796497344971
1772594399533700000,8.0107001953125,1.8031331300735474,-13.071443557739258,4.133289813995361
1772594399553963000,8.030962890625,2.754229784011841,-13.083115577697754,4.101566791534424
1772594399574227000,8.05122705078125,3.547309160232544,-13.086108207702637,4.118924617767334
1772594399594491000,8.071490966796874,3.565864086151123,-12.230779647827148,4.996998310089111
1772594399614754000,8.091754150390624,2.381632089614868,-10.93461799621582,5.0795979499816895
1772594399635018000,8.11201806640625,0.9259575009346008,-8.996811866760254,5.954977989196777
1772594399655282000,8.132281982421874,0.011372458189725876,-7.34391450881958,7.560290336608887
1772594399675545000,8.152545166015624,-0.03381809964776039,-5.925050735473633,8.332719802856445
1772594399695809000,8.17280908203125,-0.048482585698366165,-4.718073844909668,8.339303970336914
1772594399716073000,8.193072998046874,0.011971008032560349,-3.8609495162963867,8.265981674194336
1772594399736336000,8.2133359375,0.855029284954071,-3.8091750144958496,7.29962158203125
1772594399756600000,8.23360009765625,1.7310078144073486,-3.741239547729492,6.360196590423584
1772594399776864000,8.253864013671874,2.612074136734009,-3.6745009422302246,4.519654273986816
1772594399797127000,8.274126953125,4.279336452484131,-3.6209309101104736,3.2387564182281494
1772594399817391000,8.29439111328125,5.4321441650390625,-3.6074633598327637,2.0039467811584473
1772594399837655000,8.314655029296874,6.860285758972168,-3.6756980419158936,0.7520785927772522
1772594399857919000,8.3349189453125,7.710526466369629,-4.384980201721191,0.6721721291542053
1772594399878182000,8.355181884765624,7.725490570068359,-4.383184909820557,-0.038307227194309235
1772594399898446000,8.375446044921874,7.7341694831848145,-4.343979835510254,0.010474632494151592
1772594399918710000,8.3957099609375,7.742249965667725,-3.481468439102173,0.9612720012664795
1772594399938973000,8.415972900390624,7.809586524963379,-3.443460702896118,1.713350534439087
1772594399959237000,8.436237060546874,8.561366081237793,-3.41024112701416,1.754650592803955
1772594399979501000,8.4565009765625,8.549694061279297,-2.65097975730896,1.7854759693145752
1772594399999764000,8.476763916015624,8.473379135131836,-2.5564088821411133,1.787870168685913
1772594400020028000,8.49702783203125,7.582736015319824,-1.315314531326294,1.7929577827453613
1772594400040292000,8.5172919921875,7.542633056640625,-0.5832874178886414,1.8246809244155884
1772594400060555000,8.537554931640624,7.568670272827148,-0.5249287486076355,1.8863316774368286
1772594400080819000,8.55781884765625,8.36953067779541,-0.4728548228740692,1.9575591087341309
1772594400101083000,8.578082763671874,9.403226852416992,0.3477577865123749,2.6785130500793457
1772594400121346000,8.598345947265624,9.397541046142578,1.212363839149475,2.649184226989746
1772594400141610000,8.61860986328125,8.385092735290527,1.2883797883987427,2.559401512145996
1772594400161874000,8.6388740234375,8.321946144104004,2.1371243000030518,1.6777368783950806
1772594400182137000,8.65913720703125,8.267477989196777,2.2293009757995605,1.6319477558135986
1772594400202401000,8.679401123046874,8.248324394226074,3.096301317214966,1.633743405342102
1772594400222665000,8.6996650390625,8.230966567993164,3.160346269607544,1.6549919843673706
1772594400242928000,8.71992822265625,8.216301918029785,3.2393548488616943,1.6774375438690186
1772594400263192000,8.740192138671874,8.211214065551758,4.075230598449707,1.6944962739944458
1772594400283456000,8.7604560546875,8.228571891784668,4.090493679046631,1.7127519845962524
1772594400303719000,8.780718994140624,8.276156425476074,4.0976762771606445,1.6843209266662598
1772594400323983000,8.800983154296874,8.295310020446777,4.146158695220947,1.6708534955978394
1772594400344247000,8.8212470703125,8.320150375366211,4.175786972045898,1.623268723487854
1772594400364510000,8.841510009765624,8.292317390441895,4.231452465057373,1.5652093887329102
1772594400384774000,8.86177392578125,8.208819389343262,5.0592474937438965,1.5424644947052002
1772594400405038000,8.8820380859375,8.1941556930542,5.070620059967041,1.5119383335113525
1772594400425301000,8.902301025390624,8.97765827178955,5.082890033721924,1.514033317565918
1772594400445565000,8.92256494140625,9.040804862976074,5.062240123748779,1.4739304780960083
1772594400465829000,8.9428291015625,9.052177429199219,5.063138008117676,1.426345705986023
1772594400486092000,8.963092041015624,9.043498039245605,5.055356979370117,1.3799580335617065
1772594400506356000,8.98335595703125,9.05487060546875,5.033509731292725,1.338059425354004
1772594400526620000,9.003619873046874,9.088688850402832,5.016450881958008,1.2728174924850464
1772594400546883000,9.023883056640624,9.10993766784668,4.989217281341553,1.2363059520721436
1772594400567147000,9.04414697265625,9.157522201538086,4.928763389587402,1.2192472219467163
1772594400587411000,9.064410888671874,9.213187217712402,4.11174201965332,1.2189478874206543
1772594400607674000,9.084674072265624,9.252093315124512,4.104559421539307,1.2189478874206543
1772594400627938000,9.10493798828125,9.288305282592773,4.089895248413086,1.2246341705322266
1772594400648202000,9.125201904296874,9.323919296264648,4.07014274597168,1.2198457717895508
1772594400668465000,9.14546484375,9.355043411254883,4.064157485961914,1.1997942924499512
1772594400688729000,9.16572900390625,9.34965705871582,4.046799659729004,1.1851298809051514
1772594400708993000,9.185992919921874,9.312846183776855,4.04889440536499,1.1890203952789307
1772594400729256000,9.206255859375,9.288005828857422,4.057573318481445,1.1994950771331787
1772594400749520000,9.226519775390624,9.262567520141602,4.055478572845459,1.2015899419784546
1772594400769784000,9.2467841796875,9.239523887634277,4.035127639770508,1.1991957426071167
1772594400790047000,9.267046875,9.241618156433105,4.040215492248535,1.1713632345199585
1772594400810311000,9.287310791015624,9.256282806396484,4.036324977874756,1.1366472244262695
1772594400830575000,9.3075751953125,9.267355918884277,4.052485466003418,1.115697979927063
1772594400850838000,9.327838134765624,9.262567520141602,4.054879665374756,1.1064205169677734
1772594400871102000,9.34810205078125,9.224559783935547,4.061763286590576,1.061229944229126
1772594400891366000,9.368365966796874,8.482955932617188,4.094084739685059,0.22026655077934265
1772594400911629000,9.388629150390624,8.447341918945312,4.144961833953857,0.2115875780582428
1772594400931893000,9.40889306640625,8.421903610229492,4.183269023895264,0.24570494890213013
1772594400952157000,9.429156982421874,8.352472305297852,4.251204490661621,0.29299044609069824
1772594400972420000,9.449420166015624,7.572859764099121,5.029319763183594,0.34685996174812317
1772594400992684000,9.46968408203125,7.638401031494141,5.011064052581787,0.37140053510665894
1772594401012948000,9.489947998046874,8.905532836914062,5.000290393829346,0.29897594451904297
1772594401033211000,9.5102109375,8.9773588180542,4.965275287628174,-0.49470192193984985
1772594401053475000,9.53047509765625,8.992621421813965,4.954201698303223,-0.5377975702285767
1772594401073739000,9.550739013671874,8.896254539489746,4.937143325805664,-0.5512649416923523
1772594401094002000,9.571001953125,7.714118003845215,4.947618007659912,-0.5303156971931458
1772594401114266000,9.59126611328125,7.660248279571533,4.978443145751953,-0.4779425263404846
1772594401134530000,9.611530029296874,7.6746134757995605,4.964377403259277,0.279223769903183
1772594401154794000,9.6317939453125,7.721599578857422,4.958092212677002,0.3148375153541565
1772594401175057000,9.652056884765624,8.443750381469727,4.914099216461182,0.3860650360584259
1772594401195321000,9.672321044921874,8.530540466308594,4.856937408447266,0.4324526786804199
1772594401215585000,9.6925849609375,9.39365005493164,4.8033671379089355,0.4578910768032074
1772594401235848000,9.712847900390624,9.38437271118164,4.737227439880371,0.4827309250831604
1772594401256112000,9.733112060546874,9.352350234985352,4.687847137451172,0.5009866952896118
1772594401276376000,9.7533759765625,9.319130897521973,4.642356872558594,0.5674257874488831
1772594401296639000,9.773638916015624,9.26915168762207,4.62470006942749,0.6311714053153992
1772594401316903000,9.79390283203125,9.213187217712402,4.6163201332092285,0.6557120084762573
1772594401337167000,9.8141669921875,9.156923294067383,4.575918197631836,0.6862380504608154
1772594401357430000,9.834429931640624,9.178771018981934,4.581305027008057,0.6841431260108948
1772594401377694000,9.85469384765625,9.193136215209961,4.577115058898926,0.6485294103622437
1772594401397958000,9.8749580078125,9.170391082763672,4.5825018882751465,0.6165069341659546
1772594401418221000,9.895220947265624,9.131185531616211,4.568436145782471,0.6192004084587097
1772594401438485000,9.915485107421874,9.065345764160156,4.57112979888916,0.5943605899810791
