time,seconds_elapsed,z,y,x
1772402189443349800,0.234349853515625,6.769050121307373,-4.73205041885376,3.283950090408325
1772402189503607800,0.29460791015625,6.60105037689209,-4.372950077056885,3.076050043106079
1772402189523664000,0.314663818359375,6.793050289154053,-4.321950435638428,3.0300002098083496
1772402189543720000,0.334719970703125,7.258950233459473,-4.534950256347656,2.92995023727417
1772402189563776000,0.35477587890625,7.642050266265869,-4.408950328826904,2.949000120162964
1772402189583832000,0.37483203125,7.468050479888916,-4.485000133514404,2.707050085067749
1772402189603887900,0.394887939453125,6.9310503005981445,-4.581000328063965,2.367000102996826
1772402189623944000,0.41494384765625,7.486950397491455,-4.3969502449035645,2.467050075531006
1772402189644000000,0.435,9.160050392150879,-4.282050132751465,2.866950035095215
1772402189664055800,0.455055908203125,10.032000541687012,-4.312950134277344,3.52305006980896
1772402189684112000,0.47511181640625,9.685050010681152,-3.9780001640319824,4.263000011444092
1772402189704168000,0.49516796875,8.743950843811035,-3.610950231552124,4.431000232696533
1772402189724224000,0.51522412109375,8.563950538635254,-3.553950071334839,4.087950229644775
1772402189744279800,0.53527978515625,9.880950927734375,-3.7330501079559326,3.3700501918792725
1772402189764335900,0.5553359375,10.719000816345215,-4.638000011444092,2.8120501041412354
1772402189784392000,0.575391845703125,8.368050575256348,-6.184950351715088,4.102950096130371
1772402189804447700,0.59544775390625,7.018050193786621,-7.564050197601318,8.047950744628906
1772402189824503800,0.61550390625,9.151050567626953,-10.006050109863281,10.426050186157227
1772402189844560000,0.635559814453125,11.4660005569458,-12.628050804138184,7.006950378417969
1772402189864616000,0.655615966796875,7.549050331115723,-11.850000381469727,2.1750001907348633
1772402189884671700,0.675671630859375,1.4100000858306885,-11.254050254821777,-0.28005000948905945
1772402189904727800,0.695727783203125,-3.078000068664551,-10.564050674438477,-1.683000087738037
1772402189924784000,0.7157841796875,-4.701000213623047,-9.79800033569336,-1.1830500364303589
1772402189944840000,0.73583984375,-1.88100004196167,-9.412050247192383,0.6619500517845154
1772402189964895700,0.755895751953125,2.562000036239624,-8.802000045776367,2.4240000247955322
1772402189984952000,0.7759521484375,6.7950005531311035,-8.22705078125,2.7619500160217285
1772402190005008100,0.796008056640625,9.53895092010498,-8.050050735473633,1.6320000886917114
1772402190025064000,0.81606396484375,10.065000534057617,-8.008950233459473,0.595050036907196
1772402190045120000,0.8361201171875,9.096000671386719,-7.698000431060791,1.2130500078201294
1772402190065176000,0.856176025390625,7.91295051574707,-7.2270002365112305,2.307000160217285
1772402190085232000,0.876232177734375,6.313950061798096,-7.1260504722595215,2.8819501399993896
1772402190105288200,0.8962880859375,5.3680500984191895,-7.0489501953125,2.329050064086914
1772402190125344300,0.91634423828125,4.930050373077393,-7.191000461578369,0.781950056552887
1772402190145399800,0.93639990234375,4.51800012588501,-7.344000339508057,-0.598050057888031
1772402190165456000,0.956455810546875,4.6620001792907715,-7.183050155639648,-1.0870500802993774
1772402190185512000,0.976511962890625,5.55495023727417,-7.0249505043029785,-1.2310500144958496
1772402190205568000,0.996568115234375,6.505050182342529,-6.59505033493042,-1.3020000457763672
1772402190225623800,1.016623779296875,7.293000221252441,-6.070050239562988,-0.5269500017166138
1772402190245680000,1.03668017578125,8.112000465393066,-5.910000324249268,1.0360500812530518
1772402190265736000,1.05673583984375,9.208050727844238,-5.800050258636475,1.9720500707626343
1772402190285791700,1.076791748046875,9.814050674438477,-5.82105016708374,1.7299500703811646
1772402190305847800,1.096847900390625,9.223050117492676,-6.064950466156006,1.3690500259399414
1772402190325904100,1.116904052734375,8.716950416564941,-6.6660003662109375,1.2940500974655151
1772402190345960000,1.1369599609375,8.655000686645508,-7.272000312805176,1.651050090789795
1772402190366015700,1.157015625,8.974050521850586,-7.4920501708984375,1.7370001077651978
1772402190386072000,1.177072021484375,9.402000427246094,-7.684050559997559,1.324950098991394
1772402190406128000,1.197128173828125,10.93005084991455,-7.957050323486328,1.1290500164031982
1772402190426184000,1.217183837890625,11.914050102233887,-9.682950019836426,2.6710500717163086
1772402190446240000,1.237239990234375,10.777050971984863,-12.123000144958496,4.660950183868408
1772402190466296000,1.257296142578125,8.81100082397461,-15.690000534057617,5.982000350952148
1772402190486352000,1.277351806640625,7.5420002937316895,-16.07295036315918,4.641000270843506
1772402190506408000,1.297407958984375,6.735000133514404,-15.055951118469238,3.1810500621795654
1772402190526464000,1.317464111328125,4.789050102233887,-14.047950744628906,2.668950080871582
1772402190546520000,1.33752001953125,4.279050350189209,-12.838950157165527,3.655050277709961
1772402190566576000,1.357576171875,6.430950164794922,-10.618950843811035,5.187000274658203
1772402190586632200,1.377632080078125,8.932950019836426,-8.014050483703613,5.74500036239624
1772402190606688000,1.39768798828125,10.105950355529785,-6.448050498962402,4.371000289916992
1772402190626744000,1.417744140625,7.686000347137451,-5.5219502449035645,2.187000036239624
1772402190646800100,1.437800048828125,3.826050281524658,-5.484000205993652,0.034950003027915955
1772402190666856000,1.45785595703125,0.4069500267505646,-5.266050338745117,-0.843000054359436
1772402190686912000,1.477912109375,-1.1890500783920288,-4.8919501304626465,-0.775950014591217
1772402190706968000,1.497968017578125,-1.1530500650405884,-4.543050289154053,-0.23205001652240753
1772402190727024000,1.518024169921875,-0.6600000262260437,-3.961050271987915,0.40800002217292786
1772402190747080200,1.538080078125,-0.47805002331733704,-3.82200026512146,0.21495001018047333
1772402190767136000,1.558135986328125,-0.06795000284910202,-3.492000102996826,-0.18405000865459442
1772402190787192000,1.578192138671875,0.8929500579833984,-2.9389500617980957,-0.26295000314712524
1772402190807248100,1.598248046875,2.9260501861572266,-2.2870500087738037,0.7249500155448914
1772402190827304200,1.61830419921875,5.707950115203857,-1.927950143814087,2.338050127029419
1772402190847360000,1.638360107421875,8.317950248718262,-2.308950185775757,3.6670501232147217
1772402190867416000,1.658416015625,10.867050170898438,-2.8210501670837402,4.603050231933594
1772402190887472000,1.67847216796875,15.333001136779785,-4.333950042724609,5.287950038909912
1772402190907528000,1.69852783203125,22.55805015563965,-6.196950435638428,4.303950309753418
1772402190927584000,1.718583984375,25.318950653076172,-7.108950138092041,3.246000051498413
1772402190947640000,1.73864013671875,21.13905143737793,-7.513950347900391,3.055950164794922
1772402190967696100,1.758696044921875,13.659000396728516,-10.741050720214844,3.6480002403259277
1772402190987752200,1.778752197265625,7.843950271606445,-13.995000839233398,2.91795015335083
1772402191007808000,1.79880810546875,5.7370500564575195,-14.428050994873047,-0.17205001413822174
1772402191027864000,1.818864013671875,3.4810502529144287,-12.508050918579102,-0.20100000500679016
1772402191047920000,1.838920166015625,-0.043950002640485764,-10.720050811767578,0.8490000367164612
1772402191067976200,1.85897607421875,-3.135000228881836,-10.557000160217285,2.2450501918792725
1772402191088032000,1.879031982421875,-4.392000198364258,-10.179000854492188,1.7280000448226929
1772402191108088000,1.899088134765625,-2.556000232696533,-9.882000923156738,1.0639500617980957
1772402191128144100,1.91914404296875,1.2600001096725464,-9.187050819396973,1.8259501457214355
1772402191148200200,1.9392001953125,4.734000205993652,-8.51205062866211,2.6929500102996826
1772402191168256000,1.959256103515625,8.145000457763672,-7.485000133514404,2.9850001335144043
1772402191188312000,1.97931201171875,10.852950096130371,-6.376950263977051,2.92995023727417
1772402191208368000,1.9993681640625,11.1739501953125,-5.697000503540039,2.877000093460083
1772402191228424200,2.019424072265625,9.0600004196167,-5.19195032119751,2.8309500217437744
1772402191248480300,2.039480224609375,6.843000411987305,-4.9830002784729,2.680950164794922
1772402191268536000,2.0595361328125,5.392050266265869,-5.151000022888184,1.3729500770568848
1772402191288592100,2.079592041015625,4.188000202178955,-5.272950172424316,0.4990500211715698
1772402191308648200,2.099648193359375,3.169950246810913,-5.16795015335083,0.10005000233650208
1772402191328704300,2.119704345703125,2.8950002193450928,-5.3520002365112305,-0.6630000472068787
1772402191348760300,2.13976025390625,4.815000057220459,-5.608050346374512,-1.276050090789795
1772402191368816000,2.159816162109375,7.947000503540039,-5.259000301361084,-0.6970500349998474
1772402191388872200,2.1798720703125,10.73805046081543,-4.762950420379639,1.1269500255584717
1772402191408928300,2.19992822265625,12.60300064086914,-4.870950222015381,2.3479502201080322
1772402191428984300,2.219984375,13.68795108795166,-5.524050235748291,2.605950117111206
1772402191449040400,2.240040283203125,13.915050506591797,-6.448050498962402,1.4209500551223755
1772402191469096200,2.26009619140625,13.345050811767578,-7.348950386047363,0.8110500574111938
1772402191489152300,2.28015234375,12.069000244140625,-7.804050445556641,1.2559500932693481
1772402191509208300,2.300208251953125,10.693050384521484,-7.6620001792907715,1.8019500970840454
1772402191529264400,2.320264404296875,10.609050750732422,-6.9370503425598145,2.5320000648498535
1772402191549320000,2.34031982421875,11.16195011138916,-6.372000217437744,3.5659501552581787
1772402191569376000,2.3603759765625,11.109000205993652,-7.377000331878662,4.330049991607666
1772402191589432000,2.38043212890625,10.14900016784668,-8.755949974060059,3.9090001583099365
1772402191609488100,2.400488037109375,8.467950820922852,-10.984950065612793,4.323000431060791
1772402191629544000,2.4205439453125,5.9070000648498535,-13.425000190734863,3.8680500984191895
1772402191649600000,2.44060009765625,5.2819504737854,-13.204950332641602,2.089050054550171
1772402191669656300,2.46065625,5.7300004959106445,-12.544050216674805,0.286050021648407
1772402191689712400,2.48071240234375,7.710000514984131,-11.596050262451172,-0.5650500059127808
1772402191709768200,2.500768310546875,9.819000244140625,-10.522950172424316,0.5110500454902649
1772402191729824000,2.520823974609375,10.755000114440918,-8.733000755310059,2.2450501918792725
1772402191749880000,2.540880126953125,10.234950065612793,-6.865050315856934,3.1330502033233643
1772402191769936100,2.56093603515625,8.767950057983398,-5.881050109863281,2.199000120162964
1772402191789992200,2.5809921875,7.108950138092041,-5.361000061035156,0.2740500271320343
1772402191810048300,2.60104833984375,5.004000186920166,-4.903950214385986,-1.4050500392913818
1772402191830104000,2.62110400390625,2.5690500736236572,-4.819950103759766,-1.5709500312805176
1772402191850160000,2.64116015625,0.32100000977516174,-4.804050445556641,-1.264050006866455
1772402191870216200,2.66121630859375,-1.5889500379562378,-4.579050064086914,-1.180050015449524
1772402191890272000,2.68127197265625,-2.7430500984191895,-4.537950038909912,-0.7180500626564026
1772402191910328000,2.701328125,-2.4379501342773438,-4.605000019073486,-0.3520500063896179
1772402191930384100,2.721384033203125,-0.19995000958442688,-4.447050094604492,0.5760000348091125
1772402191950440200,2.741440185546875,2.517000198364258,-3.879000186920166,1.495050072669983
1772402191970496000,2.76149609375,4.951050281524658,-3.451050281524658,3.322050094604492
1772402191990552000,2.781552001953125,7.293000221252441,-2.814000129699707,6.334050178527832
1772402192010608000,2.801608154296875,8.631000518798828,-2.7180001735687256,8.356950759887695
1772402192030664200,2.821664306640625,10.381050109863281,-2.6419501304626465,7.663050174713135
1772402192050720000,2.841719970703125,17.248050689697266,-3.6450002193450928,7.25100040435791
1772402192070776000,2.861776123046875,23.892000198364258,-4.107000350952148,6.0520501136779785
1772402192090832100,2.88183203125,24.517051696777344,-3.765000104904175,5.299950122833252
1772402192110888200,2.90188818359375,20.575950622558594,-4.867950439453125,5.676000118255615
1772402192130944000,2.921944091796875,12.462000846862793,-9.355050086975098,5.014950275421143
1772402192151000000,2.942,4.888950347900391,-13.156950950622559,2.1130499839782715
1772402192171056000,2.96205615234375,0.6370500326156616,-13.465950965881348,-0.9960000514984131
1772402192191112000,2.98211181640625,0.1579500138759613,-12.508050918579102,-0.7969500422477722
1772402192211168000,3.00216796875,0.13395000994205475,-11.893050193786621,0.20295001566410065
1772402192231224000,3.02222412109375,-1.1980500221252441,-11.281950950622559,0.322050005197525
1772402192251280100,3.042280029296875,-2.580000162124634,-10.653000831604004,0.25995001196861267
1772402192271336000,3.0623359375,-1.287000060081482,-9.705000877380371,1.3830000162124634
1772402192291392000,3.08239208984375,0.5410500168800354,-8.656050682067871,2.8819501399993896
1772402192311447800,3.10244775390625,3.061950206756592,-7.44195032119751,4.13100004196167
1772402192331503900,3.12250390625,6.112950325012207,-6.220950126647949,5.118000030517578
1772402192351560000,3.142559814453125,8.404050827026367,-5.665950298309326,4.627050399780273
1772402192371615700,3.16261572265625,9.682050704956055,-5.445000171661377,3.4489500522613525
1772402192391671800,3.182671875,9.313950538635254,-5.340000152587891,2.2860000133514404
1772402192411727600,3.2027275390625,8.326950073242188,-5.63700008392334,1.1670000553131104
1772402192431783700,3.22278369140625,7.324050426483154,-6.043950080871582,-0.2370000183582306
1772402192451839700,3.24283984375,5.940000057220459,-6.48900032043457,-1.582050085067749
1772402192471895800,3.262895751953125,5.152950286865234,-6.8460001945495605,-2.8249502182006836
1772402192491951900,3.282951904296875,4.336050033569336,-7.083000183105469,-3.1909501552581787
1772402192512007700,3.303007568359375,4.815000057220459,-7.540050506591797,-2.1040501594543457
1772402192532063700,3.323063720703125,7.200000286102295,-8.122050285339355,-0.5770500302314758
1772402192552119800,3.343119873046875,10.053000450134277,-8.9170503616333,1.141050100326538
1772402192572175600,3.363175537109375,11.928000450134277,-9.432000160217285,2.628000020980835
1772402192592231700,3.383231689453125,13.225950241088867,-9.733050346374512,3.8680500984191895
1772402192612287700,3.403287841796875,13.945950508117676,-9.685050010681152,5.542050361633301
1772402192632343800,3.42334375,13.152000427246094,-9.79800033569336,5.9320502281188965
1772402192652399400,3.4433994140625,10.73805046081543,-11.008950233459473,5.605950355529785
1772402192672455700,3.46345556640625,8.598000526428223,-12.982050895690918,4.572000026702881
1772402192692511700,3.48351171875,8.251049995422363,-13.819951057434082,3.636000156402588
1772402192712567600,3.503567626953125,8.701050758361816,-12.523050308227539,2.0149500370025635
1772402192732623600,3.52362353515625,9.534000396728516,-11.020950317382812,1.90500009059906
1772402192752679400,3.543679443359375,10.434000968933105,-11.320950508117676,4.159950256347656
1772402192772735500,3.563735595703125,10.276050567626953,-12.352951049804688,6.577950477600098
1772402192792791600,3.58379150390625,6.4860005378723145,-13.012950897216797,5.946000099182129
1772402192812847400,3.603847412109375,2.2990500926971436,-12.147000312805176,3.406050205230713
1772402192832903400,3.6239033203125,1.6260000467300415,-10.725000381469727,2.2450501918792725
1772402192852959200,3.643959228515625,3.3139500617980957,-8.863950729370117,2.3430001735687256
1772402192873015300,3.664015380859375,4.687950134277344,-7.710000514984131,3.2700002193450928
1772402192893071400,3.6840712890625,5.818050384521484,-6.19005012512207,2.836050033569336
1772402192913127200,3.704127197265625,5.512050151824951,-4.918950080871582,2.01705002784729
1772402192933183200,3.724183349609375,3.6180002689361572,-4.40595006942749,1.3210500478744507
1772402192953239000,3.744239013671875,1.321950078010559,-3.765000104904175,0.41100001335144043
1772402192973295000,3.764295166015625,-0.46995002031326294,-3.750000238418579,0.4759500324726105
1772402192993351200,3.78435107421875,-1.4710500240325928,-3.82200026512146,0.8110500574111938
1772402193013407200,3.8044072265625,-1.5840001106262207,-4.051949977874756,0.9739500284194946
1772402193033463000,3.824463134765625,-1.1599500179290771,-4.1670002937316895,0.8989500403404236
1772402193053519000,3.84451904296875,-0.1660500019788742,-4.4730000495910645,0.7150500416755676
1772402193073575200,3.8645751953125,1.4680501222610474,-4.744050025939941,0.6859500408172607
1772402193093631200,3.88463134765625,3.2280001640319824,-4.903950214385986,1.1650500297546387
1772402193113687000,3.90468701171875,5.350950241088867,-4.521000385284424,2.341050148010254
1772402193133742800,3.924742919921875,8.332050323486328,-4.042050361633301,5.247000217437744
1772402193153799000,3.944798828125,13.561050415039062,-3.9630002975463867,10.450050354003906
1772402193173855000,3.96485498046875,22.927051544189453,-5.107950210571289,10.938000679016113
1772402193193910800,3.984910888671875,23.703001022338867,-5.236950397491455,6.496950149536133
1772402193213966800,4.004966796875,20.137950897216797,-6.130050182342529,4.4670000076293945
1772402193234023000,4.02502294921875,15.76395034790039,-7.974000453948975,4.090950012207031
1772402193254079000,4.045078857421875,8.788949966430664,-11.407050132751465,5.095950126647949
1772402193274134800,4.065134765625,2.7870001792907715,-13.758000373840332,3.705000162124634
1772402193294190600,4.085190673828125,-0.33195000886917114,-13.486950874328613,2.1850500106811523
1772402193314246700,4.10524658203125,-2.3809502124786377,-12.594000816345215,0.4230000078678131
1772402193334302700,4.125302734375,-3.5329501628875732,-12.733050346374512,0.16200000047683716
1772402193354358500,4.145358642578125,-3.6090002059936523,-12.457950592041016,-0.34905001521110535
1772402193374414600,4.16541455078125,-2.533950090408325,-11.73495101928711,-0.037950001657009125
1772402193394470700,4.185470703125,-0.1980000138282776,-10.759950637817383,1.4190000295639038
1772402193414526500,4.2055263671875,2.1310501098632812,-9.52500057220459,2.647050142288208
1772402193434582500,4.22558251953125,4.9710001945495605,-7.885050296783447,3.0109500885009766
1772402193454638600,4.245638671875,7.537050247192383,-6.547050476074219,3.3889501094818115
1772402193474694400,4.2656943359375,8.794050216674805,-5.53095006942749,3.598050117492676
1772402193494750200,4.285750244140625,9.244050025939941,-4.375050067901611,3.693000078201294
1772402193514806300,4.30580615234375,8.575950622558594,-3.8080501556396484,3.564000129699707
1772402193534862300,4.3258623046875,7.25700044631958,-4.035000324249268,3.0180001258850098
1772402193554918100,4.345918212890625,5.8470001220703125,-4.447050094604492,1.9140000343322754
1772402193574974200,4.36597412109375,4.462950229644775,-5.232000350952148,0.6720000505447388
1772402193595030300,4.3860302734375,3.5749502182006836,-6.453000068664551,-1.3669500350952148
1772402193615086300,4.40608642578125,3.2659502029418945,-7.555050373077393,-2.16195011138916
1772402193635142000,4.426141845703125,4.377000331878662,-8.41200065612793,-1.336050033569336
1772402193655198000,4.446197998046875,6.97005033493042,-9.420000076293945,-0.07200000435113907
1772402193675254000,4.46625390625,9.2989501953125,-10.095000267028809,1.9120501279830933
1772402193695310000,4.48631005859375,10.67805004119873,-10.897050857543945,5.197050094604492
1772402193715366000,4.506365966796875,14.329950332641602,-11.12700080871582,7.318050384521484
1772402193735421700,4.526421630859375,15.52695083618164,-10.744050979614258,7.324950218200684
1772402193755477800,4.546477783203125,13.434000968933105,-11.368950843811035,6.3319501876831055
1772402193775533600,4.566533447265625,11.169000625610352,-11.254050254821777,4.531050205230713
1772402193795589600,4.586589599609375,9.283050537109375,-12.742950439453125,3.850950241088867
1772402193815645400,4.6066455078125,7.996950149536133,-13.305000305175781,2.719050168991089
1772402193835701500,4.626701416015625,7.783950328826904,-11.7610502243042,2.197050094604492
1772402193855757600,4.646757568359375,8.22195053100586,-10.717050552368164,2.986950159072876
1772402193875813400,4.6668134765625,7.903050422668457,-11.610000610351562,3.7680001258850098
1772402193895869200,4.686869140625,5.602950096130371,-13.94205093383789,3.847050189971924
1772402193915925200,4.70692529296875,1.8840000629425049,-14.93595027923584,2.3329501152038574
1772402193935981300,4.726981201171875,0.5959500074386597,-13.993050575256348,0.7960500121116638
1772402193956037000,4.747037109375,3.0859501361846924,-12.373950958251953,1.4980500936508179
1772402193976093000,4.767093017578125,5.44005012512207,-10.59000015258789,3.712050199508667
1772402193996149000,4.78714892578125,6.808950424194336,-8.66100025177002,4.612950325012207
1772402194016205000,4.807205078125,6.88800048828125,-6.694950103759766,3.511050224304199
1772402194036261000,4.82726123046875,5.536050319671631,-5.5219502449035645,1.9720500707626343
1772402194056317000,4.84731689453125,3.343050241470337,-4.855950355529785,0.8250000476837158
1772402194076373000,4.867373046875,1.5640500783920288,-4.40595006942749,-0.43995001912117004
1772402194096429000,4.887428955078125,0.1489500105381012,-3.9030001163482666,-0.9550500512123108
1772402194116484900,4.90748486328125,-1.495050072669983,-4.183950424194336,-0.6319500207901001
1772402194136540700,4.927540771484375,-2.6610000133514404,-4.5329999923706055,-0.17205001413822174
1772402194156596700,4.9475966796875,-2.854950189590454,-4.528050422668457,0.3270000219345093
1772402194176652800,4.96765283203125,-1.5220500230789185,-4.159950256347656,1.1989500522613525
1772402194196708600,4.98770849609375,-0.6480000019073486,-3.7549502849578857,1.3090500831604004
1772402194216764400,5.007764404296875,0.2370000183582306,-3.879000186920166,1.8690000772476196
1772402194236820500,5.027820556640625,2.6479501724243164,-4.330049991607666,3.6570000648498535
1772402194256876300,5.047876220703125,6.3349504470825195,-4.6720499992370605,6.613950252532959
1772402194276932400,5.067932373046875,11.50200080871582,-5.0119500160217285,11.09595012664795
1772402194296988200,5.08798828125,21.154951095581055,-7.63800048828125,13.003951072692871
1772402194317044200,5.108044189453125,23.917951583862305,-6.409950256347656,8.838000297546387
1772402194337100300,5.128100341796875,20.068050384521484,-7.294050216674805,6.541950225830078
1772402194357156000,5.148156005859375,19.57305145263672,-11.421000480651855,8.25195026397705
1772402194377212200,5.168212158203125,18.37605094909668,-16.480051040649414,5.187000274658203
1772402194397268000,5.18826806640625,7.8409504890441895,-15.244950294494629,-0.9820500612258911
1772402194417323800,5.20832373046875,-2.1100502014160156,-13.120950698852539,-0.09795000404119492
1772402194437379800,5.2283798828125,-9.172950744628906,-11.98905086517334,-0.4069500267505646
1772402194457435600,5.248435546875,-9.364950180053711,-11.569950103759766,-0.6130500435829163
1772402194477491700,5.26849169921875,-5.817000389099121,-11.778000831604004,-0.5149500370025635
1772402194497547500,5.288547607421875,-1.3750500679016113,-11.311050415039062,1.102950096130371
1772402194517603600,5.308603515625,2.014050006866455,-10.669050216674805,3.163950204849243
1772402194537659600,5.32865966796875,3.040950059890747,-9.669000625610352,3.6289501190185547
1772402194557715500,5.348715576171875,2.920950174331665,-8.368950843811035,3.135000228881836
1772402194577771500,5.368771484375,2.77305006980896,-7.228950500488281,2.1229500770568848
1772402194597827300,5.388827392578125,3.891000270843506,-6.219000339508057,2.1040501594543457
1772402194617883400,5.40888330078125,5.797050476074219,-5.469000339508057,3.6670501232147217
1772402194637939200,5.428939208984375,8.155050277709961,-4.272000312805176,5.476950168609619
1772402194657995300,5.448995361328125,9.59595012664795,-3.3139500617980957,6.064050197601318
1772402194678051000,5.469051025390625,8.461050033569336,-3.2089500427246094,4.846950054168701
1772402194698107000,5.48910693359375,7.020000457763672,-4.026000022888184,3.0679502487182617
1772402194718163000,5.509162841796875,6.562950134277344,-5.092950344085693,1.1890500783920288
1772402194738219000,5.529218994140625,5.706000328063965,-6.592050075531006,-1.3810501098632812
1772402194758274800,5.54927490234375,5.148000240325928,-7.597950458526611,-3.318000078201294
1772402194778330600,5.56933056640625,5.871000289916992,-7.947000503540039,-2.290950059890747
1772402194798386700,5.58938671875,7.446000576019287,-8.704050064086914,-0.9550500512123108
1772402194818442500,5.6094423828125,8.719950675964355,-9.669000625610352,1.0639500617980957
1772402194838498600,5.62949853515625,9.131999969482422,-10.249950408935547,3.784050226211548
1772402194858554400,5.649554443359375,11.401050567626953,-10.818000793457031,5.914950370788574
1772402194878610200,5.669610107421875,13.645051002502441,-10.507050514221191,6.8610005378723145
1772402194898666200,5.689666259765625,12.658050537109375,-10.176000595092773,6.660000324249268
1772402194918722300,5.709722412109375,10.860000610351562,-9.468000411987305,5.170950412750244
1772402194938777900,5.72977783203125,10.177950859069824,-9.063000679016113,4.498050212860107
1772402194958834000,5.749833984375,9.55305004119873,-11.22705078125,5.029050350189209
1772402194978890000,5.769889892578125,8.461050033569336,-13.044000625610352,3.6790502071380615
1772402194998945800,5.78994580078125,7.651950359344482,-13.348950386047363,3.1330502033233643
1772402195019001900,5.810001953125,6.61305046081543,-13.969050407409668,2.3479502201080322
1772402195039057700,5.8300576171875,4.767000198364258,-14.43795108795166,0.7840500473976135
1772402195059113500,5.850113525390625,2.883000135421753,-14.055000305175781,-0.08595000207424164
1772402195079169300,5.870169189453125,3.472050189971924,-13.092000961303711,1.0909500122070312
1772402195099225300,5.890225341796875,5.830050468444824,-11.596050262451172,4.279950141906738
1772402195119281400,5.910281494140625,7.834050178527832,-9.49905014038086,6.334050178527832
1772402195139337200,5.930337158203125,8.242950439453125,-7.839000225067139,5.431950092315674
1772402195159393300,5.950393310546875,6.976950168609619,-6.439050197601318,2.9850001335144043
1772402195179449000,5.970448974609375,5.131050109863281,-5.497950077056885,1.201050043106079
1772402195199505000,5.9905048828125,2.007000207901001,-5.533950328826904,-0.26295000314712524
1772402195219561000,6.01056103515625,-1.1340000629425049,-5.2920002937316895,-1.4839500188827515
1772402195239616800,6.03061669921875,-2.187000036239624,-4.843950271606445,-1.9920001029968262
1772402195259672600,6.050672607421875,-2.0839500427246094,-4.710000038146973,-1.3669500350952148
1772402195279728600,6.070728759765625,-1.8160500526428223,-4.51200008392334,-0.1080000028014183
1772402195299784700,6.09078466796875,-0.8080500364303589,-4.381950378417969,1.1790000200271606
1772402195319840300,6.11084033203125,1.377000093460083,-4.128000259399414,1.765950083732605
1772402195339896300,6.130896240234375,3.370950222015381,-4.011000156402588,2.0749499797821045
1772402195359952400,6.150952392578125,4.389000415802002,-4.509000301361084,2.9920501708984375
1772402195380008200,6.17100830078125,5.232000350952148,-4.8349504470825195,4.882950305938721
1772402195400064300,6.191064208984375,6.586950302124023,-5.032950401306152,7.086000442504883
1772402195420120000,6.2111201171875,9.916950225830078,-5.290050029754639,8.367000579833984
1772402195440175900,6.23117578125,16.59000015258789,-6.223050117492676,6.934950351715088
1772402195460232000,6.25123193359375,21.511951446533203,-6.168000221252441,6.490050315856934
1772402195480287700,6.271287841796875,25.066951751708984,-8.63700008392334,10.938000679016113
1772402195500343800,6.29134375,24.007051467895508,-13.009050369262695,11.761950492858887
1772402195520399600,6.311399658203125,11.818050384521484,-12.850950241088867,2.6299500465393066
1772402195540455400,6.331455322265625,-0.9850500226020813,-13.171051025390625,-0.11205000430345535
1772402195560511500,6.351511474609375,-9.57300090789795,-13.123050689697266,-1.4959501028060913
1772402195580567600,6.371567626953125,-10.56705093383789,-12.546000480651855,-1.2019500732421875
1772402195600623400,6.391623291015625,-7.792050361633301,-12.058050155639648,-1.6660500764846802
1772402195620679400,6.411679443359375,-2.4150002002716064,-12.040950775146484,-0.6799500584602356
1772402195640735200,6.4317353515625,1.0270500183105469,-11.863950729370117,1.2340500354766846
1772402195660791000,6.451791015625,2.3680500984191895,-11.34000015258789,2.4529500007629395
1772402195680846800,6.471846923828125,3.3540000915527344,-9.520050048828125,2.9509501457214355
1772402195700903000,6.49190283203125,5.6670002937316895,-8.128950119018555,4.039950370788574
1772402195720959000,6.511958984375,9.60300064086914,-7.456050395965576,4.984050273895264
1772402195741014800,6.532014892578125,12.189000129699707,-6.373950481414795,5.251950263977051
1772402195761070600,6.552070556640625,11.860950469970703,-4.957050323486328,4.957050323486328
1772402195781126700,6.572126708984375,9.237000465393066,-4.657950401306152,3.9180002212524414
1772402195801182500,6.592182373046875,5.710050106048584,-4.744050025939941,1.9930500984191895
1772402195821238500,6.612238525390625,3.301950216293335,-4.897050380706787,0.23100000619888306
1772402195841294300,6.63229443359375,2.1529500484466553,-5.575050354003906,-0.4639500081539154
1772402195861350100,6.65235009765625,2.1310501098632812,-6.01800012588501,-0.8160000443458557
1772402195881406200,6.67240625,3.2179501056671143,-6.517950534820557,-1.5420000553131104
1772402195901462000,6.6924619140625,4.1610002517700195,-7.2960004806518555,-2.1499500274658203
1772402195921517800,6.712517822265625,4.9270501136779785,-7.81095027923584,-1.6300500631332397
1772402195941574000,6.732573974609375,6.01200008392334,-8.461950302124023,-0.13395000994205475
1772402195961630000,6.7526298828125,7.434000492095947,-9.271050453186035,2.737950086593628
1772402195981685800,6.772685791015625,9.259050369262695,-9.997050285339355,6.303000450134277
1772402196001741600,6.792741455078125,12.79995059967041,-10.69800090789795,7.459050178527832
1772402196021797400,6.81279736328125,14.562000274658203,-11.098050117492676,5.896050453186035
1772402196041853400,6.832853515625,12.534000396728516,-11.407050132751465,3.475050210952759
1772402196061909200,6.8529091796875,9.675000190734863,-11.52405071258545,2.247000217437744
1772402196081965000,6.872965087890625,6.927000522613525,-12.853050231933594,2.4840002059936523
1772402196102021000,6.893021240234375,6.295050144195557,-13.578001022338867,2.9610002040863037
1772402196122077200,6.9130771484375,8.671950340270996,-13.393950462341309,2.6710500717163086
1772402196142133000,6.933133056640625,8.974050521850586,-13.255050659179688,1.5700501203536987
1772402196162188800,6.953188720703125,7.7719502449035645,-13.863000869750977,1.749000072479248
1772402196182244900,6.973244873046875,6.100950241088867,-14.458950996398926,2.48895001411438
1772402196202300700,6.99330078125,3.301950216293335,-14.602951049804688,1.9890000820159912
1772402196222356500,7.0133564453125,2.3370001316070557,-13.38900089263916,1.689000129699707
1772402196242412500,7.03341259765625,3.7609500885009766,-11.602950096130371,2.3050501346588135
1772402196262468400,7.05346826171875,4.756950378417969,-10.309950828552246,4.255949974060059
1772402196282524200,7.073524169921875,5.4370503425598145,-8.433000564575195,4.777950286865234
1772402196302580200,7.093580322265625,5.8660502433776855,-6.9559502601623535,3.3010501861572266
1772402196322636000,7.113635986328125,4.675950050354004,-6.264000415802002,1.7880001068115234
1772402196342692000,7.133692138671875,2.8780500888824463,-5.824050426483154,0.43995001912117004
1772402196362747600,7.15374755859375,1.9420500993728638,-5.139000415802002,-0.5410500168800354
1772402196382803700,7.1738037109375,1.1640000343322754,-4.7989501953125,-0.6250500082969666
1772402196402859800,7.19385986328125,-0.039000000804662704,-4.594950199127197,0.286050021648407
1772402196422915600,7.21391552734375,-1.1770501136779785,-4.5329999923706055,0.3340500295162201
1772402196442971400,7.233971435546875,-1.821000099182129,-4.413000106811523,0.44700002670288086
1772402196463027500,7.25402734375,-1.2130500078201294,-4.23105001449585,0.9259500503540039
1772402196483083000,7.2740830078125,0.9270000457763672,-4.099950313568115,1.5000001192092896
1772402196503139000,7.29413916015625,2.634000062942505,-3.7140002250671387,2.02905011177063
1772402196523195100,7.314195068359375,4.504050254821777,-3.7480502128601074,2.854950189590454
1772402196543251000,7.3342509765625,7.183050155639648,-4.435050010681152,4.336950302124023
1772402196563306800,7.354306640625,8.868000030517578,-5.203050136566162,6.066000461578369
1772402196583362800,7.37436279296875,8.947050094604492,-5.815950393676758,6.39900016784668
1772402196603418600,7.394418701171875,10.956000328063965,-6.30495023727417,5.3359503746032715
1772402196623474400,7.414474365234375,19.350000381469727,-7.3560004234313965,5.332950115203857
1772402196643530500,7.434530517578125,24.502050399780273,-7.999950408935547,7.4569501876831055
1772402196663586300,7.45458642578125,23.06100082397461,-11.491050720214844,8.676000595092773
1772402196683642400,7.474642333984375,15.712950706481934,-12.168000221252441,3.4039502143859863
1772402196703698200,7.4946982421875,5.920950412750244,-12.858000755310059,1.2540000677108765
1772402196723754000,7.51475390625,-3.2910001277923584,-12.613950729370117,0.697950005531311
1772402196743810000,7.53481005859375,-5.983950138092041,-11.962050437927246,0.6570000052452087
1772402196763865900,7.554865966796875,-3.6450002193450928,-11.622000694274902,0.7200000286102295
1772402196783921700,7.574921630859375,0.04305000230669975,-11.062050819396973,1.0410000085830688
1772402196803977700,7.594977783203125,3.20805025100708,-10.05405044555664,1.3129500150680542
1772402196824033500,7.615033447265625,4.267050266265869,-8.851950645446777,1.4620500802993774
1772402196844089300,7.63508935546875,4.410000324249268,-7.6650004386901855,1.290000081062317
1772402196864145200,7.655145263671875,4.31505012512207,-6.642000198364258,0.9739500284194946
1772402196884201200,7.675201171875,4.0320000648498535,-5.644050121307373,0.7720500230789185
1772402196904257000,7.695257080078125,4.249950408935547,-5.1220502853393555,0.9280500411987305
1772402196924312800,7.715312744140625,4.683000087738037,-4.557000160217285,1.3020000457763672
1772402196944368600,7.73536865234375,5.184000015258789,-3.9970502853393555,1.5840001106262207
1772402196964424700,7.7554248046875,5.605050086975098,-3.8050501346588135,1.3090500831604004
1772402196984480500,7.77548046875,5.572050094604492,-4.035000324249268,1.3230000734329224
1772402197004536300,7.795536376953125,6.03795051574707,-4.267050266265869,1.1839500665664673
1772402197024592400,7.81559228515625,7.53000020980835,-4.404000282287598,1.117050051689148
1772402197044648200,7.835648193359375,8.397000312805176,-4.854000091552734,1.7209501266479492
1772402197064704000,7.8557041015625,9.196050643920898,-5.151000022888184,2.2420501708984375
1772402197084760000,7.875760009765625,10.267050743103027,-5.668050289154053,2.578050136566162
1772402197104816000,7.895816162109375,10.939050674438477,-6.610950469970703,3.0919501781463623
1772402197124871700,7.91587158203125,11.217000961303711,-7.677000522613525,3.3100502490997314
1772402197144927700,7.935927734375,11.056950569152832,-8.506950378417969,3.2380502223968506
1772402197164983800,7.95598388671875,10.252050399780273,-8.946000099182129,2.92995023727417
1772402197185039600,7.97603955078125,9.412050247192383,-8.895000457763672,2.5489501953125
1772402197205095400,7.996095458984375,9.675000190734863,-8.596050262451172,2.590050220489502
1772402197225151200,8.016151123046875,9.742050170898438,-9.19005012512207,3.3919501304626465
1772402197245207000,8.03620703125,8.944950103759766,-10.164000511169434,3.4399502277374268
1772402197265263000,8.05626318359375,8.855999946594238,-10.045050621032715,3.217050075531006
1772402197285319000,8.07631884765625,9.31095027923584,-9.862950325012207,2.809950113296509
1772402197305375000,8.096375,8.617050170898438,-10.03695011138916,2.3910000324249268
1772402197325430800,8.1164306640625,7.839000225067139,-10.212000846862793,2.0250000953674316
1772402197345486600,8.136486572265625,7.711950302124023,-10.762950897216797,2.4649500846862793
1772402197365542400,8.15654248046875,6.9649505615234375,-10.68600082397461,3.613950252532959
1772402197385598500,8.176598388671875,6.639000415802002,-9.77400016784668,3.9090001583099365
1772402197405654300,8.196654296875,6.86400032043457,-8.581950187683105,3.6289501190185547
1772402197425710000,8.2167099609375,7.408050537109375,-6.865050315856934,3.925950288772583
1772402197445766000,8.236765869140624,8.032950401306152,-5.662950038909912,3.715050220489502
1772402197465822000,8.256822021484375,7.069950103759766,-4.909050464630127,2.2210500240325928
1772402197485877800,8.276877685546875,5.244000434875488,-4.633950233459473,0.7050000429153442
1772402197505933600,8.29693359375,4.333950042724609,-4.308000087738037,0.286050021648407
1772402197525989600,8.31698974609375,2.754000186920166,-3.9780001640319824,0.23100000619888306
1772402197546045400,8.33704541015625,-0.07500000298023224,-4.294050216674805,-0.534000039100647
1772402197566101200,8.357101318359375,-0.4320000112056732,-4.582950115203857,-1.2139500379562378
1772402197586157300,8.3771572265625,0.8929500579833984,-4.236000061035156,-0.3330000042915344
1772402197606213000,8.397213134765625,1.3000500202178955,-4.456050395965576,0.6529500484466553
1772402197626269000,8.41726904296875,2.623950242996216,-4.674000263214111,2.3209500312805176
1772402197646325000,8.437324951171876,4.485000133514404,-5.134050369262695,3.44700026512146
1772402197666380800,8.457380859375,6.520050525665283,-5.943000316619873,3.643050193786621
1772402197686436600,8.4774365234375,8.032950401306152,-6.939000129699707,3.7579500675201416
1772402197706492400,8.497492431640625,9.175050735473633,-7.128000259399414,3.415950059890747
1772402197726548500,8.517548583984375,10.128000259399414,-7.471050262451172,2.8600502014160156
1772402197746604300,8.537604248046875,10.486950874328613,-7.998000144958496,2.2519500255584717
1772402197766660000,8.55766015625,11.830050468444824,-7.507050514221191,1.7920501232147217
1772402197786716200,8.577716064453124,17.784000396728516,-7.212000370025635,7.126950263977051
1772402197806772000,8.59777197265625,26.667001724243164,-11.63700008392334,10.663050651550293
1772402197826827800,8.617827880859375,23.473051071166992,-10.321950912475586,1.9960501194000244
1772402197846883800,8.6378837890625,10.099050521850586,-11.457000732421875,0.030000001192092896
1772402197866939600,8.657939697265626,-1.5720000267028809,-10.308000564575195,-0.04500000178813934
1772402197886995500,8.677995361328126,-6.127950191497803,-9.340950012207031,1.0410000085830688
1772402197907051300,8.69805126953125,-4.04295015335083,-8.967000007629395,0.6550500392913818
1772402197927107300,8.718107421875,0.5770500302314758,-9.460050582885742,0.1189500093460083
1772402197947163100,8.7381630859375,3.826050281524658,-9.207000732421875,-0.17505000531673431
1772402197967219000,8.758218994140625,5.0209503173828125,-8.356950759887695,0.006000000052154064
1772402197987275000,8.77827490234375,4.365000247955322,-7.344000339508057,0.27195000648498535
1772402198007330800,8.798330810546876,3.139050245285034,-6.621000289916992,0.6289500594139099
1772402198027386600,8.81838671875,2.4970500469207764,-5.866950511932373,1.0429500341415405
1772402198047442400,8.8384423828125,2.8470001220703125,-5.164950370788574,1.4329500198364258
1772402198067498200,8.858498291015625,3.5719501972198486,-4.603050231933594,1.2750000953674316
1772402198087554300,8.87855419921875,4.3309502601623535,-4.105050086975098,0.7560000419616699
1772402198107610000,8.898610107421876,4.860000133514404,-3.670950174331665,0.6100500226020813
1772402198127666000,8.918666015625,5.0809502601623535,-3.4560000896453857,0.921000063419342
1772402198147721700,8.9387216796875,5.586000442504883,-3.541950225830078,1.3300501108169556
1772402198167777500,8.958777587890625,6.412050247192383,-4.033050060272217,1.8739501237869263
1772402198187833600,8.97883349609375,6.924000263214111,-4.8319501876831055,1.9579501152038574
1772402198207889400,8.998889404296875,8.3100004196167,-5.617950439453125,1.3920000791549683
1772402198227945200,9.0189453125,10.558950424194336,-6.391050338745117,1.290000081062317
1772402198248001300,9.039001220703126,12.64905071258545,-7.53795051574707,1.7040001153945923
1772402198268057000,9.05905712890625,12.57705020904541,-8.824049949645996,2.25
1772402198288113000,9.07911279296875,11.3100004196167,-9.340950012207031,2.748000144958496
1772402198308168700,9.099168701171875,11.19795036315918,-9.633000373840332,2.668950080871582
1772402198328224800,9.119224853515625,12.145950317382812,-9.324000358581543,2.6610000133514404
1772402198348280300,9.1392802734375,12.760951042175293,-8.704050064086914,2.7330000400543213
1772402198368336400,9.15933642578125,11.995050430297852,-8.770950317382812,3.4830002784729004
1772402198388392400,9.179392333984374,10.498950958251953,-9.829050064086914,3.96405029296875
1772402198408448000,9.199447998046875,8.79900074005127,-10.309950828552246,4.162950038909912
1772402198428504000,9.219504150390625,8.229000091552734,-10.369950294494629,4.190999984741211
1772402198448559900,9.239559814453125,7.5610504150390625,-10.690950393676758,2.854950189590454
1772402198468615700,9.25961572265625,6.807000160217285,-11.40195083618164,2.0530500411987305
1772402198488671700,9.279671630859376,6.010050296783447,-11.482950210571289,1.8499500751495361
1772402198508727600,9.2997275390625,6.028950214385986,-11.128950119018555,1.998000144958496
1772402198528783400,9.319783447265625,6.952950477600098,-10.618950843811035,3.145050048828125
1772402198548839200,9.339839111328125,7.972950458526611,-8.950050354003906,4.1509504318237305
1772402198568895200,9.359895263671875,9.522000312805176,-7.224000453948975,4.33305025100708
1772402198588950800,9.37995068359375,9.84000015258789,-6.013050079345703,3.0210001468658447
1772402198609006800,9.4000068359375,7.827000141143799,-5.752050399780273,1.1700000762939453
1772402198629062700,9.420062744140624,5.152950286865234,-5.54295015335083,-0.24195000529289246
1772402198649118500,9.440118408203125,3.9100501537323,-5.320950031280518,-0.7249500155448914
1772402198669174500,9.460174560546875,2.3490002155303955,-5.031000137329102,-0.8929500579833984
1772402198689230300,9.480230224609375,0.08400000631809235,-4.618950366973877,-0.9720000624656677
1772402198709286100,9.5002861328125,-1.1670000553131104,-4.210050106048584,-0.31095001101493835
1772402198729342000,9.520342041015626,-0.9010500311851501,-4.047000408172607,0.46095001697540283
1772402198749398000,9.54039794921875,1.111050009727478,-3.9630002975463867,1.894950032234192
1772402198769453800,9.560453857421875,4.177950382232666,-3.841050148010254,3.1930501461029053
1772402198789509600,9.580509521484375,6.330000400543213,-3.850950241088867,3.009000062942505
1772402198809565700,9.600565673828125,7.711950302124023,-4.066050052642822,2.5200002193450928
1772402198829621500,9.62062158203125,9.802050590515137,-4.44195032119751,3.115950107574463
1772402198849677300,9.64067724609375,11.290950775146484,-4.828050136566162,3.6670501232147217
1772402198869733000,9.660733154296874,11.157000541687012,-5.208000183105469,3.9060001373291016
1772402198889789000,9.680788818359375,11.374950408935547,-5.914950370788574,2.8980002403259277
1772402198909844700,9.7008447265625,13.177950859069824,-4.320000171661377,2.3620500564575195
1772402198929900800,9.72090087890625,17.26995086669922,-4.7029500007629395,8.593950271606445
1772402198949956600,9.74095654296875,18.87795066833496,-7.330050468444824,8.520000457763672
1772402198970012400,9.761012451171876,15.87600040435791,-7.573950290679932,1.1239500045776367
1772402198990068500,9.781068359375,9.77595043182373,-8.634000778198242,-0.22005000710487366
1772402199010124000,9.8011240234375,3.6060001850128174,-9.096000671386719,1.9260001182556152
1772402199030180000,9.82118017578125,-0.21705001592636108,-9.091950416564941,2.2980000972747803
1772402199050236000,9.84123583984375,0.6010500192642212,-8.383049964904785,1.7400001287460327
1772402199070291700,9.861291748046876,4.044000148773193,-7.863000392913818,1.7560501098632812
1772402199090347500,9.881347412109376,6.7260003089904785,-7.25100040435791,1.426050066947937
1772402199110403300,9.9014033203125,7.534950256347656,-6.7260003089904785,1.3210500478744507
1772402199130459100,9.921459228515625,7.015050411224365,-6.022050380706787,1.3060500621795654
1772402199150515200,9.94151513671875,6.304050445556641,-5.187000274658203,1.5430500507354736
1772402199170570800,9.96157080078125,5.931000232696533,-4.5329999923706055,1.4380500316619873
1772402199190626800,9.981626708984376,5.63100004196167,-4.071000099182129,1.2490500211715698
1772402199210682600,10.0016826171875,5.48805046081543,-3.790950298309326,1.218000054359436
1772402199230738400,10.021738525390624,5.629050254821777,-3.553950071334839,1.0500000715255737
1772402199250794200,10.041794189453125,5.3580002784729,-3.1279501914978027,1.3399500846862793
1772402199270850000,10.06185009765625,5.478000164031982,-2.824050188064575,1.6849501132965088
1772402199290905900,10.08190576171875,6.465000152587891,-2.9700000286102295,1.6870501041412354
1772402199310962000,10.1019619140625,7.759950160980225,-3.2089500427246094,1.3420500755310059
1772402199331018000,10.12201806640625,9.83595085144043,-3.436950206756592,0.35295000672340393
1772402199351073500,10.142073486328124,10.582950592041016,-3.8530502319335938,0.41805002093315125
1772402199371129600,10.162129638671875,10.98705005645752,-3.8959500789642334,0.9690000414848328
1772402199391185400,10.182185302734375,11.385000228881836,-4.531050205230713,1.6489500999450684
1772402199411241200,10.2022412109375,11.868000984191895,-5.284950256347656,1.9579501152038574
