time,seconds_elapsed,z,y,x
1772402189503607800,0.29460791015625,-0.19511249661445618,0.4049375057220459,-0.1354375034570694
1772402189523664000,0.314663818359375,-0.21752500534057617,0.30057498812675476,-0.234437495470047
1772402189543720000,0.334719970703125,-0.23457500338554382,0.33467498421669006,-0.2642749845981598
1772402189563776000,0.35477587890625,-0.2410375028848648,0.4816625118255615,-0.23237499594688416
1772402189583832000,0.37483203125,-0.2782999873161316,0.48276248574256897,-0.11935000121593475
1772402189603887900,0.394887939453125,-0.2825624942779541,0.3068999946117401,-0.08951249718666077
1772402189623944000,0.41494384765625,-0.2686749994754791,0.11302500218153,-0.26633748412132263
1772402189644000000,0.435,-0.25808748602867126,0.012924999929964542,-0.3398999869823456
1772402189664055800,0.455055908203125,-0.17173749208450317,0.17379999160766602,-0.15565000474452972
1772402189684112000,0.47511181640625,-0.1568875014781952,0.3698749840259552,0.06173750013113022
1772402189704168000,0.49516796875,-0.2686749994754791,0.5680124759674072,0.1266375035047531
1772402189724224000,0.51522412109375,-0.454025000333786,0.6030749678611755,-0.05871250107884407
1772402189744279800,0.53527978515625,-0.5924875140190125,0.42941248416900635,-0.2546499967575073
1772402189764335900,0.5553359375,-0.47850000858306885,0.2835249900817871,0.026537500321865082
1772402189784392000,0.575391845703125,-0.1611499935388565,-0.09569999575614929,0.48138749599456787
1772402189804447700,0.59544775390625,-0.04922499880194664,-0.4908750057220459,-0.19071249663829803
1772402189824503800,0.61550390625,-0.7309499979019165,0.6616500020027161,-1.456262469291687
1772402189844560000,0.635559814453125,-1.2402499914169312,2.60479998588562,-1.4008499383926392
1772402189864616000,0.655615966796875,-1.261562466621399,2.29583740234375,0.5634750127792358
1772402189884671700,0.675671630859375,-1.0665874481201172,0.9876624941825867,1.3932875394821167
1772402189904727800,0.695727783203125,-0.7565249800682068,0.3889875113964081,0.9543874859809875
1772402189924784000,0.7157841796875,-0.3559874892234802,0.3676750063896179,-0.5593500137329102
1772402189944840000,0.73583984375,-0.1270499974489212,0.8597875237464905,-2.2680625915527344
1772402189964895700,0.755895751953125,-0.18658749759197235,1.372249960899353,-3.2789623737335205
1772402189984952000,0.7759521484375,-0.4263874888420105,1.5085124969482422,-3.508037567138672
1772402190005008100,0.796008056640625,-0.5531625151634216,1.4404499530792236,-3.068037509918213
1772402190025064000,0.81606396484375,-0.3581874966621399,1.170949935913086,-2.1572375297546387
1772402190045120000,0.8361201171875,-0.08538749814033508,0.6467999815940857,-1.1910250186920166
1772402190065176000,0.856176025390625,-0.14409999549388885,0.3357749879360199,-0.4890874922275543
1772402190085232000,0.876232177734375,-0.3517250120639801,0.4092000126838684,-0.28022500872612
1772402190105288200,0.8962880859375,-0.6052749752998352,0.7159624695777893,-0.40700000524520874
1772402190125344300,0.91634423828125,-0.7959874868392944,0.7926874756813049,-0.515625
1772402190145399800,0.93639990234375,-0.7459374666213989,0.7490999698638916,-0.6296125054359436
1772402190165456000,0.956455810546875,-0.5489000082015991,0.6019750237464905,-0.809737503528595
1772402190185512000,0.976511962890625,-0.3698749840259552,0.45182499289512634,-0.8842625021934509
1772402190205568000,0.996568115234375,-0.14836250245571136,0.36024999618530273,-0.8575875163078308
1772402190225623800,1.016623779296875,0.12553749978542328,0.13337500393390656,-0.8234875202178955
1772402190245680000,1.03668017578125,0.26922500133514404,0.004399999976158142,-0.7873250246047974
1772402190265736000,1.05673583984375,0.09776250272989273,0.2983750104904175,-0.6765000224113464
1772402190285791700,1.076791748046875,-0.08332499861717224,0.5391374826431274,-0.3302749991416931
1772402190305847800,1.096847900390625,-0.16005000472068787,0.4422000050544739,0.026537500321865082
1772402190325904100,1.116904052734375,-0.18768750131130219,0.42625001072883606,0.17036250233650208
1772402190345960000,1.1369599609375,-0.22288750112056732,0.6158624887466431,0.24062499403953552
1772402190366015700,1.157015625,-0.37950000166893005,0.706475019454956,0.3375625014305115
1772402190386072000,1.177072021484375,-0.6032124757766724,0.5541250109672546,0.43876248598098755
1772402190406128000,1.197128173828125,-0.7448375225067139,0.3059374988079071,0.5740625262260437
1772402190426184000,1.217183837890625,-0.8247249722480774,0.5029749870300293,1.0715374946594238
1772402190446240000,1.237239990234375,-0.8300874829292297,0.735212504863739,1.6201624870300293
1772402190466296000,1.257296142578125,-0.947237491607666,0.5774999856948853,1.9013500213623047
1772402190486352000,1.277351806640625,-0.8556625247001648,0.10353749990463257,1.8342499732971191
1772402190506408000,1.297407958984375,-0.7033125162124634,-0.3609375059604645,1.9482375383377075
1772402190526464000,1.317464111328125,-0.5168625116348267,-0.2171124964952469,1.8214625120162964
1772402190546520000,1.33752001953125,-0.22495000064373016,0.7255874872207642,0.9310125112533569
1772402190566576000,1.357576171875,-0.033275000751018524,1.7514749765396118,0.15331250429153442
1772402190586632200,1.377632080078125,-0.19731250405311584,2.257474899291992,0.05211250111460686
1772402190606688000,1.39768798828125,-0.5264874696731567,2.0272998809814453,0.7636749744415283
1772402190626744000,1.417744140625,-0.717199981212616,1.3327875137329102,1.9248625040054321
1772402190646800100,1.437800048828125,-0.6873624920845032,0.984499990940094,2.4116125106811523
1772402190666856000,1.45785595703125,-0.36355000734329224,1.0505000352859497,2.1443123817443848
1772402190686912000,1.477912109375,-0.10779999941587448,1.0867999792099,1.5008125305175781
1772402190706968000,1.497968017578125,0.15853749215602875,0.763949990272522,0.9692375063896179
1772402190727024000,1.518024169921875,0.24584999680519104,0.39861249923706055,0.7062000036239624
1772402190747080200,1.538080078125,0.21285000443458557,0.12581250071525574,0.4622749984264374
1772402190767136000,1.558135986328125,0.3246375024318695,-0.038224998861551285,0.12347500026226044
1772402190787192000,1.578192138671875,0.5696625113487244,-0.3993000090122223,-0.2952125072479248
1772402190807248100,1.598248046875,0.9020000100135803,-0.9746000170707703,-0.5752999782562256
1772402190827304200,1.61830419921875,1.0736000537872314,-1.3377374410629272,-0.6829624772071838
1772402190847360000,1.638360107421875,1.1151249408721924,-1.4112999439239502,-0.763949990272522
1772402190867416000,1.658416015625,1.0267125368118286,-0.9627749919891357,-1.3018499612808228
1772402190887472000,1.67847216796875,0.8093249797821045,0.45608749985694885,-2.3991000652313232
1772402190907528000,1.69852783203125,0.547249972820282,1.6428500413894653,-2.4800875186920166
1772402190927584000,1.718583984375,0.30662500858306885,1.1070125102996826,-0.5337749719619751
1772402190947640000,1.73864013671875,0.009349999949336052,0.40383750200271606,1.3037749528884888
1772402190967696100,1.758696044921875,-0.30057498812675476,0.7576249837875366,1.8939249515533447
1772402190987752200,1.778752197265625,-0.7640874981880188,1.4947625398635864,1.1758999824523926
1772402191007808000,1.79880810546875,-0.6191624999046326,1.354099988937378,1.2122000455856323
1772402191027864000,1.818864013671875,-0.02681249938905239,-0.3205125033855438,1.9109749794006348
1772402191047920000,1.838920166015625,0.19689999520778656,-1.4240875244140625,2.19216251373291
1772402191067976200,1.85897607421875,0.10518749803304672,-1.1119624376296997,1.448699951171875
1772402191088032000,1.879031982421875,-0.2527250051498413,-0.43876248598098755,0.08401250094175339
1772402191108088000,1.899088134765625,-0.1578499972820282,-0.18301250040531158,-1.4690500497817993
1772402191128144100,1.91914404296875,0.07218749821186066,-0.5229125022888184,-2.3533124923706055
1772402191148200200,1.9392001953125,0.017875000834465027,-0.9212499856948853,-2.685649871826172
1772402191168256000,1.959256103515625,-0.025849999859929085,-1.0895500183105469,-2.628037452697754
1772402191188312000,1.97931201171875,-0.013062499463558197,-1.0491249561309814,-2.0954999923706055
1772402191208368000,1.9993681640625,-0.06737499684095383,-0.7827875018119812,-1.0994499921798706
1772402191228424200,2.019424072265625,-0.17806249856948853,-0.4600749909877777,-0.2611125111579895
1772402191248480300,2.039480224609375,-0.37193748354911804,-0.18837499618530273,-0.023512499406933784
1772402191268536000,2.0595361328125,-0.505174994468689,0.03959999978542328,-0.05128749832510948
1772402191288592100,2.079592041015625,-0.47423750162124634,0.24832500517368317,-0.14602500200271606
1772402191308648200,2.099648193359375,-0.5296499729156494,0.40603750944137573,-0.41126251220703125
1772402191328704300,2.119704345703125,-0.6254875063896179,0.4199250042438507,-0.9780374765396118
1772402191348760300,2.13976025390625,-0.46254998445510864,0.3656125068664551,-1.6054500341415405
1772402191368816000,2.159816162109375,-0.09927500039339066,0.2601499855518341,-1.9016250371932983
1772402191388872200,2.1798720703125,0.1531749963760376,0.2644124925136566,-1.8397499322891235
1772402191408928300,2.19992822265625,0.007287499960511923,0.5211250185966492,-1.5181374549865723
1772402191428984300,2.219984375,-0.33467498421669006,0.7607874870300293,-1.0301499366760254
1772402191449040400,2.240040283203125,-0.5285499691963196,0.4796000123023987,-0.40383750200271606
1772402191469096200,2.26009619140625,-0.42102500796318054,0.1013374999165535,0.19910000264644623
1772402191489152300,2.28015234375,-0.32615000009536743,-0.02433750033378601,0.6710000038146973
1772402191509208300,2.300208251953125,-0.29534998536109924,-0.013749999925494194,0.840399980545044
1772402191529264400,2.320264404296875,-0.28888750076293945,-0.060499999672174454,0.7818250060081482
1772402191549320000,2.34031982421875,-0.42844998836517334,-0.026399999856948853,0.8670749664306641
1772402191569376000,2.3603759765625,-0.808775007724762,0.2451625019311905,1.1376750469207764
1772402191589432000,2.38043212890625,-1.003749966621399,0.48592498898506165,1.5093375444412231
1772402191609488100,2.400488037109375,-1.0814374685287476,0.4464625120162964,1.7458374500274658
1772402191629544000,2.4205439453125,-1.2274625301361084,0.3367374837398529,1.5178624391555786
1772402191649600000,2.44060009765625,-1.245474934577942,0.29205000400543213,0.9384375214576721
1772402191669656300,2.46065625,-1.1891000270843506,0.6595875024795532,0.30566251277923584
1772402191689712400,2.48071240234375,-0.7320500016212463,1.1389124393463135,-0.20679999887943268
1772402191709768200,2.500768310546875,-0.09927500039339066,1.3520375490188599,-0.14822499454021454
1772402191729824000,2.520823974609375,0.4078249931335449,1.121862530708313,0.3503499925136566
1772402191749880000,2.540880126953125,0.4195125102996826,0.8896250128746033,0.8915500044822693
1772402191769936100,2.56093603515625,0.11055000126361847,1.104812502861023,1.224987506866455
1772402191789992200,2.5809921875,0.0030249999836087227,1.3679875135421753,1.473175048828125
1772402191810048300,2.60104833984375,0.2703250050544739,1.1570625305175781,1.8842999935150146
1772402191830104000,2.62110400390625,0.5974375009536743,0.49761250615119934,2.213474988937378
1772402191850160000,2.64116015625,0.7369999885559082,0.020349999889731407,2.274250030517578
1772402191870216200,2.66121630859375,0.8402624726295471,-0.18837499618530273,2.016437530517578
1772402191890272000,2.68127197265625,0.9457250237464905,-0.304562509059906,1.4166624546051025
1772402191910328000,2.701328125,1.0724999904632568,-0.4109874963760376,0.5847874879837036
1772402191930384100,2.721384033203125,1.2973124980926514,-0.7614749670028687,-0.13323749601840973
1772402191950440200,2.741440185546875,1.583862543106079,-1.3516249656677246,-0.4123624861240387
1772402191970496000,2.76149609375,1.9768375158309937,-1.9534624814987183,-0.4815250039100647
1772402191990552000,2.781552001953125,2.0355498790740967,-2.3391499519348145,-0.4101625084877014
1772402192010608000,2.801608154296875,1.4964125156402588,-2.2197999954223633,-0.4422000050544739
1772402192030664200,2.821664306640625,0.988349974155426,-1.2281500101089478,-1.4425125122070312
1772402192050720000,2.841719970703125,0.7635374665260315,0.6914874911308289,-3.0456249713897705
1772402192070776000,2.861776123046875,0.5707625150680542,1.179474949836731,-2.3681623935699463
1772402192090832100,2.88183203125,0.19043749570846558,0.4571875035762787,-0.34306249022483826
1772402192110888200,2.90188818359375,-0.196212500333786,0.24626250565052032,1.1013749837875366
1772402192130944000,2.921944091796875,-0.7149999737739563,0.7713750004768372,2.0761125087738037
1772402192151000000,2.942,-1.2326874732971191,0.6627500057220459,2.1836373805999756
1772402192171056000,2.96205615234375,-1.0719499588012695,0.09707500040531158,1.3688124418258667
1772402192191112000,2.98211181640625,-0.5413374900817871,-0.08511249721050262,0.4643374979496002
1772402192211168000,3.00216796875,-0.31872498989105225,-0.14258749783039093,0.008387500420212746
1772402192231224000,3.02222412109375,-0.3422375023365021,-0.21615000069141388,-0.234437495470047
1772402192251280100,3.042280029296875,-0.21216249465942383,-0.26510000228881836,-1.1015125513076782
1772402192271336000,3.0623359375,0.09776250272989273,-0.3726249933242798,-2.1338624954223633
1772402192291392000,3.08239208984375,0.20748749375343323,-0.3918749988079071,-2.8965749740600586
1772402192311447800,3.10244775390625,0.2096875011920929,-0.32477501034736633,-3.583662509918213
1772402192331503900,3.12250390625,-0.04922499880194664,-0.2662000060081482,-3.830749988555908
1772402192351560000,3.142559814453125,-0.477400004863739,-0.07548750191926956,-3.5634500980377197
1772402192371615700,3.16261572265625,-0.7448375225067139,0.1845249980688095,-2.909362554550171
1772402192391671800,3.182671875,-0.8321499824523926,0.3815625011920929,-2.0741875171661377
1772402192411727600,3.2027275390625,-0.9290875196456909,0.4241875112056732,-1.474412441253662
1772402192431783700,3.22278369140625,-0.9898625016212463,0.27816250920295715,-0.9439374804496765
1772402192451839700,3.24283984375,-0.9355499744415283,-0.004124999977648258,-0.5678749680519104
1772402192471895800,3.262895751953125,-0.7001500129699707,-0.4195125102996826,-0.4442625045776367
1772402192491951900,3.282951904296875,-0.2750000059604645,-0.692312479019165,-0.6168249845504761
1772402192512007700,3.303007568359375,0.20432500541210175,-0.5357000231742859,-1.1483999490737915
1772402192532063700,3.323063720703125,0.5568749904632568,-0.20858749747276306,-1.712975025177002
1772402192552119800,3.343119873046875,0.7933750152587891,0.1461624950170517,-1.8525375127792358
1772402192572175600,3.363175537109375,0.7902125120162964,0.3730374872684479,-1.5861999988555908
1772402192592231700,3.383231689453125,0.6538124680519104,0.18975000083446503,-1.0951875448226929
1772402192612287700,3.403287841796875,0.3843125104904175,-0.18301250040531158,-0.38788750767707825
1772402192632343800,3.42334375,-0.07590000331401825,-0.3609375059604645,0.3951750099658966
1772402192652399400,3.4433994140625,-0.5807999968528748,-0.273624986410141,0.8307750225067139
1772402192672455700,3.46345556640625,-0.9631875157356262,0.13433749973773956,0.7849875092506409
1772402192692511700,3.48351171875,-1.0995874404907227,0.44866248965263367,0.6294749975204468
1772402192712567600,3.503567626953125,-1.1016499996185303,0.4731374979019165,0.7594124674797058
1772402192732623600,3.52362353515625,-0.8992499709129333,0.24199999868869781,1.0385375022888184
1772402192752679400,3.543679443359375,-0.6510624885559082,0.033137500286102295,1.5328500270843506
1772402192772735500,3.563735595703125,-0.5541250109672546,0.027912499383091927,2.3648624420166016
1772402192792791600,3.58379150390625,-0.7778375148773193,-0.038224998861551285,3.106262445449829
1772402192812847400,3.603847412109375,-0.8982874751091003,0.5317124724388123,2.712049961090088
1772402192832903400,3.6239033203125,-0.5552250146865845,1.3125749826431274,1.6755750179290771
1772402192852959200,3.643959228515625,-0.13557499647140503,1.4020874500274658,1.0993125438690186
1772402192873015300,3.664015380859375,-0.010862499475479126,1.1591249704360962,1.014062523841858
1772402192893071400,3.6840712890625,-0.020487500354647636,1.1857999563217163,1.1291500329971313
1772402192913127200,3.704127197265625,0.05087500065565109,1.0527000427246094,1.5604875087738037
1772402192933183200,3.724183349609375,0.15427500009536743,0.8225250244140625,1.98027503490448
1772402192953239000,3.744239013671875,0.29809999465942383,0.6201249957084656,2.057962417602539
1772402192973295000,3.764295166015625,0.39393749833106995,0.27293750643730164,1.864087462425232
1772402192993351200,3.78435107421875,0.3854124844074249,-0.16706250607967377,1.5104374885559082
1772402193013407200,3.8044072265625,0.319412499666214,-0.546287477016449,1.049262523651123
1772402193033463000,3.824463134765625,0.22673749923706055,-0.8648750185966492,0.5475249886512756
1772402193053519000,3.84451904296875,0.18933749198913574,-0.9127249717712402,0.049912501126527786
1772402193073575200,3.8645751953125,0.30332499742507935,-0.941462516784668,-0.33880001306533813
1772402193093631200,3.88463134765625,0.5494499802589417,-1.133275032043457,-0.5582500100135803
1772402193113687000,3.90468701171875,0.8775249719619751,-1.3495625257492065,-0.8991125226020813
1772402193133742800,3.924742919921875,1.098075032234192,-1.0053999423980713,-1.6065499782562256
1772402193153799000,3.944798828125,0.9361000061035156,0.8449375033378601,-3.080825090408325
1772402193173855000,3.96485498046875,0.28421249985694885,2.103062391281128,-3.146825075149536
1772402193193910800,3.984910888671875,-0.17063750326633453,0.5743374824523926,-0.7393375039100647
1772402193213966800,4.004966796875,-0.32945001125335693,-0.6901124715805054,0.7732999920845032
1772402193234023000,4.02502294921875,-0.1280124932527542,-0.637862503528595,1.8449749946594238
1772402193254079000,4.045078857421875,-0.1237500011920929,-0.6124249696731567,2.247575044631958
1772402193274134800,4.065134765625,-0.13337500393390656,-1.134374976158142,1.9482375383377075
1772402193294190600,4.085190673828125,-0.020487500354647636,-0.9021375179290771,1.2846624851226807
1772402193314246700,4.10524658203125,-0.1578499972820282,-0.05101250112056732,0.7679374814033508
1772402193334302700,4.125302734375,-0.055687498301267624,0.3431999981403351,-0.05444999784231186
1772402193354358500,4.145358642578125,0.07644999772310257,0.29205000400543213,-0.8533250093460083
1772402193374414600,4.16541455078125,0.4684624969959259,0.01718750037252903,-1.731124997138977
1772402193394470700,4.185470703125,0.7731624841690063,-0.12443749606609344,-2.520512580871582
1772402193414526500,4.2055263671875,0.8530499935150146,-0.12333749979734421,-3.1075000762939453
1772402193434582500,4.22558251953125,0.9318374991416931,-0.14038750529289246,-3.4887874126434326
1772402193454638600,4.245638671875,0.9926124811172485,-0.14368750154972076,-3.394049882888794
1772402193474694400,4.2656943359375,0.8754624724388123,0.09597499668598175,-2.919950008392334
1772402193494750200,4.285750244140625,0.6197124719619751,0.1163249984383583,-2.218012571334839
1772402193514806300,4.30580615234375,0.320374995470047,-0.18411250412464142,-1.4414124488830566
1772402193534862300,4.3258623046875,0.030662499368190765,-0.4057624936103821,-0.8458999991416931
1772402193554918100,4.345918212890625,-0.20899999141693115,-0.3546124994754791,-0.4965125024318695
1772402193574974200,4.36597412109375,-0.38266250491142273,-0.16596250236034393,-0.4092000126838684
1772402193595030300,4.3860302734375,-0.39434999227523804,-0.032862499356269836,-0.5422999858856201
1772402193615086300,4.40608642578125,-0.033275000751018524,-0.20652499794960022,-0.866112470626831
1772402193635142000,4.426141845703125,0.35983750224113464,-0.40149998664855957,-1.3007500171661377
1772402193655198000,4.446197998046875,0.6868125200271606,-0.4856500029563904,-1.6597625017166138
1772402193675254000,4.46625390625,0.8658375144004822,-0.24914999306201935,-1.6906999349594116
1772402193695310000,4.48631005859375,0.822112500667572,0.8725749850273132,-2.0102500915527344
1772402193715366000,4.506365966796875,0.5014625191688538,1.6417499780654907,-1.8653249740600586
1772402193735421700,4.526421630859375,-0.02681249938905239,0.8619874715805054,-0.5667750239372253
1772402193755477800,4.546477783203125,-0.680899977684021,-0.04028749838471413,0.6092625260353088
1772402193775533600,4.566533447265625,-1.1272250413894653,-0.22357499599456787,1.0865249633789062
1772402193795589600,4.586589599609375,-1.538487434387207,0.196212500333786,1.2590874433517456
1772402193815645400,4.6066455078125,-1.6769499778747559,0.597712516784668,1.289887547492981
1772402193835701500,4.626701416015625,-1.554437518119812,0.1812250018119812,1.391087532043457
1772402193855757600,4.646757568359375,-1.554437518119812,-0.3833499848842621,1.7384124994277954
1772402193875813400,4.6668134765625,-1.6237374544143677,-0.47382500767707825,2.274250030517578
1772402193895869200,4.686869140625,-1.5991250276565552,-0.5985375046730042,2.731299877166748
1772402193915925200,4.70692529296875,-1.562962532043457,-0.23526249825954437,2.541687488555908
1772402193935981300,4.726981201171875,-1.1475750207901,0.6467999815940857,1.4433374404907227
1772402193956037000,4.747037109375,-0.44013750553131104,1.1591249704360962,0.5729625225067139
1772402193976093000,4.767093017578125,-0.05238749831914902,1.3029500246047974,0.4600749909877777
1772402193996149000,4.78714892578125,0.0317624993622303,1.7397874593734741,0.6763625144958496
1772402194016205000,4.807205078125,0.05623750016093254,2.145550012588501,1.022587537765503
1772402194036261000,4.82726123046875,0.15633749961853027,1.8068875074386597,1.466712474822998
1772402194056317000,4.84731689453125,0.1989624947309494,1.113337516784668,1.8662874698638916
1772402194076373000,4.867373046875,0.27678748965263367,0.49445000290870667,2.0323874950408936
1772402194096429000,4.887428955078125,0.42061248421669006,-0.020075000822544098,2.1176373958587646
1772402194116484900,4.90748486328125,0.49623748660087585,-0.3535124957561493,2.0516374111175537
1772402194136540700,4.927540771484375,0.5846499800682068,-0.591112494468689,1.6798374652862549
1772402194156596700,4.9475966796875,0.6995999813079834,-0.6496874690055847,1.0746999979019165
1772402194176652800,4.96765283203125,0.7603750228881836,-0.6315374970436096,0.599637508392334
1772402194196708600,4.98770849609375,0.8701000213623047,-0.7935125231742859,0.39723750948905945
1772402194216764400,5.007764404296875,1.1523874998092651,-1.1236499547958374,0.006324999965727329
1772402194236820500,5.027820556640625,1.5210249423980713,-1.731950044631958,-0.5550875067710876
1772402194256876300,5.047876220703125,1.697849988937378,-2.057962417602539,-1.270912528038025
1772402194276932400,5.067932373046875,1.4272500276565552,-0.5484874844551086,-2.605762481689453
1772402194296988200,5.08798828125,0.9403625130653381,2.0411875247955322,-3.531412363052368
1772402194317044200,5.108044189453125,0.3385249972343445,1.3008874654769897,-1.5457749366760254
1772402194337100300,5.128100341796875,-0.09501250088214874,-0.09790000319480896,-0.11838749796152115
1772402194357156000,5.148156005859375,-0.30277499556541443,0.3932499885559082,-0.1588124930858612
1772402194377212200,5.168212158203125,-0.44013750553131104,1.852674961090088,0.3909125030040741
1772402194397268000,5.18826806640625,0.0019249999895691872,1.1368499994277954,3.1668999195098877
1772402194417323800,5.20832373046875,0.11481250077486038,-0.6943749785423279,4.382400035858154
1772402194437379800,5.2283798828125,-0.07590000331401825,-1.7958874702453613,3.0636374950408936
1772402194457435600,5.248435546875,0.04455000162124634,-1.3516249656677246,0.692312479019165
1772402194477491700,5.26849169921875,0.29163751006126404,-0.517549991607666,-1.1483999490737915
1772402194497547500,5.288547607421875,0.6560124754905701,-0.015812499448657036,-2.152975082397461
1772402194517603600,5.308603515625,0.7071624994277954,-0.20432500541210175,-2.204124927520752
1772402194537659600,5.32865966796875,0.5995000004768372,-0.7199500203132629,-1.8482749462127686
1772402194557715500,5.348715576171875,0.5515124797821045,-1.0608124732971191,-1.6373499631881714
1772402194577771500,5.368771484375,0.7114250063896179,-0.9820249676704407,-1.8184374570846558
1772402194597827300,5.388827392578125,1.1023374795913696,-0.7529500126838684,-2.2402875423431396
1772402194617883400,5.40888330078125,1.3803625106811523,-0.43972501158714294,-2.5492498874664307
1772402194637939200,5.428939208984375,1.266374945640564,-0.07548750191926956,-2.5332999229431152
1772402194657995300,5.448995361328125,0.7242124676704407,0.19827499985694885,-2.0497124195098877
1772402194678051000,5.469051025390625,0.06902500241994858,0.3698749840259552,-1.4008499383926392
1772402194698107000,5.48910693359375,-0.4230875074863434,0.6957499980926514,-1.232550024986267
1772402194718163000,5.509162841796875,-0.708674967288971,0.9055749773979187,-1.1782374382019043
1772402194738219000,5.529218994140625,-0.7214624881744385,0.8108375072479248,-1.039775013923645
1772402194758274800,5.54927490234375,-0.28146249055862427,0.4199250042438507,-1.0269875526428223
1772402194778330600,5.56933056640625,0.2171124964952469,-0.07548750191926956,-1.1441375017166138
1772402194798386700,5.58938671875,0.517549991607666,-0.296037495136261,-1.1687500476837158
1772402194818442500,5.6094423828125,0.7401624917984009,-0.36629998683929443,-1.0366125106811523
1772402194838498600,5.62949853515625,0.7123875021934509,-0.045649997889995575,-1.0344125032424927
1772402194858554400,5.649554443359375,0.48867499828338623,0.5211250185966492,-1.1463375091552734
1772402194878610200,5.669610107421875,0.13612499833106995,0.219587504863739,-0.478362500667572
1772402194898666200,5.689666259765625,-0.42102500796318054,-0.305525004863739,0.48881250619888306
1772402194918722300,5.709722412109375,-0.8790374994277954,-0.19263750314712524,0.9182249903678894
1772402194938777900,5.72977783203125,-1.177412509918213,0.17173749208450317,1.0769000053405762
1772402194958834000,5.749833984375,-1.4958624839782715,0.4156624972820282,1.3304499387741089
1772402194978890000,5.769889892578125,-1.730162501335144,0.5722749829292297,1.6755750179290771
1772402194998945800,5.78994580078125,-1.6246999502182007,0.49018749594688416,1.8705500364303589
1772402195019001900,5.810001953125,-1.5566375255584717,0.4816625118255615,2.0431125164031982
1772402195039057700,5.8300576171875,-1.3648250102996826,0.2579500079154968,2.178412437438965
1772402195059113500,5.850113525390625,-0.9781749844551086,0.19401249289512634,1.8588625192642212
1772402195079169300,5.870169189453125,-0.4071374833583832,0.718162477016449,1.117324948310852
1772402195099225300,5.890225341796875,-0.018287500366568565,1.2347500324249268,0.6305750012397766
1772402195119281400,5.910281494140625,-0.0364375002682209,1.8281999826431274,0.6135249733924866
1772402195139337200,5.930337158203125,-0.2675749957561493,2.300100088119507,0.9862874746322632
1772402195159393300,5.950393310546875,-0.33371248841285706,2.01877498626709,1.4913250207901
1772402195179449000,5.970448974609375,-0.25478750467300415,1.296625018119812,2.0431125164031982
1772402195199505000,5.9905048828125,-0.1280124932527542,0.5413374900817871,2.466062545776367
1772402195219561000,6.01056103515625,0.06366249918937683,-0.0765874981880188,2.320037603378296
1772402195239616800,6.03061669921875,0.35557499527931213,-0.17448750138282776,1.7469375133514404
1772402195259672600,6.050672607421875,0.6986374855041504,-0.2287999987602234,1.3017125129699707
1772402195279728600,6.070728759765625,0.8786249756813049,-0.4652999937534332,0.8841249942779541
1772402195299784700,6.09078466796875,0.8999375104904175,-0.609125018119812,0.43876248598098755
1772402195319840300,6.11084033203125,0.8797249794006348,-0.7881500124931335,0.13846249878406525
1772402195339896300,6.130896240234375,0.941462516784668,-1.0630124807357788,0.12993749976158142
1772402195359952400,6.150952392578125,1.1577500104904175,-1.2302124500274658,0.1564749926328659
1772402195380008200,6.17100830078125,1.3345749378204346,-1.273937463760376,0.009487500414252281
1772402195400064300,6.191064208984375,1.1384999752044678,-1.0810250043869019,-0.5092999935150146
1772402195420120000,6.2111201171875,0.6400625109672546,-0.07975000143051147,-1.6682875156402588
1772402195440175900,6.23117578125,0.32999998331069946,0.6297500133514404,-2.3638999462127686
1772402195460232000,6.25123193359375,0.342787504196167,-0.006187499966472387,-1.8259999752044678
1772402195480287700,6.271287841796875,0.4067249894142151,-0.342787504196167,-1.2421749830245972
1772402195500343800,6.29134375,0.027499999850988388,0.0032999999821186066,-0.0010999999940395355
1772402195520399600,6.311399658203125,-0.20583750307559967,0.06297499686479568,2.882550001144409
1772402195540455400,6.331455322265625,-0.44013750553131104,-0.04028749838471413,4.531587600708008
1772402195560511500,6.351511474609375,-0.2942500114440918,-0.3546124994754791,2.9442875385284424
1772402195580567600,6.371567626953125,0.1190750002861023,-0.23842500150203705,0.5442249774932861
1772402195600623400,6.391623291015625,0.2447499930858612,-0.15853749215602875,-1.474412441253662
1772402195620679400,6.411679443359375,0.6080250144004822,-0.1522125005722046,-2.6365625858306885
1772402195640735200,6.4317353515625,0.8860499858856201,-0.39077499508857727,-2.7836875915527344
1772402195660791000,6.451791015625,1.0405999422073364,-0.6719624996185303,-2.7462875843048096
1772402195680846800,6.471846923828125,1.207800030708313,-0.8051999807357788,-3.0062999725341797
1772402195700903000,6.49190283203125,1.38462495803833,-0.5047624707221985,-3.6368749141693115
1772402195720959000,6.511958984375,1.34089994430542,0.13337500393390656,-3.8403749465942383
1772402195741014800,6.532014892578125,1.1012375354766846,0.5444999933242798,-3.1075000762939453
1772402195761070600,6.552070556640625,0.6591749787330627,0.5317124724388123,-1.8686250448226929
1772402195781126700,6.572126708984375,0.12127500027418137,0.1120624989271164,-0.6957499980926514
1772402195801182500,6.592182373046875,-0.2835249900817871,-0.44302499294281006,-0.03423750028014183
1772402195821238500,6.612238525390625,-0.4188250005245209,-0.6528499722480774,0.01484999991953373
1772402195841294300,6.63229443359375,-0.33687499165534973,-0.2639999985694885,-0.31968748569488525
1772402195861350100,6.65235009765625,-0.19511249661445618,0.2653749883174896,-0.8160625100135803
1772402195881406200,6.67240625,-0.005499999970197678,0.18232500553131104,-1.0707124471664429
1772402195901462000,6.6924619140625,0.319412499666214,-0.2512125074863434,-1.0770374536514282
1772402195921517800,6.712517822265625,0.7327374815940857,-0.5292375087738037,-1.097249984741211
1772402195941574000,6.732573974609375,1.1140249967575073,-0.5814874768257141,-1.2581249475479126
1772402195961630000,6.7526298828125,1.2962124347686768,-0.29809999465942383,-1.4200999736785889
1772402195981685800,6.772685791015625,0.9574124813079834,0.7244874835014343,-1.7546374797821045
1772402196001741600,6.792741455078125,0.1648624986410141,1.3562999963760376,-1.6501375436782837
1772402196021797400,6.81279736328125,-0.5062749981880188,0.5785999894142151,-0.4890874922275543
1772402196041853400,6.832853515625,-0.7948874831199646,-0.17778749763965607,0.6806250214576721
1772402196061909200,6.8529091796875,-0.864187479019165,-0.18837499618530273,1.2185250520706177
1772402196081965000,6.872965087890625,-0.9813374876976013,0.4422000050544739,1.2025749683380127
1772402196102021000,6.893021240234375,-1.1070125102996826,1.0760749578475952,0.7082625031471252
1772402196122077200,6.9130771484375,-1.314774990081787,1.0291874408721924,0.7210500240325928
1772402196142133000,6.933133056640625,-1.461762547492981,0.5359749794006348,1.475237488746643
1772402196162188800,6.953188720703125,-1.4085500240325928,0.17599999904632568,2.0601625442504883
1772402196182244900,6.973244873046875,-1.239150047302246,-0.06270000338554382,2.454237461090088
1772402196202300700,6.99330078125,-1.0282249450683594,-0.04138749837875366,2.4510750770568848
1772402196222356500,7.0133564453125,-0.6692125201225281,0.1993750035762787,1.8694499731063843
1772402196242412500,7.03341259765625,-0.33797499537467957,0.7917249798774719,1.3719749450683594
1772402196262468400,7.05346826171875,-0.09184999763965607,1.3435125350952148,1.1929500102996826
1772402196282524200,7.073524169921875,-0.15468749403953552,1.5800124406814575,1.1695749759674072
1772402196302580200,7.093580322265625,-0.24199999868869781,1.703487515449524,1.365512490272522
1772402196322636000,7.113635986328125,-0.2186249941587448,1.5959625244140625,1.715999960899353
1772402196342692000,7.133692138671875,-0.1611499935388565,1.3657875061035156,1.854599952697754
1772402196362747600,7.15374755859375,-0.004537499975413084,0.8779374957084656,1.965287446975708
1772402196382803700,7.1738037109375,0.22990000247955322,0.25905001163482666,2.171950101852417
1772402196402859800,7.19385986328125,0.320374995470047,-0.3844499886035919,2.343549966812134
1772402196422915600,7.21391552734375,0.3012624979019165,-0.7253124713897705,2.2242000102996826
1772402196442971400,7.233971435546875,0.3811500072479248,-0.7870500087738037,1.7469375133514404
1772402196463027500,7.25402734375,0.45787498354911804,-0.4493499994277954,0.9532874822616577
1772402196483083000,7.2740830078125,0.6452875137329102,-0.045649997889995575,0.23003749549388885
1772402196503139000,7.29413916015625,0.8168874979019165,-0.08401250094175339,-0.24406249821186066
1772402196523195100,7.314195068359375,0.9638749957084656,-0.43972501158714294,-0.5838249921798706
1772402196543251000,7.3342509765625,1.0469249486923218,-0.8370999693870544,-0.7170624732971191
1772402196563306800,7.354306640625,0.8562124967575073,-0.9948124885559082,-0.6392375230789185
1772402196583362800,7.37436279296875,0.3768875002861023,-0.8552500009536743,-0.8501625061035156
1772402196603418600,7.394418701171875,0.0008249999955296516,-0.06902500241994858,-2.3746249675750732
1772402196623474400,7.414474365234375,0.19359999895095825,0.5817624926567078,-3.293950080871582
1772402196643530500,7.434530517578125,0.4078249931335449,0.25478750467300415,-2.454512596130371
1772402196663586300,7.45458642578125,0.13296249508857727,0.7926874756813049,-0.9908249974250793
1772402196683642400,7.474642333984375,-0.16637499630451202,1.0195624828338623,1.7661875486373901
1772402196703698200,7.4946982421875,-0.22824999690055847,-0.18205000460147858,3.8625125885009766
1772402196723754000,7.51475390625,-0.28462499380111694,-0.9106624722480774,3.4087624549865723
1772402196743810000,7.53481005859375,-0.2835249900817871,-0.7913125157356262,1.4166624546051025
1772402196763865900,7.554865966796875,-0.2761000096797943,-0.3353624939918518,-0.41346248984336853
1772402196783921700,7.574921630859375,-0.18768750131130219,0.2525874972343445,-1.445675015449524
1772402196803977700,7.594977783203125,-0.1313125044107437,0.4838624894618988,-1.621399998664856
1772402196824033500,7.615033447265625,-0.10779999941587448,0.1471250057220459,-1.2731125354766846
1772402196844089300,7.63508935546875,-0.11948750168085098,-0.43546250462532043,-0.956725001335144
1772402196864145200,7.655145263671875,-0.07906249910593033,-0.7103250026702881,-0.7244874835014343
1772402196884201200,7.675201171875,0.006187499966472387,-0.4749250113964081,-0.7095000147819519
1772402196904257000,7.695257080078125,0.1350249946117401,-0.008387500420212746,-0.8320124745368958
1772402196924312800,7.715312744140625,0.23622499406337738,0.2217874974012375,-0.8714749813079834
1772402196944368600,7.73536865234375,0.18081249296665192,0.08002500236034393,-0.7808625102043152
1772402196964424700,7.7554248046875,0.15207499265670776,-0.19483749568462372,-0.6434999704360962
1772402196984480500,7.77548046875,0.18301250040531158,-0.47382500767707825,-0.5135625004768372
1772402197004536300,7.795536376953125,0.18837499618530273,-0.7721999883651733,-0.6488624811172485
1772402197024592400,7.81559228515625,0.22343750298023224,-0.7731624841690063,-0.7777000069618225
1772402197044648200,7.835648193359375,0.2628999948501587,-0.4248749911785126,-0.7574874758720398
1772402197064704000,7.8557041015625,0.24901250004768372,-0.06696250289678574,-0.8438374996185303
1772402197084760000,7.875760009765625,0.18191249668598175,0.03959999978542328,-0.8544250130653381
1772402197104816000,7.895816162109375,0.04881250113248825,0.023649999871850014,-0.6648125052452087
1772402197124871700,7.91587158203125,-0.13021250069141388,-0.03396249935030937,-0.41552498936653137
1772402197144927700,7.935927734375,-0.2484624981880188,-0.15427500009536743,-0.14602500200271606
1772402197164983800,7.95598388671875,-0.30277499556541443,-0.1414874941110611,0.0648999959230423
1772402197185039600,7.97603955078125,-0.24956250190734863,-0.04028749838471413,0.0765874981880188
1772402197205095400,7.996095458984375,-0.15152500569820404,-0.05843750014901161,0.013749999925494194
1772402197225151200,8.016151123046875,-0.21216249465942383,-0.0147124994546175,0.2087250053882599
1772402197245207000,8.03620703125,-0.3465000092983246,0.13859999179840088,0.33329999446868896
1772402197265263000,8.05626318359375,-0.3932499885559082,0.2451625019311905,0.25657498836517334
1772402197285319000,8.07631884765625,-0.491287499666214,0.5487625002861023,0.3312374949455261
1772402197305375000,8.096375,-0.5350124835968018,0.7884249687194824,0.6166874766349792
1772402197325430800,8.1164306640625,-0.41456249356269836,0.6052749752998352,0.7414000034332275
1772402197345486600,8.136486572265625,-0.14506250619888306,0.06943749636411667,0.8904500007629395
1772402197365542400,8.15654248046875,0.006187499966472387,-0.2213750034570694,1.0001749992370605
1772402197385598500,8.176598388671875,-0.055687498301267624,-0.028599999845027924,0.8307750225067139
1772402197405654300,8.196654296875,0.009349999949336052,0.34636250138282776,0.5933125019073486
1772402197425710000,8.2167099609375,0.14781250059604645,0.6595875024795532,0.3429250121116638
1772402197445766000,8.236765869140624,0.08071249723434448,1.104812502861023,0.43876248598098755
1772402197465822000,8.256822021484375,-0.0471624992787838,1.637487530708313,0.7818250060081482
1772402197485877800,8.276877685546875,-0.07590000331401825,1.969825029373169,1.0289125442504883
1772402197505933600,8.29693359375,0.05403750017285347,1.472350001335144,1.4199625253677368
1772402197525989600,8.31698974609375,0.0775500014424324,0.23127499222755432,2.0079123973846436
1772402197546045400,8.33704541015625,-0.10147500038146973,-0.45471251010894775,1.9919624328613281
1772402197566101200,8.357101318359375,0.17765000462532043,-0.06696250289678574,1.089687466621399
1772402197586157300,8.3771572265625,0.49720001220703125,0.13653749227523804,0.6518874764442444
1772402197606213000,8.397213134765625,0.6687999963760376,0.07259999960660934,0.3568125069141388
1772402197626269000,8.41726904296875,0.6847500205039978,-0.22673749923706055,0.02447500079870224
1772402197646325000,8.437324951171876,0.4525125026702881,-0.5058624744415283,-0.2919124960899353
1772402197666380800,8.457380859375,0.2521750032901764,-0.40039998292922974,-0.506137490272522
1772402197686436600,8.4774365234375,0.20006249845027924,-0.19263750314712524,-0.5444999933242798
1772402197706492400,8.497492431640625,0.15207499265670776,-0.1116499975323677,-0.5721374750137329
1772402197726548500,8.517548583984375,0.12553749978542328,-0.0019249999895691872,-0.5741999745368958
1772402197746604300,8.537604248046875,0.22673749923706055,0.09075000137090683,-0.5667750239372253
1772402197766660000,8.55766015625,0.5238749980926514,-0.21504999697208405,-0.9226250052452087
1772402197786716200,8.577716064453124,1.0032000541687012,-1.458187460899353,-2.4875125885009766
1772402197806772000,8.59777197265625,0.19043749570846558,0.43367499113082886,-3.1766624450683594
1772402197826827800,8.617827880859375,-0.02681249938905239,2.6452250480651855,0.9820249676704407
1772402197846883800,8.6378837890625,0.24901250004768372,0.6499624848365784,4.500649929046631
1772402197866939600,8.657939697265626,0.5218124985694885,-1.6882250308990479,4.380337238311768
1772402197886995500,8.677995361328126,0.21601249277591705,-1.356987476348877,2.0739123821258545
1772402197907051300,8.69805126953125,-0.18988749384880066,0.23980000615119934,-0.4848249852657318
1772402197927107300,8.718107421875,-0.3507624864578247,1.2017500400543213,-1.7641249895095825
1772402197947163100,8.7381630859375,-0.2835249900817871,0.8844000101089478,-1.7589000463485718
1772402197967219000,8.758218994140625,-0.14836250245571136,-0.11384999752044678,-1.106874942779541
1772402197987275000,8.77827490234375,-0.011962499469518661,-1.0843249559402466,-0.5411999821662903
1772402198007330800,8.798330810546876,0.1190750002861023,-1.4624500274658203,-0.41772499680519104
1772402198027386600,8.81838671875,0.24365000426769257,-1.2791625261306763,-0.7020750045776367
1772402198047442400,8.8384423828125,0.27252501249313354,-0.775362491607666,-1.1111375093460083
1772402198067498200,8.858498291015625,0.2287999987602234,-0.23416249454021454,-1.4073125123977661
1772402198087554300,8.87855419921875,0.2512125074863434,-0.02213750034570694,-1.5105749368667603
1772402198107610000,8.898610107421876,0.3502124845981598,-0.21078750491142273,-1.439212441444397
1772402198127666000,8.918666015625,0.41635000705718994,-0.4866124987602234,-1.297587513923645
1772402198147721700,8.9387216796875,0.38225001096725464,-0.582587480545044,-1.291124939918518
1772402198167777500,8.958777587890625,0.2564375102519989,-0.5303375124931335,-1.2953875064849854
1772402198187833600,8.97883349609375,0.05403750017285347,-0.4643374979496002,-1.3391125202178955
1772402198207889400,8.998889404296875,-0.08538749814033508,-0.46860000491142273,-1.4999874830245972
1772402198227945200,9.0189453125,-0.10037499666213989,-0.47066250443458557,-1.456262469291687
1772402198248001300,9.039001220703126,-0.09817499667406082,-0.4142875075340271,-1.03125
1772402198268057000,9.05905712890625,-0.06943749636411667,-0.20762500166893005,-0.4081000089645386
1772402198288113000,9.07911279296875,-0.1237500011920929,-0.12870000302791595,-0.15771250426769257
1772402198308168700,9.099168701171875,-0.21326249837875366,-0.1223749965429306,-0.22384999692440033
1772402198328224800,9.119224853515625,-0.16321249306201935,-0.017875000834465027,-0.17159999907016754
1772402198348280300,9.1392802734375,-0.1313125044107437,0.16417500376701355,0.1681624948978424
1772402198368336400,9.15933642578125,-0.19731250405311584,0.3111625015735626,0.5857499837875366
1772402198388392400,9.179392333984374,-0.43697500228881836,0.4965125024318695,0.9310125112533569
1772402198408448000,9.199447998046875,-0.5956500172615051,0.5211250185966492,1.0746999979019165
1772402198428504000,9.219504150390625,-0.9248250126838684,0.523187518119812,1.1547249555587769
1772402198448559900,9.239559814453125,-1.1731499433517456,0.5381749868392944,1.2792999744415283
1772402198468615700,9.25961572265625,-1.0634249448776245,0.3102000057697296,1.2867250442504883
1772402198488671700,9.279671630859376,-0.9068124890327454,0.0193875003606081,1.2025749683380127
1772402198508727600,9.2997275390625,-0.6202625036239624,0.16843749582767487,0.8542875051498413
1772402198528783400,9.319783447265625,-0.3016749918460846,0.6425374746322632,0.4600749909877777
1772402198548839200,9.339839111328125,-0.14506250619888306,1.0867999792099,0.1671999990940094
1772402198568895200,9.359895263671875,-0.07796250283718109,1.3935624361038208,0.1746249943971634
1772402198588950800,9.37995068359375,-0.1993750035762787,1.5340875387191772,0.7519875168800354
1772402198609006800,9.4000068359375,-0.22605000436306,1.3828375339508057,1.5509999990463257
1772402198629062700,9.420062744140624,-0.14079999923706055,0.9802374839782715,2.102787494659424
1772402198649118500,9.440118408203125,-0.0012374999932944775,0.2866874933242798,2.4618000984191895
1772402198669174500,9.460174560546875,0.0999625027179718,-0.23952500522136688,2.766362428665161
1772402198689230300,9.480230224609375,0.29809999465942383,-0.21504999697208405,2.6065874099731445
1772402198709286100,9.5002861328125,0.5196124911308289,0.07369999587535858,2.009012460708618
1772402198729342000,9.520342041015626,0.739062488079071,0.233474999666214,1.2324124574661255
1772402198749398000,9.54039794921875,0.8754624724388123,0.14079999923706055,0.49101248383522034
1772402198769453800,9.560453857421875,0.7794874906539917,0.14079999923706055,0.0765874981880188
1772402198789509600,9.580509521484375,0.5889124870300293,0.19511249661445618,-0.018149999901652336
1772402198809565700,9.600565673828125,0.600600004196167,0.031075000762939453,-0.08208750188350677
1772402198829621500,9.62062158203125,0.6443250179290771,-0.342787504196167,-0.12361250072717667
1772402198849677300,9.64067724609375,0.563337504863739,-0.5484874844551086,0.09157499670982361
1772402198869733000,9.660733154296874,0.33219999074935913,-0.494174987077713,0.1746249943971634
1772402198889789000,9.680788818359375,0.14354999363422394,-0.17242500185966492,-0.06503749638795853
1772402198909844700,9.7008447265625,0.7092249989509583,-0.6528499722480774,-0.7330124974250793
1772402198929900800,9.72090087890625,0.8860499858856201,-1.033174991607666,-1.8280625343322754
1772402198949956600,9.74095654296875,-0.38472500443458557,0.7320500016212463,-1.4510375261306763
1772402198970012400,9.761012451171876,-0.771512508392334,0.8694124817848206,0.7583125233650208
1772402198990068500,9.781068359375,0.0625625029206276,-0.1574375033378601,2.3924999237060547
1772402199010124000,9.8011240234375,0.296999990940094,-0.35241249203681946,2.680150032043457
1772402199030180000,9.82118017578125,-0.0012374999932944775,0.050187498331069946,1.4134999513626099
1772402199050236000,9.84123583984375,-0.10353749990463257,0.4081000089645386,-0.46351251006126404
1772402199070291700,9.861291748046876,-0.1685750037431717,0.46351251006126404,-1.4275250434875488
1772402199090347500,9.881347412109376,-0.28036248683929443,0.256850004196167,-1.4414124488830566
1772402199110403300,9.9014033203125,-0.30703750252723694,-0.03396249935030937,-0.9428374767303467
1772402199130459100,9.921459228515625,-0.2569875121116638,-0.22247499227523804,-0.6019750237464905
1772402199150515200,9.94151513671875,-0.1919499933719635,-0.15111249685287476,-0.5198875069618225
1772402199170570800,9.96157080078125,-0.19841249287128448,-0.060499999672174454,-0.5699374675750732
1772402199190626800,9.981626708984376,-0.16321249306201935,0.020349999889731407,-0.5678749680519104
1772402199210682600,10.0016826171875,-0.15358750522136688,-0.10106249898672104,-0.523187518119812
1772402199230738400,10.021738525390624,-0.11948750168085098,-0.3162499964237213,-0.4390375018119812
1772402199250794200,10.041794189453125,-0.007699999958276749,-0.35983750224113464,-0.3409999907016754
1772402199270850000,10.06185009765625,-0.0193875003606081,-0.30662500858306885,-0.46873748302459717
1772402199290905900,10.08190576171875,-0.1046374961733818,-0.12870000302791595,-0.7255874872207642
1772402199310962000,10.1019619140625,-0.18136249482631683,0.09075000137090683,-0.8788999915122986
1772402199331018000,10.12201806640625,-0.22921249270439148,-0.31308749318122864,-0.5411999821662903
1772402199351073500,10.142073486328124,-0.10243749618530273,-0.4899125099182129,-0.46351251006126404
1772402199371129600,10.162129638671875,-0.006599999964237213,-0.057337500154972076,-0.5359749794006348
1772402199391185400,10.182185302734375,-0.08332499861717224,0.3250499963760376,-0.7469000220298767
1772402199411241200,10.2022412109375,-0.10147500038146973,0.42844998836517334,-0.6722375154495239
