time,seconds_elapsed,z,y,x
1772408589101853200,0.141853271484375,2.165212392807007,-0.8331124782562256,-0.644462525844574
1772408589121915000,0.161914794921875,2.44846248626709,-2.2083873748779297,-0.6518874764442444
1772408589141976600,0.1819765625,2.2631125450134277,-3.047687530517578,-0.5645750164985657
1772408589162038300,0.202038330078125,1.4663000106811523,-2.562037467956543,-0.5677375197410583
1772408589182099700,0.222099609375,0.73232501745224,-1.1131999492645264,-0.5997750163078308
1772408589202161400,0.242161376953125,0.3871999979019165,0.49527499079704285,-0.39627498388290405
1772408589222223000,0.26222314453125,0.6769124865531921,1.2835625410079956,-0.1373624950647354
1772408589242284500,0.282284423828125,0.6652249693870544,1.2537250518798828,-0.28971248865127563
1772408589262346200,0.30234619140625,0.38830000162124634,1.1430374383926392,-0.6135249733924866
1772408589282407700,0.32240771484375,0.03244999796152115,1.206974983215332,-0.7903500199317932
1772408589302469400,0.342469482421875,-0.322299987077713,0.9597499966621399,-0.7137625217437744
1772408589322531000,0.362531005859375,-0.5224999785423279,0.2237125039100647,-0.6424000263214111
1772408589342592500,0.382592529296875,-0.6003249883651733,-0.35791251063346863,-0.4622749984264374
1772408589362654200,0.402654296875,-0.5821750164031982,-0.4164874851703644,-0.40369999408721924
1772408589382715600,0.422715576171875,-0.40851250290870667,0.2971374988555908,-0.7308124899864197
1772408589402777300,0.44277734375,-0.1251250058412552,1.1206250190734863,-1.0481624603271484
1772408589422839000,0.462839111328125,0.020762499421834946,1.3028124570846558,-1.18236243724823
1772408589442900500,0.482900390625,0.0016499999910593033,1.1473000049591064,-1.1728750467300415
1772408589462962200,0.502962158203125,0.08470000326633453,0.2578125,-0.8575875163078308
1772408589483023600,0.523023681640625,0.05376249924302101,-0.8425999879837036,-0.26413750648498535
1772408589503085300,0.543085205078125,0.1326874941587448,-1.6512374877929688,0.14492499828338623
1772408589523147000,0.56314697265625,0.3265624940395355,-1.464787483215332,0.3973749876022339
1772408589543208400,0.58320849609375,0.19442500174045563,-0.4197874963283539,0.11192499846220016
1772408589563270100,0.603270263671875,0.045237500220537186,0.32807499170303345,-0.5656750202178955
1772408589583331600,0.62333154296875,-0.06228749826550484,-0.4729999899864197,-1.0045750141143799
1772408589603393300,0.643393310546875,-0.30841249227523804,-1.4860999584197998,-1.2516624927520752
1772408589623455000,0.663455078125,-0.6674249768257141,-1.232550024986267,-1.0429375171661377
1772408589643516400,0.683516357421875,-0.7302625179290771,0.09803749620914459,-0.6274124979972839
1772408589663578000,0.703578125,-0.382937490940094,0.9832624793052673,-0.4633750021457672
1772408589683639600,0.7236396484375,-0.2700499892234802,1.695924997329712,-0.49527499079704285
1772408589703701200,0.743701171875,-0.520437479019165,2.2998249530792236,-0.8425999879837036
1772408589723763000,0.763762939453125,-0.7110124826431274,2.5470499992370605,-1.4178999662399292
1772408589743824400,0.783824462890625,-0.4969249963760376,1.9100124835968018,-1.623462438583374
1772408589763886000,0.803885986328125,-0.14217500388622284,0.9395374655723572,-1.0694749355316162
1772408589783947500,0.823947509765625,-0.037812501192092896,0.20350000262260437,-0.015949999913573265
1772408589804009200,0.84400927734375,-0.016499999910593033,-0.28558748960494995,1.0162625312805176
1772408589824070700,0.864070556640625,-0.010174999944865704,-0.7979124784469604,1.3326499462127686
1772408589844132400,0.88413232421875,-0.1518000066280365,-1.2016124725341797,0.6978124976158142
1772408589864193800,0.90419384765625,-0.11137499660253525,-1.5041124820709229,0.5167250037193298
1772408589884255500,0.92425537109375,-0.04097500070929527,-1.3613874912261963,1.0685124397277832
1772408589904317200,0.944317138671875,0.18053749203681946,-1.2484999895095825,1.1185624599456787
1772408589924378600,0.964378662109375,0.41167500615119934,-1.3539625406265259,0.9215250015258789
1772408589944440300,0.9844404296875,0.7067499756813049,-0.8309124708175659,0.6796625256538391
1772408589964501800,1.004501708984375,0.5821750164031982,-0.5858874917030334,0.5975750088691711
1772408589984563500,1.0245634765625,0.2870999872684479,-0.9534249901771545,-0.23649999499320984
1772408590004625000,1.044625,-0.022962499409914017,-1.7769124507904053,-1.288925051689148
1772408590024686600,1.0646865234375,-0.12196250259876251,-1.963362455368042,-1.005537509918213
1772408590044748300,1.084748291015625,-0.3158375024795532,-0.5102624893188477,-0.7766000032424927
1772408590064809700,1.104809814453125,-0.43834999203681946,0.8830249905586243,-0.9480624794960022
1772408590084871200,1.12487109375,-0.1975875049829483,0.9204249978065491,-0.7925499677658081
1772408590104932900,1.144932861328125,0.32752498984336853,0.295074999332428,-0.5113624930381775
1772408590124994300,1.164994384765625,0.649275004863739,-0.047987498342990875,-0.019112499430775642
1772408590145056000,1.185055908203125,0.7015249729156494,0.16087499260902405,0.16940000653266907
1772408590165117400,1.205117431640625,0.7706875205039978,0.23856249451637268,0.01924999989569187
1772408590185179000,1.225178955078125,1.0817124843597412,-0.4133250117301941,-0.005362499970942736
1772408590205240800,1.24524072265625,1.110587477684021,-1.3283874988555908,0.39311251044273376
1772408590225302300,1.26530224609375,0.71527498960495,-1.778975009918213,1.307075023651123
1772408590245363700,1.28536376953125,0.21683749556541443,-1.4168000221252441,1.8440124988555908
1772408590265425400,1.30542529296875,-0.06971249729394913,-0.6785625219345093,1.1686124801635742
1772408590285487000,1.325487060546875,-0.09638749808073044,0.2237125039100647,0.3345375061035156
1772408590305548500,1.345548583984375,-0.1634874939918518,0.6956124901771545,0.09803749620914459
1772408590325610000,1.36560986328125,-0.43408748507499695,0.590149998664856,0.34732499718666077
1772408590345671700,1.385671630859375,-0.6311249732971191,0.27156248688697815,0.6859874725341797
1772408590365733000,1.405733154296875,-0.6194375157356262,0.16609999537467957,0.699874997138977
1772408590385794800,1.425794921875,-0.37661248445510864,0.31418749690055847,0.4548499882221222
1772408590405856300,1.445856201171875,-0.03355000168085098,0.6529874801635742,0.4250124990940094
1772408590425918000,1.46591796875,0.2274249941110611,0.8670749664306641,0.8969125151634216
1772408590445979400,1.4859794921875,0.06338749825954437,0.4090625047683716,1.0429375171661377
1772408590466041000,1.506041015625,0.19552500545978546,0.021312499418854713,0.5230500102043152
1772408590486102500,1.5261025390625,0.25093749165534973,0.41538751125335693,0.4815250039100647
1772408590506164200,1.546164306640625,-0.18273749947547913,1.4711124897003174,0.8425999879837036
1772408590526226000,1.566225830078125,-0.9508125185966492,2.197662591934204,0.3877499997615814
1772408590546287000,1.586287109375,-1.3886125087738037,2.232724905014038,-0.12993749976158142
1772408590566348800,1.606348876953125,-1.2394249439239502,1.657562494277954,-0.318450003862381
1772408590586410200,1.62641015625,-0.6216375231742859,0.6348375082015991,-0.49953749775886536
1772408590606472000,1.646471923828125,-0.170912504196167,-0.18108749389648438,-0.272662490606308
1772408590626533600,1.66653369140625,0.11027500033378601,-0.5741999745368958,0.3195500075817108
1772408590646594800,1.6865947265625,0.19868749380111694,-0.7990124821662903,0.744700014591217
1772408590666656500,1.706656494140625,0.2913624942302704,-0.8170250058174133,0.6029375195503235
1772408590686718200,1.72671826171875,0.420199990272522,-0.43353748321533203,0.3834874927997589
1772408590706779600,1.746779541015625,0.4351874887943268,-0.10436250269412994,0.45704999566078186
1772408590726841300,1.76684130859375,0.382937490940094,-0.17682500183582306,0.5167250037193298
1772408590746902800,1.78690283203125,0.26468750834465027,-0.2759625017642975,0.47079998254776
1772408590766964000,1.8069638671875,0.1518000066280365,-0.33137500286102295,0.40273749828338623
1772408590787026000,1.82702587890625,0.19016249477863312,-0.6370375156402588,0.13420000672340393
1772408590807087400,1.84708740234375,0.3073124885559082,-0.8703749775886536,-0.17256249487400055
1772408590827148500,1.8671484375,0.4127750098705292,-0.8447999954223633,-0.20982499420642853
1772408590847210200,1.887210205078125,0.49486249685287476,-0.7979124784469604,-0.021312499418854713
1772408590867272000,1.90727197265625,0.4937624931335449,-0.8618500232696533,0.2854500114917755
1772408590887333400,1.92733349609375,0.3531000018119812,-0.6626124978065491,0.5091624855995178
1772408590907394800,1.947394775390625,0.30098751187324524,-0.19071249663829803,0.3057999908924103
1772408590927456300,1.967456298828125,0.2732124924659729,0.11921250075101852,0.04372499883174896
1772408590947518200,1.987518310546875,0.3382500112056732,0.4101625084877014,-0.18424999713897705
1772408590967579400,2.007579345703125,0.2870999872684479,0.45058751106262207,-0.7297124862670898
1772408590987640800,2.027640869140625,-0.06875000149011612,0.30992498993873596,-1.066312551498413
1772408591007702500,2.04770263671875,-0.46598750352859497,-0.0042624999769032,-0.6391000151634216
1772408591027764000,2.067763916015625,-0.8974624872207642,-0.07782500237226486,-0.36217498779296875
1772408591047825400,2.087825439453125,-1.2607375383377075,0.07562500238418579,-0.6391000151634216
1772408591067887000,2.10788720703125,-1.1350624561309814,0.7328749895095825,-0.8809624910354614
1772408591087948500,2.127948486328125,-0.5554999709129333,1.3847625255584717,-0.35475000739097595
1772408591108010000,2.148010009765625,0.022962499409914017,1.2570250034332275,0.691349983215332
1772408591128071400,2.168071533203125,0.31693750619888306,0.7979124784469604,1.4594249725341797
1772408591148133000,2.188133056640625,0.3957250118255615,0.5560500025749207,1.5797375440597534
1772408591168194600,2.208194580078125,0.34031251072883606,0.44206249713897705,1.3124375343322754
1772408591188256300,2.22825634765625,0.16885000467300415,0.3568125069141388,1.0620499849319458
1772408591208317700,2.248317626953125,-0.08470000326633453,0.4388999938964844,0.911899983882904
1772408591228379100,2.268379150390625,-0.29672500491142273,0.3610749840736389,0.6168249845504761
1772408591248440600,2.288440673828125,-0.4394499957561493,0.10119999945163727,0.08635000139474869
1772408591268502000,2.308501953125,-0.45003750920295715,0.0031624999828636646,-0.4292750060558319
1772408591288563700,2.328563720703125,-0.3445749878883362,-0.08841250091791153,-0.7297124862670898
1772408591308625200,2.348625244140625,-0.1592250019311905,-0.5849249958992004,-0.5549499988555908
1772408591328686600,2.3686865234375,0.022962499409914017,-1.1356124877929688,-0.015949999913573265
1772408591348748300,2.388748291015625,0.08249999582767487,-1.3007500171661377,0.36217498779296875
1772408591368809700,2.408809814453125,0.16885000467300415,-1.0855624675750732,0.3749625086784363
1772408591388871200,2.42887109375,0.2849000096321106,-0.608299970626831,0.3004375100135803
1772408591408932600,2.4489326171875,0.40741249918937683,-0.2737624943256378,0.3749625086784363
1772408591428994000,2.468994140625,0.2956250011920929,-0.31212499737739563,0.4442625045776367
1772408591449055700,2.4890556640625,0.21683749556541443,-0.5028374791145325,0.013887500390410423
1772408591469117200,2.5091171875,0.30951249599456787,-0.09693749994039536,-0.7541875243186951
1772408591489178600,2.5291787109375,0.1751749962568283,0.07672499865293503,-1.1024750471115112
1772408591509240000,2.549239990234375,-0.41497498750686646,-0.2993375062942505,-1.2527624368667603
1772408591529301800,2.5693017578125,-1.0881749391555786,-0.7532249689102173,-1.6681499481201172
1772408591549363200,2.58936328125,-1.1626999378204346,-0.6029375195503235,-1.9441125392913818
1772408591569424400,2.60942431640625,-0.6802124977111816,-0.06613750010728836,-1.9270625114440918
1772408591589486000,2.629486083984375,0.02502499893307686,-0.07562500238418579,-1.3923250436782837
1772408591609547500,2.649547607421875,0.4031499922275543,-0.37716248631477356,-0.524150013923645
1772408591629609000,2.66960888671875,0.6620625257492065,-0.47519999742507935,0.23223750293254852
1772408591649670700,2.689670654296875,0.8804125189781189,-0.37070000171661377,0.6711375117301941
1772408591669732000,2.709732177734375,0.935824990272522,-0.06283749639987946,0.8277499675750732
1772408591689793500,2.72979345703125,0.8559374809265137,0.09583749622106552,0.8724374771118164
1772408591709855000,2.74985498046875,0.7185750007629395,-0.10656250268220901,0.8447999954223633
1772408591729916400,2.76991650390625,0.5608624815940857,-0.27912500500679016,0.645562469959259
1772408591749978000,2.78997802734375,0.3669874966144562,-0.3834874927997589,0.272662490606308
1772408591770039600,2.81003955078125,0.1293874979019165,-0.43463748693466187,-0.11178749799728394
1772408591790101000,2.83010107421875,-0.08043749630451202,-0.3217499852180481,-0.3195500075817108
1772408591810162700,2.85016259765625,-0.2157374918460846,-0.2055625021457672,-0.14162500202655792
1772408591830224000,2.870223876953125,-0.23485000431537628,-0.17586250603199005,0.2055625021457672
1772408591850285300,2.890285400390625,-0.16142499446868896,-0.05004999786615372,0.4633750021457672
1772408591870347000,2.910346923828125,-0.02502499893307686,0.0873124971985817,0.6902499794960022
1772408591890408400,2.930408447265625,0.11233749985694885,0.09267500042915344,0.8809624910354614
1772408591910469600,2.9504697265625,0.22206249833106995,0.07768750190734863,1.0355124473571777
1772408591930531300,2.97053125,0.33605000376701355,0.24928750097751617,0.9523249864578247
1772408591950592800,2.9905927734375,0.41813749074935913,0.28654998540878296,0.45278748869895935
1772408591970654200,3.010654296875,0.22962500154972076,-0.35791251063346863,-0.5198875069618225
1772408591990715600,3.030715576171875,-0.08676250278949738,-0.8885250091552734,-1.4807374477386475
1772408592010777300,3.05077734375,-0.4127750098705292,-0.27486249804496765,-1.7778749465942383
1772408592030838500,3.070838623046875,-0.8846749663352966,0.6839249730110168,-1.438112497329712
1772408592050900000,3.09089990234375,-1.0466500520706177,1.106737494468689,-0.9289500117301941
1772408592070961700,3.110961669921875,-0.5438125133514404,0.8468624949455261,-0.3110249936580658
1772408592091023000,3.131023193359375,0.8218374848365784,0.13846249878406525,0.6732000112533569
1772408592111084300,3.151084228515625,2.0554873943328857,-0.9693750143051147,1.9131749868392944
1772408592131146000,3.17114599609375,2.357987403869629,-1.4232624769210815,2.8921749591827393
1772408592151207400,3.19120751953125,1.7986375093460083,-1.1452374458312988,3.006162405014038
1772408592171268900,3.211268798828125,1.0966999530792236,-0.38885000348091125,2.0729498863220215
1772408592191330300,3.231330322265625,0.2870999872684479,0.35997501015663147,0.7436000108718872
1772408592211391700,3.251391845703125,-0.620537519454956,0.7254499793052673,-0.14066250622272491
1772408592231453200,3.271453125,-1.204224944114685,0.6177874803543091,-0.737137496471405
1772408592251514600,3.2915146484375,-1.3278374671936035,0.7052375078201294,-1.4316500425338745
1772408592271576000,3.311576171875,-1.2223750352859497,1.4168000221252441,-1.9355875253677368
1772408592291637800,3.3316376953125,-0.9539750218391418,1.630887508392334,-1.831225037574768
1772408592311699200,3.35169921875,-0.8453499674797058,0.9565874934196472,-0.9204249978065491
1772408592331760400,3.371760498046875,-0.7856749892234802,-0.37400001287460327,0.38885000348091125
1772408592351822000,3.391822021484375,-0.5449125170707703,-1.2836999893188477,1.0907875299453735
1772408592371883500,3.411883544921875,-0.09102500230073929,-0.9726749658584595,0.7530875205993652
1772408592391945000,3.431945068359375,0.32752498984336853,-0.34622499346733093,0.06393750011920929
1772408592412006400,3.45200634765625,0.4394499957561493,-0.05115000158548355,-0.19923749566078186
1772408592432067800,3.47206787109375,0.3030500113964081,-0.2844874858856201,0.1256749927997589
1772408592452129300,3.49212939453125,0.1284250020980835,-0.590149998664856,0.23017500340938568
1772408592472190700,3.512190673828125,0.05912499874830246,-0.8277499675750732,-0.6146249771118164
1772408592492252200,3.532252197265625,-0.043175000697374344,-1.181399941444397,-1.7778749465942383
1772408592512313600,3.552313720703125,-0.4351874887943268,-1.3017125129699707,-2.0772125720977783
1772408592532375300,3.572375244140625,-0.7398874759674072,-0.940637469291687,-1.4668500423431396
1772408592552436500,3.5924365234375,-0.7823749780654907,0.11715000122785568,-0.7062000036239624
1772408592572498000,3.612497802734375,-0.649275004863739,1.0449999570846558,-0.2886124849319458
1772408592592559600,3.6325595703125,-0.15386250615119934,1.2260874509811401,-0.019112499430775642
1772408592612620800,3.652620849609375,0.4809750020503998,0.6604124903678894,0.4133250117301941
1772408592632682200,3.67268212890625,0.8069875240325928,0.12251249700784683,0.9693750143051147
1772408592652743700,3.69274365234375,0.8761500120162964,0.030799999833106995,1.2953875064849854
1772408592672805000,3.71280517578125,0.9261999726295471,-0.11192499846220016,1.0855624675750732
1772408592692866600,3.732866455078125,0.9241374731063843,-0.24186250567436218,0.47079998254776
1772408592712928000,3.752927978515625,0.5523374676704407,-0.24392500519752502,0.05224999785423279
1772408592732989400,3.772989501953125,0.02186249941587448,-0.5497249960899353,-0.09583749622106552
1772408592753051000,3.79305078125,-0.23278750479221344,-0.598675012588501,-0.4676375091075897
1772408592773112300,3.8131123046875,-0.34031251072883606,0.07672499865293503,-1.0461000204086304
1772408592793173800,3.833173828125,-0.4010874927043915,0.6061000227928162,-1.271875023841858
1772408592813235000,3.85323486328125,-0.47244998812675476,0.3525499999523163,-0.8490625023841858
1772408592833296600,3.873296630859375,-0.5299249887466431,-0.3334375023841858,0.07026249915361404
1772408592853358000,3.893358154296875,-0.3979249894618988,-0.6967124938964844,0.7616124749183655
1772408592873419300,3.913419189453125,-0.14643749594688416,-0.47946250438690186,0.7530875205993652
1772408592893480700,3.933480712890625,0.06764999777078629,0.028737500309944153,0.4740999937057495
1772408592913542400,3.95354248046875,0.18369999527931213,0.32161250710487366,0.3398999869823456
1772408592933603600,3.973603515625,0.1326874941587448,0.3078624904155731,0.41126251220703125
1772408592953664800,3.993664794921875,0.06971249729394913,0.13956250250339508,0.16403749585151672
1772408592973726500,4.0137265625,0.3254624903202057,-0.032999999821186066,-0.6188874840736389
1772408592993788000,4.033787841796875,0.33605000376701355,-0.15028749406337738,-1.2931874990463257
1772408593013849000,4.05384912109375,-0.14533749222755432,0.24818749725818634,-1.6766749620437622
1772408593033910800,4.073910888671875,-0.7035874724388123,1.1941875219345093,-1.7246625423431396
1772408593053972000,4.093971923828125,-0.9710249900817871,1.4242249727249146,-1.1600874662399292
1772408593074033400,4.114033447265625,-0.47561249136924744,0.7647749781608582,-0.49101248383522034
1772408593094094600,4.134094482421875,0.5352874994277954,-0.0798875018954277,-0.010587500408291817
1772408593114156300,4.15415625,1.211787462234497,-0.607200026512146,0.5688375234603882
1772408593134217500,4.174217529296875,1.3406250476837158,-0.8724374771118164,1.3476375341415405
1772408593154279000,4.19427880859375,1.352312445640564,-1.0162625312805176,1.8642250299453735
1772408593174340400,4.21434033203125,1.3480499982833862,-0.4314749836921692,1.7470749616622925
1772408593194401800,4.23440185546875,1.136162519454956,0.20776249468326569,1.3102375268936157
1772408593214463000,4.254462890625,0.7121124863624573,-0.07562500238418579,1.0546250343322754
1772408593234524400,4.2745244140625,0.21353749930858612,-0.5059999823570251,0.5582500100135803
1772408593254585600,4.294585693359375,-0.08153750002384186,-0.4218499958515167,-0.39201250672340393
1772408593274647300,4.314647216796875,-0.21353749930858612,-0.12993749976158142,-1.0939500331878662
1772408593294708500,4.33470849609375,-0.2125750035047531,0.1629374921321869,-1.1515624523162842
1772408593314770000,4.35477001953125,-0.08579999953508377,0.10752499848604202,-0.7009750008583069
1772408593334831000,4.3748310546875,0.016499999910593033,-0.23223750293254852,-0.1671999990940094
1772408593354892800,4.394892822265625,0.03891250118613243,-0.2887499928474426,0.28022500872612
1772408593374954000,4.4149541015625,0.04427500069141388,-0.22907499969005585,0.44536250829696655
1772408593395015400,4.435015380859375,-0.023924998939037323,-0.05967500060796738,0.3291749954223633
1772408593415076600,4.45507666015625,-0.09212499856948853,0.1788875013589859,0.13103750348091125
1772408593435138300,4.47513818359375,-0.2381500005722046,0.598675012588501,0.08415000140666962
1772408593455199500,4.495199462890625,-0.22536249458789825,0.8073999881744385,0.030937500298023224
1772408593475261000,4.515260986328125,-0.521399974822998,1.263350009918213,-0.47189998626708984
1772408593495322000,4.535322021484375,-1.0892750024795532,2.4171125888824463,-1.4029124975204468
1772408593515383600,4.555383544921875,-1.9062999486923218,0.8542875051498413,-1.0173624753952026
1772408593535445000,4.575445068359375,-1.9563499689102173,0.2194499969482422,-0.6040375232696533
1772408593555506400,4.59550634765625,-1.5962375402450562,1.649999976158142,-0.8170250058174133
1772408593575568000,4.61556787109375,-1.0668624639511108,2.3031249046325684,-0.5762624740600586
1772408593595629000,4.635629150390625,-0.15289999544620514,1.5691499710083008,-0.20019999146461487
1772408593615690500,4.6556904296875,0.6333249807357788,0.2876499891281128,0.23223750293254852
1772408593635751700,4.675751708984375,0.9571374654769897,-0.524150013923645,0.6978124976158142
1772408593655813000,4.695813232421875,0.9721249938011169,-0.5944125056266785,0.7862250208854675
1772408593675874300,4.715874267578125,0.9508125185966492,-0.4218499958515167,0.5549499988555908
1772408593695935700,4.735935791015625,0.9006249904632568,-0.30896249413490295,0.4133250117301941
1772408593715997200,4.7559970703125,0.6589000225067139,-0.11508750170469284,0.5209875106811523
1772408593736058600,4.77605859375,0.24131250381469727,-0.20776249468326569,0.7425000071525574
1772408593756119800,4.796119873046875,-0.06338749825954437,-0.20666250586509705,0.5634750127792358
1772408593776181000,4.816180908203125,-0.23388749361038208,0.006324999965727329,-0.14492499828338623
1772408593796242400,4.836242431640625,-0.345674991607666,0.258774995803833,-0.7882875204086304
1772408593816303900,4.856303955078125,-0.3488374948501587,0.16403749585151672,-0.8405374884605408
1772408593836365000,4.876364990234375,-0.2796750068664551,-0.21092499792575836,-0.4399999976158142
1772408593856426500,4.896426513671875,-0.170912504196167,-0.5198875069618225,0.08951249718666077
1772408593876487700,4.91648779296875,0.020762499421834946,-0.6424000263214111,0.4954124987125397
1772408593896549000,4.936549072265625,0.20611250400543213,-0.6285125017166138,0.6518874764442444
1772408593916610600,4.956610595703125,0.19442500174045563,-0.5784624814987183,0.7030375003814697
1772408593936671700,4.976671630859375,0.11769999563694,-0.36643749475479126,0.6402000188827515
1772408593956733200,4.996733154296875,0.2040500044822693,-0.26743748784065247,0.6902499794960022
1772408593976794400,5.01679443359375,0.5150749683380127,-0.9172624945640564,0.8447999954223633
1772408593996855800,5.036855712890625,-0.17201249301433563,-0.4591124951839447,-0.1555124968290329
1772408594016917000,5.0569169921875,-0.6045874953269958,0.24598750472068787,-1.5925250053405762
1772408594036978400,5.076978515625,-1.128600001335144,-0.6711375117301941,-1.8855375051498413
1772408594057040000,5.097039794921875,-1.1254374980926514,-0.15028749406337738,-1.4306875467300415
1772408594077101000,5.11710107421875,-1.0029250383377075,0.8787624835968018,-0.6413000226020813
1772408594097162200,5.137162353515625,-0.8793125152587891,1.3975499868392944,-0.09473749995231628
1772408594117223700,5.1572236328125,-0.47244998812675476,1.2963500022888184,-0.03946249932050705
1772408594137285000,5.17728515625,-0.03464999794960022,0.94159996509552,0.055412501096725464
1772408594157346300,5.19734619140625,0.10807500034570694,0.5858874917030334,0.32807499170303345
1772408594177407500,5.217407470703125,0.07727500051259995,0.4409624934196472,0.4954124987125397
1772408594197468700,5.23746875,0.08470000326633453,0.49004998803138733,0.4665375053882599
1772408594217530400,5.2575302734375,0.16458749771118164,0.5506874918937683,0.33563750982284546
1772408594237591600,5.277591552734375,0.23388749361038208,0.5017374753952026,0.295074999332428
1772408594257652700,5.29765283203125,0.27857500314712524,0.3653374910354614,0.2887499928474426
1772408594277714000,5.3177138671875,0.3073124885559082,0.09047500044107437,0.14588749408721924
1772408594297775400,5.337775390625,0.2913624942302704,-0.16197499632835388,-0.0170499999076128
1772408594317836800,5.3578369140625,0.2934249937534332,-0.36973750591278076,-0.21518750488758087
1772408594337898000,5.37789794921875,0.2424124926328659,-0.5304750204086304,-0.40369999408721924
1772408594357959200,5.397959228515625,0.2199999988079071,-0.6562874913215637,-0.39311251044273376
1772408594378020600,5.4180205078125,0.26372501254081726,-0.7052375078201294,-0.09693749994039536
1772408594398081800,5.438081787109375,0.3254624903202057,-0.8255500197410583,0.3590124845504761
1772408594418143200,5.458143310546875,0.4212999939918518,-0.9395374655723572,0.6956124901771545
1772408594438204400,5.478204345703125,0.5310249924659729,-0.976937472820282,0.8894875049591064
1772408594458265900,5.498265869140625,0.5821750164031982,-0.9726749658584595,0.9747374653816223
1772408594478326800,5.518326904296875,0.5630624890327454,-0.9917874932289124,0.8095999956130981
1772408594498388200,5.53838818359375,0.4511374831199646,-0.9395374655723572,0.28971248865127563
1772408594518449400,5.558449462890625,-0.345674991607666,0.4324375092983246,-1.463687539100647
1772408594538510600,5.578510498046875,-0.47671249508857727,0.6902499794960022,-2.6951375007629395
1772408594558571800,5.59857177734375,-0.4298250079154968,-1.0791000127792358,-1.888700008392334
1772408594578633200,5.61863330078125,-0.5992249846458435,-1.4147374629974365,-0.5134249925613403
1772408594598694400,5.6386943359375,-1.0306999683380127,0.08304999768733978,0.07356250286102295
1772408594618755800,5.658755859375,-0.99013751745224,1.8705500364303589,0.25561249256134033
1772408594638817000,5.678817138671875,-0.557699978351593,2.3754498958587646,0.6935499906539917
1772408594658878200,5.698878173828125,-0.32120001316070557,1.7480374574661255,1.4210624694824219
1772408594678939400,5.718939453125,-0.33178749680519104,1.3602875471115112,1.8418124914169312
1772408594699000800,5.739000732421875,-0.24557499587535858,1.5914249420166016,1.646975040435791
1772408594719062000,5.75906201171875,-0.07933750003576279,1.5243250131607056,1.3294874429702759
1772408594739123200,5.779123291015625,0.030387500301003456,1.023687481880188,1.050362467765808
1772408594759184400,5.799184326171875,0.014437500387430191,0.5869874954223633,0.5966125130653381
1772408594779245600,5.81924560546875,-0.03355000168085098,0.23223750293254852,0.12787500023841858
1772408594799307000,5.83930712890625,0.016499999910593033,-0.16403749585151672,-0.2737624943256378
1772408594819368200,5.8593681640625,0.1742125004529953,-0.4655750095844269,-0.5293750166893005
1772408594839429600,5.8794296875,0.17627499997615814,-0.7243499755859375,-0.2546499967575073
1772408594859491000,5.899490966796875,0.16032500565052032,-0.7169250249862671,0.29727500677108765
1772408594879552300,5.91955224609375,0.23388749361038208,-0.6594499945640564,0.719124972820282
1772408594899613400,5.939613525390625,0.2615250051021576,-0.5465624928474426,0.9193249940872192
1772408594919674600,5.959674560546875,0.2913624942302704,-0.3749625086784363,1.0034749507904053
1772408594939735800,5.97973583984375,0.20295000076293945,-0.2311374992132187,0.9981124997138977
1772408594959797000,5.999796875,0.06655000150203705,-0.1214125007390976,0.8713374733924866
1772408594979858400,6.0198583984375,0.01759999990463257,0.0681999996304512,0.8127624988555908
1772408594999919600,6.039919677734375,-0.18369999527931213,0.27486249804496765,0.5966125130653381
1772408595019980800,6.059980712890625,-0.1859000027179718,0.1480875015258789,0.10119999945163727
1772408595040041700,6.080041748046875,-0.02722499892115593,-0.2046000063419342,-0.10009999573230743
1772408595060103200,6.100103271484375,0.17943750321865082,-0.44536250829696655,0.06283749639987946
1772408595080164400,6.120164306640625,0.2924624979496002,-0.17159999907016754,0.30250000953674316
1772408595100225300,6.140225341796875,0.09858749806880951,-0.020212499424815178,0.3632749915122986
1772408595120286500,6.160286376953125,-0.2924624979496002,0.0989999994635582,0.12787500023841858
1772408595140347600,6.18034765625,-0.7675250172615051,0.23856249451637268,-0.32381248474121094
1772408595160409000,6.2004091796875,-0.8207374811172485,0.16830000281333923,-0.8755999803543091
1772408595180470300,6.22047021484375,-0.5235999822616577,-0.3398999869823456,-0.9789999723434448
1772408595200531500,6.240531494140625,-0.27431249618530273,-0.29823750257492065,-0.4815250039100647
1772408595220592600,6.260592529296875,-0.3073124885559082,0.6231499910354614,-0.07452499866485596
1772408595240653800,6.28065380859375,-0.30098751187324524,0.8841249942779541,-0.04468749836087227
1772408595260715000,6.300715087890625,-0.19442500174045563,0.5827249884605408,-0.12787500023841858
1772408595280776200,6.320776123046875,-0.147537499666214,0.7434625029563904,-0.15661250054836273
1772408595300837400,6.34083740234375,-0.09955000132322311,0.9182249903678894,-0.2012999951839447
1772408595320898800,6.36089892578125,-0.17201249301433563,0.41868749260902405,-0.13529999554157257
1772408595340960000,6.3809599609375,-0.27114999294281006,-0.21092499792575836,-0.0648999959230423
1772408595361021000,6.40102099609375,-0.2891624867916107,-0.1597750037908554,-0.19813749194145203
1772408595381082400,6.421082275390625,-0.3115749955177307,0.32491248846054077,-0.533637523651123
1772408595401143600,6.4411435546875,-0.2934249937534332,0.2120250016450882,-0.5123249888420105
1772408595421204700,6.461204833984375,-0.27114999294281006,-0.4218499958515167,0.0873124971985817
1772408595441266000,6.481265869140625,-0.2391124963760376,-0.6551874876022339,0.7095000147819519
1772408595461326800,6.501326904296875,-0.22110000252723694,-0.4474250078201294,0.866112470626831
1772408595481388300,6.52138818359375,-0.1518000066280365,0.07136250287294388,0.5219500064849854
1772408595501449500,6.541449462890625,-0.04743750020861626,0.24392500519752502,0.2694999873638153
1772408595521510700,6.5615107421875,-0.20721249282360077,-0.09377499669790268,0.23539999127388
1772408595541572000,6.581572021484375,-0.1699499934911728,-0.28132501244544983,-0.04468749836087227
1772408595561633300,6.60163330078125,0.17627499997615814,-0.11192499846220016,-0.0681999996304512
1772408595581694500,6.621694580078125,0.1933249980211258,0.20666250586509705,0.7020750045776367
1772408595601755400,6.64175537109375,0.15496249496936798,0.3536500036716461,1.097249984741211
1772408595621816600,6.661816650390625,0.15716250240802765,0.03932499885559082,0.8905875086784363
1772408595641877800,6.681877685546875,0.22632500529289246,-0.7115625143051147,0.432574987411499
1772408595661939000,6.70193896484375,-0.08470000326633453,-1.0355124473571777,-0.1331000030040741
1772408595682000100,6.722000244140625,-0.34773749113082886,-0.4474250078201294,-0.22907499969005585
1772408595702061300,6.742061279296875,-0.2998875081539154,0.19593749940395355,0.227974995970726
1772408595722122200,6.762122314453125,-0.2657875120639801,0.36643749475479126,0.9545249938964844
1772408595742183700,6.78218359375,-0.29452499747276306,0.267300009727478,1.5669499635696411
1772408595762244600,6.80224462890625,-0.37014999985694885,0.2843500077724457,1.4051125049591064
1772408595782305800,6.822305908203125,-0.32752498984336853,0.3909125030040741,0.5582500100135803
1772408595802367000,6.842366943359375,-0.30195000767707825,0.26413750648498535,-0.5369374752044678
1772408595822428200,6.86242822265625,-0.3647874891757965,0.13529999554157257,-1.2175624370574951
1772408595842489000,6.882489013671875,-0.30951249599456787,-0.06283749639987946,-1.0429375171661377
1772408595862550300,6.90255029296875,-0.22852499783039093,-0.38032498955726624,-0.5964750051498413
1772408595882611500,6.922611572265625,-0.24557499587535858,-0.4548499882221222,-0.10326249897480011
1772408595902672600,6.942672607421875,-0.3073124885559082,-0.15771250426769257,0.3632749915122986
1772408595922733600,6.962733642578125,-0.2913624942302704,0.15331250429153442,0.46873748302459717
1772408595942794800,6.982794677734375,-0.2774749994277954,0.05321250110864639,0.3558500111103058
1772408595962856200,7.002856201171875,-0.3232625126838684,-0.16307500004768372,0.3398999869823456
1772408595982917000,7.022917236328125,-0.15812499821186066,-0.15125000476837158,0.24928750097751617
1772408596002978300,7.042978271484375,0.009074999950826168,-0.0798875018954277,0.1779250055551529
1772408596023039500,7.06303955078125,0.006874999962747097,-0.018149999901652336,0.08951249718666077
1772408596043100400,7.083100341796875,0.18906250596046448,0.08098749816417694,-0.2928749918937683
1772408596063161900,7.103161865234375,0.5885000228881836,0.28008750081062317,-1.4040124416351318
1772408596083222800,7.123222900390625,0.6279624700546265,0.6103624701499939,-2.5299999713897705
1772408596103284000,7.143283935546875,-0.05169999971985817,1.1280499696731567,-1.8929624557495117
1772408596123345200,7.16334521484375,-0.620537519454956,1.9131749868392944,-0.12787500023841858
1772408596143406300,7.18340625,-1.1658624410629272,1.2612874507904053,0.303600013256073
1772408596163467300,7.20346728515625,-1.3321000337600708,1.006637454032898,-0.2311374992132187
1772408596183528400,7.223528564453125,-1.0764875411987305,1.0759375095367432,-0.5497249960899353
1772408596203589600,7.243589599609375,-0.6919000148773193,0.5549499988555908,-0.22261250019073486
1772408596223650600,7.263650634765625,-0.2083124965429306,0.1779250055551529,0.2844874858856201
1772408596243711700,7.283711669921875,0.10917499661445618,0.23746250569820404,0.7552874684333801
1772408596263772700,7.303772705078125,0.16885000467300415,-0.05115000158548355,0.7297124862670898
1772408596283834000,7.323834228515625,0.3158375024795532,-0.48262500762939453,0.08098749816417694
1772408596303895000,7.34389501953125,0.44151249527931213,-0.8405374884605408,-0.6859874725341797
1772408596323956200,7.363956298828125,0.47671249508857727,-1.1921249628067017,-1.1015125513076782
1772408596344017400,7.384017333984375,0.4096125066280365,-1.2612874507904053,-1.02162504196167
1772408596364078300,7.404078369140625,0.2891624867916107,-1.023687481880188,-0.6029375195503235
1772408596384139500,7.424139404296875,0.11659999936819077,-0.8501625061035156,-0.37812501192092896
1772408596404200700,7.44420068359375,0.023924998939037323,-0.5422999858856201,-0.4591124951839447
1772408596424261600,7.46426171875,0.03891250118613243,-0.056512501090765,-0.33233749866485596
1772408596444322800,7.48432275390625,-0.01759999990463257,0,-0.09157499670982361
1772408596464383700,7.5043837890625,-0.05376249924302101,-0.2120250016450882,-0.09693749994039536
1772408596484445000,7.52444482421875,0.006874999962747097,-0.07782500237226486,-0.2694999873638153
1772408596504506000,7.544506103515625,0.14327499270439148,0.21518750488758087,-0.47616249322891235
1772408596524567300,7.5645673828125,0.37331250309944153,0.11178749799728394,-0.7104625105857849
1772408596544628200,7.584628173828125,0.48413750529289246,-0.13420000672340393,-1.0822625160217285
1772408596564689400,7.604689453125,0.2498375028371811,-0.5209875106811523,-1.6160374879837036
1772408596584750300,7.624750244140625,-0.04839999973773956,-1.01419997215271,-1.906849980354309
1772408596604811500,7.6448115234375,-0.8579999804496765,-0.8522250056266785,-1.7331874370574951
1772408596624872400,7.66487255859375,-1.2075250148773193,0.14904999732971191,-1.5532000064849854
1772408596644933600,7.68493359375,-0.4298250079154968,0.7936499714851379,-0.8798624873161316
1772408596664994600,7.70499462890625,0.2870999872684479,0.5666375160217285,0.26840001344680786
1772408596685055700,7.7250556640625,0.9667624831199646,0.2535499930381775,1.363587498664856
1772408596705116700,7.74511669921875,1.3065249919891357,-0.23539999127388,1.9515374898910522
1772408596725178000,7.76517822265625,1.0966999530792236,-0.4496249854564667,1.8653249740600586
1772408596745239000,7.785239013671875,0.7654625177383423,-0.10546249896287918,1.2047749757766724
1772408596765300000,7.805300048828125,0.41813749074935913,0.11178749799728394,0.1363999992609024
1772408596785361000,7.82536083984375,-0.0644875019788742,0.03189999982714653,-0.8639125227928162
1772408596805422000,7.845422119140625,-0.36588749289512634,-0.1821874976158142,-1.4231250286102295
1772408596825483300,7.865483154296875,-0.4437125027179718,-0.6477624773979187,-1.5243250131607056
1772408596845544200,7.885544189453125,-0.345674991607666,-0.6648125052452087,-1.0566874742507935
1772408596865605400,7.90560546875,-0.18273749947547913,-0.3143250048160553,-0.37070000171661377
1772408596885666300,7.925666259765625,-0.1358499974012375,0.005362499970942736,0.22261250019073486
1772408596925788400,7.965788330078125,-0.4735499918460846,0.28338751196861267,0.866112470626831
1772408596985971700,8.0259716796875,-0.46818751096725464,0.17036250233650208,-0.2919124960899353
1772408597006032600,8.04603271484375,-0.3786749839782715,0.1480875015258789,-0.4090625047683716
1772408597026093600,8.066093505859374,-0.07727500051259995,0.25987499952316284,-0.5378999710083008
1772408597046154800,8.08615478515625,0.2849000096321106,0.05431250110268593,-1.023687481880188
1772408597066216000,8.1062158203125,0.6524375081062317,0.7562500238418579,-1.3880624771118164
1772408597086276900,8.12627685546875,0.6481750011444092,1.1461999416351318,-0.6678375005722046
1772408597106338000,8.146338134765625,-0.14959999918937683,0.43037500977516174,0.9715750217437744
1772408597126398700,8.166398681640626,-0.8186749815940857,0.3312374949455261,1.346537470817566
1772408597146460000,8.1864599609375,-0.4702500104904175,0.8394374847412109,0.5762624740600586
1772408597166521000,8.20652099609375,0.3371500074863434,0.4175874888896942,0.47616249322891235
1772408597186582000,8.22658203125,0.5363875031471252,-0.5858874917030334,0.8533250093460083
1772408597206643000,8.246642822265626,0.3436124920845032,-0.6008750200271606,1.0301499366760254
1772408597226704100,8.2667041015625,0.12416250258684158,-0.18012499809265137,0.9715750217437744
1772408597246765300,8.286765380859375,-0.06971249729394913,0.07562500238418579,0.7393375039100647
1772408597266826200,8.306826171875,-0.3030500113964081,0.2012999951839447,0.26633748412132263
1772408597286887200,8.32688720703125,-0.5011875033378601,-0.0042624999769032,-0.49321249127388
1772408597306948400,8.3469482421875,-0.4596624970436096,-0.4538874924182892,-1.0685124397277832
1772408597327009300,8.36700927734375,-0.30098751187324524,-0.6648125052452087,-1.1686124801635742
1772408597347070200,8.3870703125,0.0037124999798834324,-0.6242499947547913,-0.7445625066757202
1772408597367131400,8.40713134765625,0.29878750443458557,-0.744700014591217,0.1896124929189682
1772408597387192300,8.4271923828125,0.345674991607666,-0.8735374808311462,0.9767999649047852
1772408597407253200,8.447253173828125,0.45223748683929443,-0.681862473487854,1.263350009918213
1772408597427314400,8.467314453125,0.5842375159263611,-0.5411999821662903,1.2399749755859375
1772408597447375600,8.487375732421874,0.38830000162124634,-0.5603125095367432,1.013100028038025
1772408597467436500,8.5074365234375,0.07727500051259995,-0.26633748412132263,0.6892874836921692
1772408597487497500,8.52749755859375,-0.010174999944865704,0.30250000953674316,0.46021249890327454
1772408597507558700,8.54755859375,0.20611250400543213,0.5581125020980835,0.29301249980926514
1772408597527619600,8.56761962890625,0.5289624929428101,0.023375000804662704,0.2003374993801117
1772408597547680500,8.587680419921876,0.29026249051094055,-0.6935499906539917,0.0681999996304512
1772408597567741400,8.607741455078125,-0.29026249051094055,-1.2016124725341797,-0.6125624775886536
1772408597587802600,8.627802734375,-0.7738500237464905,-0.3856875002384186,-1.1877249479293823
1772408597607863600,8.647863525390624,-0.9710249900817871,0.8542875051498413,-1.3198624849319458
1772408597627924500,8.667924560546876,-0.761062502861023,1.0481624603271484,-0.5506874918937683
1772408597647985400,8.6879853515625,-0.41813749074935913,0.317487508058548,0.5880874991416931
1772408597668046600,8.708046630859375,0.10381250083446503,-0.24392500519752502,0.8681749701499939
1772408597688107500,8.728107421875,0.5341874957084656,-0.2578125,0.7222874760627747
1772408597708168400,8.74816845703125,0.5278624892234802,-0.35791251063346863,0.6711375117301941
1772408597728229400,8.7682294921875,0.2689499855041504,-0.8160625100135803,0.8245875239372253
1772408597748290300,8.788290283203125,-0.010174999944865704,-0.9022749662399292,0.6902499794960022
1772408597768351500,8.8083515625,-0.14643749594688416,-0.44206249713897705,0.17366249859333038
1772408597788412400,8.828412353515626,-0.2050125002861023,-0.09913749992847443,-0.4815250039100647
1772408597808473300,8.848473388671875,-0.45319998264312744,0.12993749976158142,-1.0737375020980835
1772408597828534300,8.8685341796875,-0.48633748292922974,0.4068624973297119,-1.088724970817566
1772408597848595500,8.888595458984375,-0.34773749113082886,0.23856249451637268,-0.654087483882904
1772408597868656400,8.908656494140626,-0.23704999685287476,-0.07136250287294388,-0.12251249700784683
1772408597888717300,8.92871728515625,-0.16238750517368317,-0.20666250586509705,0.26840001344680786
1772408597908778200,8.9487783203125,-0.09102500230073929,-0.30896249413490295,0.3590124845504761
1772408597928839200,8.968839111328125,0.10807500034570694,-0.3749625086784363,0.27059999108314514
1772408597948900000,8.988900146484376,0.19442500174045563,-0.507099986076355,0.20239999890327454
1772408597968961000,9.0089609375,-0.009074999950826168,-0.8032749891281128,0.12787500023841858
1772408597989022200,9.029022216796875,-0.2125750035047531,-0.8596500158309937,0.06393750011920929
1772408598009083100,9.049083251953125,-0.011137500405311584,-0.16403749585151672,0.20886249840259552
1772408598029144000,9.06914404296875,0.21683749556541443,0.533637523651123,0.5284125208854675
1772408598049205000,9.089205078125,0.12622499465942383,0.3866499960422516,0.38885000348091125
1772408598069266000,9.109265869140625,0.2689499855041504,0.08304999768733978,-0.1629374921321869
1772408598089326800,9.129326904296875,0.5000874996185303,0.508062481880188,-0.3152875006198883
1772408598109387800,9.1493876953125,-0.052662499248981476,0.20982499420642853,-0.20350000262260437
1772408598129448700,9.16944873046875,-0.9890375137329102,-0.5091624855995178,-0.5454624891281128
1772408598149510000,9.189510009765625,-0.9944000244140625,-0.13846249878406525,-0.820187509059906
1772408598169570800,9.20957080078125,-0.21683749556541443,0.9981124997138977,-0.5944125056266785
1772408598189631700,9.2296318359375,0.33082500100135803,0.7616124749183655,0.1256749927997589
1772408598209692700,9.249692626953125,0.428725004196167,0,0.8170250058174133
1772408598229753900,9.26975390625,0.5054500102996826,0.0085249999538064,1.1664124727249146
1772408598249814500,9.289814453125,0.46076250076293945,0.3770250082015991,1.2761374711990356
1772408598269875700,9.309875732421874,0.4031499922275543,0.5879499912261963,1.0993125438690186
1772408598289936600,9.3299365234375,0.30621248483657837,0.3675374984741211,0.6008750200271606
1772408598309997600,9.34999755859375,0.1742125004529953,-0.1023000031709671,-0.07768750190734863
1772408598330058500,9.37005859375,0.15826250612735748,-0.3536500036716461,-0.7968124747276306
1772408598350119400,9.390119384765624,0.2700499892234802,-0.4581499993801117,-1.1664124727249146
1772408598370180400,9.410180419921875,0.2572624981403351,-0.48372501134872437,-1.032212495803833
1772408598390241300,9.4302412109375,0.10284999758005142,-0.3867875039577484,-0.5198875069618225
1772408598410302500,9.450302490234375,0.12416250258684158,-0.26317501068115234,0.19277499616146088
1772408598430363100,9.470363037109376,-0.037812501192092896,-0.1480875015258789,0.5380374789237976
1772408598450424300,9.49042431640625,-0.1634874939918518,0.16513749957084656,0.5337749719619751
1772408598470485000,9.510485107421875,-0.17627499997615814,0.32807499170303345,0.3334375023841858
1772408598490546000,9.5305458984375,-0.22206249833106995,0.33550000190734863,0.02447500079870224
1772408598510606800,9.55060693359375,-0.21779999136924744,0.32065001130104065,-0.08841250091791153
1772408598530667800,9.570667724609375,-0.11659999936819077,0.37070000171661377,0.10009999573230743
1772408598550728400,9.590728515625,0.10284999758005142,0.32065001130104065,0.32065001130104065
1772408598570789400,9.610789306640624,0.2657875120639801,0.013887500390410423,0.5176874995231628
1772408598590850300,9.630850341796876,0.2274249941110611,-0.44632500410079956,0.2387000024318695
1772408598610911200,9.6509111328125,0.10491249710321426,-0.8852249979972839,-0.32065001130104065
1772408598630972200,9.67097216796875,0.0016499999910593033,-0.05335000157356262,-0.4164874851703644
1772408598651033000,9.691033203125,-0.3723500072956085,0.45374998450279236,-0.3377000093460083
