time,seconds_elapsed,z,y,x
1772408664850306800,0.169306884765625,4.063050270080566,-6.469950199127197,4.22504997253418
1772408664870367000,0.189366943359375,4.410000324249268,-6.091950416564941,4.5
1772408664890427100,0.20942724609375,4.366950035095215,-6.027000427246094,4.275000095367432
1772408664910487000,0.229487060546875,3.955050230026245,-5.814000129699707,3.5500502586364746
1772408664930547200,0.249547119140625,4.317000389099121,-5.614950180053711,3.526050090789795
1772408664950607400,0.269607421875,4.422000408172607,-5.565000057220459,3.334050178527832
1772408664970667500,0.28966748046875,4.477050304412842,-5.596050262451172,3.6120002269744873
1772408664990727400,0.3097275390625,4.980000019073486,-5.436000347137451,4.050000190734863
1772408665010787600,0.32978759765625,5.1739501953125,-5.982000350952148,4.275000095367432
1772408665030847500,0.349847412109375,5.208000183105469,-7.522950172424316,3.775050163269043
1772408665050907600,0.36990771484375,4.875,-9.403050422668457,4.693950176239014
1772408665070967600,0.389967529296875,5.551950454711914,-12.004950523376465,6.466050148010254
1772408665091027700,0.41002783203125,7.8319501876831055,-15.2760009765625,8.43600082397461
1772408665111087900,0.430087890625,10.675950050354004,-18.20895004272461,9.937050819396973
1772408665131147800,0.450147705078125,12.86400032043457,-19.14495086669922,8.869950294494629
1772408665151208000,0.4702080078125,12.796950340270996,-18.297000885009766,7.795050144195557
1772408665171267800,0.490267822265625,9.868950843811035,-15.715950965881348,7.432950496673584
1772408665191327700,0.51032763671875,6.967050552368164,-12.022050857543945,6.259950160980225
1772408665211388200,0.53038818359375,4.549050331115723,-8.04104995727539,4.4760003089904785
1772408665231448000,0.550447998046875,3.139050245285034,-3.9679501056671143,2.448000192642212
1772408665251508000,0.570508056640625,1.4010000228881836,-0.7620000243186951,1.1749500036239624
1772408665271568100,0.590568115234375,0.034050002694129944,1.2529500722885132,0.5040000081062317
1772408665291628000,0.6106279296875,-0.322050005197525,2.565000057220459,0.09195000678300858
1772408665311688200,0.630688232421875,0.18195000290870667,3.4390501976013184,0.24105000495910645
1772408665331748000,0.650748046875,0.9600000381469727,3.4840502738952637,0.7270500063896179
1772408665351808300,0.670808349609375,1.492050051689148,3.1870501041412354,1.6770000457763672
1772408665371868400,0.690868408203125,1.7050501108169556,2.6080501079559326,2.2900500297546387
1772408665391928300,0.71092822265625,1.6549500226974487,1.5970500707626343,2.0530500411987305
1772408665411988200,0.73098828125,2.3299500942230225,0.38100001215934753,1.5240000486373901
1772408665432048400,0.75104833984375,3.366000175476074,-1.4880000352859497,1.4830501079559326
1772408665452108500,0.771108642578125,3.766050100326538,-4.039950370788574,2.5350000858306885
1772408665472168400,0.79116845703125,3.8449501991271973,-9.131999969482422,4.639050006866455
1772408665492228600,0.811228515625,5.635950088500977,-17.308950424194336,6.877950191497803
1772408665512288500,0.83128857421875,9.92400074005127,-25.243051528930664,8.368950843811035
1772408665532348400,0.851348388671875,14.571001052856445,-29.554950714111328,8.56605052947998
1772408665552408600,0.87140869140625,14.988000869750977,-30.751951217651367,9.407999992370605
1772408665572468700,0.89146875,12.466950416564941,-27.625051498413086,8.284950256347656
1772408665592528600,0.911528564453125,10.369050025939941,-21.1560001373291,6.8610005378723145
1772408665612588800,0.9315888671875,9.87600040435791,-13.645051002502441,6.23805046081543
1772408665632648700,0.951648681640625,7.82895040512085,-6.408000469207764,7.039950370788574
1772408665652708900,0.971708984375,3.919950246810913,-0.38895002007484436,9.492000579833984
1772408665672769000,0.99176904296875,-0.33900001645088196,2.1000001430511475,7.609950542449951
1772408665692829000,1.011828857421875,-2.0119500160217285,3.412050247192383,4.165050029754639
1772408665712888800,1.031888916015625,-1.7389501333236694,3.879000186920166,1.7320500612258911
1772408665732949000,1.051948974609375,-0.8700000643730164,3.6880502700805664,0.9900000691413879
1772408665753009000,1.0720087890625,-0.3630000054836273,3.4669501781463623,1.7470500469207764
1772408665773068800,1.09206884765625,-0.6400500535964966,2.8690500259399414,2.1349501609802246
1772408665793129000,1.11212890625,-0.19005000591278076,2.1910500526428223,1.960050106048584
1772408665813189000,1.132189208984375,1.1209501028060913,1.3579500913619995,1.3759500980377197
1772408665833249000,1.1522490234375,3.094050168991089,0.5010000467300415,0.8299500346183777
1772408665853309000,1.172308837890625,4.81695032119751,-0.3859500288963318,0.7320000529289246
1772408665873369000,1.192369140625,4.975050449371338,-2.0220000743865967,0.6840000152587891
1772408665893429200,1.21242919921875,5.502000331878662,-5.035950183868408,0.6360000371932983
1772408665913489200,1.2324892578125,6.448050498962402,-8.665050506591797,2.568000078201294
1772408665933549300,1.25254931640625,7.975050449371338,-13.909050941467285,5.508000373840332
1772408665953609200,1.272609130859375,11.75100040435791,-20.40705108642578,9.046950340270996
1772408665973669000,1.292669189453125,16.52505111694336,-29.304000854492188,12.352951049804688
1772408665993729300,1.312729248046875,19.256999969482422,-35.07600021362305,12.22605037689209
1772408666013789200,1.3327890625,18.190950393676758,-33.61995315551758,10.416000366210938
1772408666033849300,1.352849365234375,13.743000984191895,-25.434001922607422,8.182050704956055
1772408666053909200,1.3729091796875,9.445050239562988,-13.794000625610352,5.755050182342529
1772408666073969400,1.392969482421875,6.469050407409668,-4.234050273895264,4.218000411987305
1772408666094029300,1.413029296875,2.9880001544952393,0.7690500617027283,3.4180500507354736
1772408666114089500,1.43308935546875,0.32295000553131104,2.8279502391815186,3.028050184249878
1772408666134149600,1.453149658203125,-1.6579500436782837,3.7710001468658447,2.968050241470337
1772408666154209500,1.47320947265625,-3.391050100326538,3.4240500926971436,2.998950242996216
1772408666174269700,1.493269775390625,-3.931950092315674,2.6389501094818115,3.4230000972747803
1772408666194329600,1.51332958984375,-3.391050100326538,1.954050064086914,3.850950241088867
1772408666214389800,1.5333896484375,-1.8540000915527344,1.6360501050949097,3.7480502128601074
1772408666234449700,1.55344970703125,-0.3960000276565552,1.6570501327514648,2.797950029373169
1772408666254509600,1.573509521484375,0.970050036907196,1.2790501117706299,1.5859500169754028
1772408666274569700,1.59356982421875,1.9990501403808594,0.7500000596046448,0.6139500141143799
1772408666294629600,1.613629638671875,2.16195011138916,0.534000039100647,0.33195000886917114
1772408666314689500,1.633689453125,1.8820500373840332,0.07005000114440918,0.7050000429153442
1772408666334749700,1.653749755859375,1.8799500465393066,-1.1620500087738037,0.7320000529289246
1772408666354809600,1.6738095703125,2.233950138092041,-3.4489500522613525,-0.010050000622868538
1772408666374869800,1.693869873046875,4.285950183868408,-6.049050331115723,1.8139500617980957
1772408666394930000,1.713929931640625,6.655950546264648,-11.056950569152832,7.344000339508057
1772408666414989800,1.73398974609375,8.952000617980957,-19.588050842285156,13.356000900268555
1772408666435049700,1.7540498046875,14.3100004196167,-28.62795066833496,15.742950439453125
1772408666455110000,1.77410986328125,21.028051376342773,-34.82895278930664,16.939950942993164
1772408666475169800,1.794169677734375,22.503000259399414,-33.70395278930664,16.071001052856445
1772408666495230000,1.81422998046875,16.75695037841797,-28.711952209472656,13.143000602722168
1772408666515289900,1.834289794921875,11.574000358581543,-19.05900001525879,7.459050178527832
1772408666535350000,1.85435009765625,9.280050277709961,-8.874000549316406,4.360949993133545
1772408666555410000,1.874409912109375,6.7260003089904785,-1.2960000038146973,2.9130001068115234
1772408666575469800,1.8944697265625,2.751000165939331,2.6989500522613525,2.2039501667022705
1772408666595530000,1.914530029296875,-1.5360000133514404,4.565999984741211,2.170950174331665
1772408666615590000,1.93458984375,-3.9850502014160156,4.7220001220703125,2.431950092315674
1772408666635650000,1.954650146484375,-4.198050022125244,4.348050117492676,2.8650002479553223
1772408666655710200,1.974710205078125,-3.1300501823425293,3.9150002002716064,3.636000156402588
1772408666675770000,1.99477001953125,-1.7389501333236694,2.7559502124786377,3.5590500831604004
1772408666695830300,2.014830322265625,-0.4849500358104706,1.3920000791549683,2.5819501876831055
1772408666715890200,2.03489013671875,0.8050500154495239,0.5890500545501709,1.201050043106079
1772408666735950300,2.054950439453125,2.196000099182129,0.08400000631809235,0.2670000195503235
1772408666756010200,2.07501025390625,3.4930500984191895,-0.043950002640485764,-0.2659500241279602
1772408666776070100,2.095070068359375,3.829050064086914,0.016950000077486038,-0.5269500017166138
1772408666796130300,2.11513037109375,3.6229500770568848,-0.29100000858306885,-0.7129500508308411
1772408666816190200,2.135190185546875,4.027050018310547,-1.284000039100647,-0.5269500017166138
1772408666836250000,2.15525,4.353000164031982,-3.772050142288208,0.43695002794265747
1772408666856310300,2.175310302734375,4.695000171661377,-8.224950790405273,2.866950035095215
1772408666876370400,2.195370361328125,6.418950080871582,-15.26400089263916,6.552000522613525
1772408666896430300,2.215430419921875,11.260050773620605,-22.31205177307129,9.72705078125
1772408666916490500,2.235490478515625,17.80095100402832,-29.533050537109375,12.844050407409668
1772408666936550400,2.25555029296875,21.598051071166992,-34.963050842285156,12.942000389099121
1772408666956610300,2.2756103515625,22.360050201416016,-35.01795196533203,11.167950630187988
1772408666976670500,2.29567041015625,17.1070499420166,-27.285001754760742,7.474050521850586
1772408666996730400,2.31573046875,10.954050064086914,-16.156949996948242,4.1509504318237305
1772408667016790300,2.335790283203125,6.6060004234313965,-5.922000408172607,2.7360000610351562
1772408667036850400,2.355850341796875,3.040950059890747,0.3550500273704529,3.106950044631958
1772408667056910300,2.375910400390625,-0.8509500622749329,3.4390501976013184,3.466050148010254
1772408667076970500,2.395970458984375,-3.9180002212524414,4.669050216674805,3.7080001831054688
1772408667097030400,2.416030517578125,-4.756050109863281,4.240950107574463,4.384950160980225
1772408667117090600,2.436090576171875,-3.6880502700805664,2.63700008392334,5.068050384521484
1772408667137150700,2.456150634765625,-1.7560501098632812,1.1569499969482422,4.486050128936768
1772408667157210600,2.476210693359375,0.1080000028014183,0.47700002789497375,2.748000144958496
1772408667177270800,2.496270751953125,1.9300501346588135,0.16305001080036163,1.2820500135421753
1772408667197330700,2.51633056640625,3.469050168991089,0.09600000083446503,0.6019500494003296
1772408667237450800,2.55645068359375,3.1339502334594727,0.5800500512123108,0.5040000081062317
1772408667297630700,2.616630615234375,3.642000198364258,0.09105000644922256,1.3540500402450562
1772408667317691000,2.63669091796875,4.177950382232666,-1.8439500331878662,1.672950029373169
1772408667337750800,2.656750732421875,5.193000316619873,-5.211000442504883,2.2260000705718994
1772408667357811000,2.67681103515625,7.0489501953125,-11.212950706481934,5.925000190734863
1772408667377870800,2.696870849609375,10.870050430297852,-20.074050903320312,10.23900032043457
1772408667397931000,2.716930908203125,17.236051559448242,-28.05405044555664,12.303000450134277
1772408667417991000,2.736990966796875,20.923051834106445,-35.26695251464844,14.745000839233398
1772408667438051000,2.757051025390625,19.48200035095215,-34.983001708984375,14.053050994873047
1772408667458111000,2.777111083984375,15.0600004196167,-29.397001266479492,11.700000762939453
1772408667478171000,2.7971708984375,11.539950370788574,-20.18400001525879,8.392950057983398
1772408667498231000,2.81723095703125,9.654000282287598,-10.441950798034668,6.0319504737854
1772408667518291000,2.837291015625,6.826050281524658,-2.8500001430511475,3.922950267791748
1772408667538351000,2.85735107421875,2.710050106048584,1.5949500799179077,2.707050085067749
1772408667558411300,2.877411376953125,-1.1290500164031982,3.4150502681732178,2.9010000228881836
1772408667578471200,2.89747119140625,-3.264000177383423,3.6010501384735107,3.7770001888275146
1772408667598531000,2.917531005859375,-4.629000186920166,3.040950059890747,4.029000282287598
1772408667618591200,2.93759130859375,-4.432950019836426,1.8109500408172607,3.693000078201294
1772408667638651100,2.957651123046875,-2.3020501136779785,0.7380000352859497,2.4840002059936523
1772408667658711300,2.977711181640625,0.4459500312805176,0.11100000888109207,1.311000108718872
1772408667678771200,2.997771240234375,2.3610000610351562,-0.12300000339746475,0.13305000960826874
1772408667698831400,3.017831298828125,3.3949501514434814,0.1680000126361847,-0.5290500521659851
1772408667718891300,3.037891357421875,3.358950138092041,1.0920000076293945,-0.5910000205039978
1772408667738951200,3.057951171875,2.5860002040863037,1.8870000839233398,-0.21495001018047333
1772408667759011600,3.078011474609375,2.1190500259399414,2.1220500469207764,0.49500003457069397
1772408667779071500,3.098071533203125,2.241000175476074,1.360050082206726,0.909000039100647
1772408667799131400,3.11813134765625,2.2510499954223633,0.2779500186443329,1.0720500946044922
1772408667819191600,3.138191650390625,2.8759500980377197,-0.8050500154495239,2.4100501537323
1772408667839251500,3.15825146484375,4.398000240325928,-3.2760002613067627,3.337050199508667
1772408667859311600,3.1783115234375,6.40500020980835,-8.112000465393066,5.233050346374512
1772408667879371500,3.19837158203125,8.368050575256348,-15.703950881958008,8.86500072479248
1772408667899431400,3.218431396484375,14.24100112915039,-22.384050369262695,11.191950798034668
1772408667919491600,3.23849169921875,21.402000427246094,-28.261951446533203,12.838950157165527
1772408667939551500,3.258551513671875,22.446001052856445,-32.73705291748047,14.707050323486328
1772408667959612000,3.27861181640625,18.07200050354004,-34.176002502441406,14.419050216674805
1772408667979671800,3.298671875,14.82300090789795,-29.671951293945312,11.29995059967041
1772408667999731700,3.318731689453125,12.01395034790039,-20.3830509185791,7.713000297546387
1772408668019792000,3.3387919921875,8.494950294494629,-10.471050262451172,4.43595027923584
1772408668039851800,3.358851806640625,5.152950286865234,-2.4790501594543457,2.1510000228881836
1772408668059911700,3.37891162109375,2.196000099182129,2.1859500408172607,1.4280000925064087
1772408668079971800,3.398971923828125,-0.2650500237941742,4.1860504150390625,1.227000117301941
1772408668100032000,3.419031982421875,-2.4340500831604004,4.126049995422363,1.804050087928772
1772408668120092000,3.439091796875,-3.633000135421753,3.2539501190185547,2.4790501594543457
1772408668140151800,3.45915185546875,-3.055950164794922,2.184000015258789,2.7720000743865967
1772408668160212000,3.4792119140625,-0.8149500489234924,1.0420500040054321,2.0940001010894775
1772408668180272000,3.499272216796875,1.516050100326538,-0.00795000046491623,0.9160500168800354
1772408668200332000,3.51933203125,2.682000160217285,-0.3460500240325928,-0.4020000100135803
1772408668220392000,3.539391845703125,3.4330501556396484,-0.20205001533031464,-0.843000054359436
1772408668240452000,3.5594521484375,3.2659502029418945,0.42000001668930054,-0.7180500626564026
1772408668260512000,3.579511962890625,1.9780501127243042,0.973050057888031,-0.5389500260353088
1772408668280572200,3.599572265625,0.8740500211715698,1.2720000743865967,0.010950000956654549
1772408668300632000,3.619632080078125,0.8929500579833984,1.1590501070022583,0.5809500217437744
1772408668320692200,3.639692138671875,1.758000135421753,0.5029500126838684,1.3399500846862793
1772408668340752100,3.659752197265625,2.200050115585327,-0.6499500274658203,1.8619500398635864
1772408668360812300,3.679812255859375,2.77305006980896,-2.953050136566162,2.3449501991271973
1772408668380872200,3.6998720703125,4.591950416564941,-7.828050136566162,6.1210503578186035
1772408668400932000,3.71993212890625,7.360050201416016,-14.758950233459473,11.826000213623047
1772408668420992300,3.7399921875,14.523000717163086,-21.678001403808594,14.40000057220459
1772408668441052200,3.76005224609375,22.270950317382812,-29.52105140686035,15.408000946044922
1772408668461112600,3.780112548828125,23.965951919555664,-32.77995300292969,17.335050582885742
1772408668481172500,3.80017236328125,20.17905044555664,-31.219051361083984,17.227951049804688
1772408668501232000,3.820232177734375,14.052000999450684,-26.131052017211914,13.267951011657715
1772408668521292500,3.84029248046875,10.654050827026367,-17.110050201416016,8.82194995880127
1772408668541352400,3.8603525390625,7.947000503540039,-8.32800006866455,5.245050430297852
1772408668561412400,3.880412353515625,4.777050018310547,-1.5640500783920288,2.07705020904541
1772408668581472500,3.900472412109375,1.8130500316619873,2.083050012588501,1.0140000581741333
1772408668601532400,3.920532470703125,-0.4510500133037567,4.153950214385986,0.6910500526428223
1772408668621592300,3.94059228515625,-1.5859500169754028,4.198050022125244,1.540950059890747
1772408668641652500,3.960652587890625,-1.9810501337051392,3.259050130844116,2.6929500102996826
1772408668661712400,3.98071240234375,-2.2639501094818115,1.8079501390457153,2.7280502319335938
1772408668681772500,4.0007724609375,-1.15500009059906,0.5749500393867493,2.1610500812530518
1772408668701832400,4.02083251953125,0.5869500041007996,-0.05100000277161598,1.4449501037597656
1772408668721892600,4.040892578125,2.320050001144409,-0.0970500037074089,0.7440000176429749
1772408668741952500,4.060952392578125,3.5029501914978027,0.47505003213882446,0.17100000381469727
1772408668762012400,4.081012451171875,3.670950174331665,1.1329500675201416,0.15000000596046448
1772408668782072600,4.101072509765625,3.034050226211548,2.026050090789795,1.0260000228881836
1772408668802132500,4.121132568359375,1.8600001335144043,2.263050079345703,1.858950138092041
1772408668822192400,4.1411923828125,1.2600001096725464,1.6429500579833984,2.511000156402588
1772408668842252500,4.16125244140625,1.9039500951766968,0.8580000400543213,3.00600004196167
1772408668862312400,4.1813125,3.100950241088867,-1.2340500354766846,3.175950050354004
1772408668882372400,4.201372314453125,4.096950054168701,-5.389950275421143,4.942950248718262
1772408668902432500,4.2214326171875,6.579000473022461,-13.684050559997559,10.13895034790039
1772408668922492400,4.241492431640625,13.258950233459473,-24.079051971435547,11.503050804138184
1772408668942552600,4.261552490234375,23.932950973510742,-30.13905143737793,9.930000305175781
1772408668962612500,4.281612548828125,27.402000427246094,-31.57305145263672,12.652050971984863
1772408668982672400,4.30167236328125,20.443950653076172,-29.458951950073242,14.059950828552246
1772408669002732800,4.32173291015625,13.78800106048584,-26.725051879882812,11.245050430297852
1772408669022792700,4.341792724609375,11.2339506149292,-19.830001831054688,6.454050540924072
1772408669042852400,4.361852294921875,9.03600025177002,-10.531050682067871,4.108050346374512
1772408669062912500,4.38191259765625,5.551950454711914,-2.3110501766204834,3.355950117111206
1772408669082972700,4.40197265625,2.056950092315674,2.9359500408172607,2.6260502338409424
1772408669103032600,4.422032470703125,-0.36000001430511475,4.921050071716309,2.866950035095215
1772408669123092700,4.4420927734375,-2.1750001907348633,4.639950275421143,3.3730502128601074
1772408669143152600,4.462152587890625,-2.7139501571655273,3.0510001182556152,3.6120002269744873
1772408669163212500,4.482212646484375,-1.902000069618225,0.9510000348091125,3.178950071334839
1772408669183272400,4.5022724609375,-0.7099500298500061,-0.7429500222206116,1.752000093460083
1772408669203332400,4.522332275390625,0.22005000710487366,-1.311000108718872,-0.49605002999305725
1772408669223392800,4.542392822265625,1.3309500217437744,-1.3990501165390015,-2.1910500526428223
1772408669243452400,4.562452392578125,2.1090002059936523,-1.0999500751495361,-3.091050148010254
1772408669263512300,4.58251220703125,1.8870000839233398,-0.24495001137256622,-3.2940001487731934
1772408669283572700,4.60257275390625,1.111050009727478,1.1809500455856323,-2.4660000801086426
1772408669303632400,4.62263232421875,0.07905000448226929,2.1739501953125,-0.5410500168800354
1772408669323692500,4.642692626953125,-0.5209500193595886,2.4690001010894775,1.6530001163482666
1772408669343752400,4.66275244140625,0.39000001549720764,1.9780501127243042,3.0610501766204834
1772408669363812400,4.682812255859375,2.8969502449035645,0.3360000252723694,4.537950038909912
1772408669383872500,4.70287255859375,6.061950206756592,-5.275050163269043,7.2300004959106445
1772408669403932400,4.722932373046875,7.61400032043457,-12.309000968933105,11.944050788879395
1772408669423992600,4.74299267578125,9.499950408935547,-18.927000045776367,14.769001007080078
1772408669444052500,4.763052490234375,15.898050308227539,-27.886051177978516,16.71795082092285
1772408669464112400,4.7831123046875,21.58905029296875,-35.07105255126953,15.363000869750977
1772408669484172500,4.803172607421875,21.748950958251953,-35.092952728271484,14.884050369262695
1772408669504232400,4.823232421875,16.678050994873047,-31.816951751708984,12.384000778198242
1772408669524292400,4.843292236328125,10.828950881958008,-23.248950958251953,8.050950050354004
1772408669544352500,4.8633525390625,6.157950401306152,-12.444000244140625,5.8120503425598145
1772408669564412400,4.883412353515625,2.7370500564575195,-3.4579501152038574,3.8800501823425293
1772408669584472300,4.903472412109375,1.0459500551223755,2.0329501628875732,2.590050220489502
1772408669604532500,4.923532470703125,1.1040000915527344,4.480050086975098,1.8330000638961792
1772408669624592400,4.94359228515625,0.8119500279426575,4.69605016708374,1.3159500360488892
1772408669644652300,4.96365234375,0.6370500326156616,3.520050048828125,1.1530500650405884
1772408669664712400,4.98371240234375,1.3069500923156738,1.4710500240325928,0.9850500226020813
1772408669684772400,5.0037724609375,1.4700000286102295,-0.06599999964237213,0.8800500631332397
1772408669704832300,5.023832275390625,2.014050006866455,-0.15405000746250153,0.8389500379562378
1772408669724892400,5.043892333984375,2.6460001468658447,0.4909500181674957,0.8710500597953796
1772408669744952000,5.0639521484375,2.5909500122070312,0.9079500436782837,0.1570500135421753
1772408669765012200,5.08401220703125,2.8249502182006836,1.645050048828125,-0.49605002999305725
1772408669785072000,5.104072021484375,3.1459500789642334,2.464050054550171,-0.5839500427246094
1772408669805132000,5.124132080078125,2.6050500869750977,2.6170501708984375,0.013050000183284283
1772408669825192200,5.144192138671875,1.810050129890442,2.0310001373291016,0.8730000257492065
1772408669845252000,5.164252197265625,1.2720000743865967,1.321950078010559,1.9579501152038574
1772408669865312000,5.18431201171875,1.5349500179290771,0.17100000381469727,2.719050168991089
1772408669885372200,5.2043720703125,3.4960501194000244,-2.3400001525878906,3.4230000972747803
1772408669905432300,5.224432373046875,6.034050464630127,-8.95995044708252,5.889000415802002
1772408669925492200,5.2444921875,9.594000816345215,-18.99195098876953,10.581000328063965
1772408669945552100,5.26455224609375,15.072000503540039,-27.132001876831055,12.982950210571289
1772408669965612000,5.284612060546875,19.47705078125,-33.7900505065918,15.351000785827637
1772408669985672200,5.304672119140625,20.224050521850586,-34.38600158691406,16.885051727294922
1772408670005731800,5.32473193359375,15.63900089263916,-32.02799987792969,16.4809513092041
1772408670025792000,5.3447919921875,10.75005054473877,-25.37700080871582,11.980051040649414
1772408670045852000,5.364851806640625,7.789050579071045,-14.802000999450684,8.269050598144531
1772408670065912000,5.384912109375,4.429050445556641,-4.98105001449585,5.878950119018555
1772408670085972000,5.404971923828125,1.4680501222610474,1.0489500761032104,4.174950122833252
1772408670106031900,5.425031982421875,0.07905000448226929,3.889050245285034,2.91795015335083
1772408670126091800,5.445091796875,-1.0950000286102295,4.353000164031982,2.182950019836426
1772408670146152000,5.46515185546875,-2.0940001010894775,3.211050033569336,1.8880500793457031
1772408670166211800,5.4852119140625,-2.515050172805786,1.1190000772476196,1.7590501308441162
1772408670186272000,5.50527197265625,-1.1650500297546387,-0.7290000319480896,1.3489500284194946
1772408670206331600,5.52533154296875,0.8089500665664673,-1.3320000171661377,0.35100001096725464
1772408670226391600,5.5453916015625,2.3779501914978027,-0.999000072479248,-0.42795002460479736
1772408670246451700,5.56545166015625,2.4660000801086426,-0.21900001168251038,-0.6940500140190125
1772408670266511600,5.58551171875,1.5400500297546387,0.7399500608444214,-0.49605002999305725
1772408670286571500,5.605571533203125,0.5440500378608704,1.2930001020431519,-0.032999999821186066
1772408670306631400,5.62563134765625,0.2440500110387802,1.363050103187561,1.287000060081482
1772408670326691600,5.645691650390625,0.3430500030517578,1.5640500783920288,2.0629501342773438
1772408670346751500,5.66575146484375,1.0870500802993774,0.9250500202178955,2.0490000247955322
1772408670366811400,5.685811279296875,2.788950204849243,-0.23295001685619354,2.1319501399993896
1772408670386871300,5.705871337890625,4.366950035095215,-3.022050142288208,3.115950107574463
1772408670406931200,5.72593115234375,5.988000392913818,-8.862000465393066,5.854950428009033
1772408670426991000,5.7459912109375,8.45895004272461,-15.532051086425781,9.243000030517578
1772408670447051300,5.76605126953125,12.442950248718262,-22.375051498413086,11.551050186157227
1772408670467111200,5.786111083984375,16.98000144958496,-29.983051300048828,14.862000465393066
1772408670487171000,5.806171142578125,19.455001831054688,-35.19795227050781,16.54800033569336
1772408670507231200,5.826231201171875,18.354000091552734,-34.579952239990234,13.210050582885742
1772408670527291000,5.846290771484375,13.755001068115234,-27.775951385498047,9.705000877380371
1772408670547351000,5.86635107421875,10.093950271606445,-17.325000762939453,7.315950393676758
1772408670567411000,5.886410888671875,7.609050273895264,-7.504050254821777,5.379000186920166
1772408670587470800,5.906470947265625,4.4920501708984375,-0.3379500210285187,4.026000022888184
1772408670607531000,5.926531005859375,1.4800500869750977,2.883000135421753,2.8909502029418945
1772408670627591000,5.9465908203125,-0.24795001745224,3.9340500831604004,2.3430001735687256
1772408670647650600,5.966650634765625,-1.27305006980896,3.5460002422332764,2.688000202178955
1772408670667710700,5.986710693359375,-2.2110002040863037,2.344050168991089,2.908050060272217
1772408670687770600,6.0067705078125,-2.2639501094818115,0.7140000462532043,2.5060501098632812
1772408670707830500,6.02683056640625,-1.3900500535964966,-0.42195001244544983,1.2750000953674316
1772408670727890700,6.046890625,0.1770000010728836,-0.7450500130653381,0.31995001435279846
1772408670747950300,6.066950439453125,1.8630000352859497,-0.25200000405311584,0.08295000344514847
1772408670768010500,6.087010498046875,2.703000068664551,0.6010500192642212,0.583050012588501
1772408670788070400,6.1070703125,2.245950222015381,1.281000018119812,1.045050024986267
1772408670808130300,6.12713037109375,1.3720500469207764,1.3870500326156616,1.0049999952316284
1772408670828190500,6.1471904296875,1.5780000686645508,1.3720500469207764,1.1269500255584717
1772408670848250400,6.16725048828125,1.966050148010254,0.973050057888031,1.7040001153945923
1772408670868310300,6.187310302734375,2.098050117492676,0.5749500393867493,2.299950122833252
1772408670888370200,6.2073701171875,2.4660000801086426,-0.9199500679969788,2.8219501972198486
1772408670908430000,6.22743017578125,3.6850502490997314,-5.023950099945068,4.522050380706787
1772408670928490000,6.247489990234375,5.761050224304199,-11.43600082397461,7.5259504318237305
1772408670948550100,6.267550048828125,8.701050758361816,-17.694000244140625,11.194050788879395
1772408670968609800,6.28760986328125,12.574950218200684,-24.450000762939453,15.255001068115234
1772408670988669700,6.307669677734375,16.948951721191406,-29.790000915527344,17.236949920654297
1772408671008729600,6.3277294921875,18.18705177307129,-32.454002380371094,16.086000442504883
1772408671028789800,6.347789794921875,14.617051124572754,-32.08095169067383,13.465950965881348
1772408671048849400,6.367849365234375,10.932000160217285,-27.47895050048828,9.588000297546387
1772408671068909300,6.387909423828125,9.172050476074219,-18.634950637817383,7.255950450897217
1772408671088969500,6.407969482421875,6.511950492858887,-9.187050819396973,5.2759504318237305
1772408671109029400,6.428029296875,3.4930500984191895,-2.5440001487731934,4.360949993133545
1772408671129089300,6.44808935546875,0.534000039100647,0.8359500169754028,3.7320001125335693
1772408671149149200,6.468149169921875,-1.4620500802993774,2.413950204849243,2.8530001640319824
1772408671169209000,6.488208984375,-2.7739500999450684,3.0580501556396484,2.1510000228881836
1772408671189269000,6.50826904296875,-3.2980501651763916,2.8570501804351807,1.6870501041412354
1772408671209329000,6.528328857421875,-2.893050193786621,1.7430000305175781,1.725000023841858
1772408671229388800,6.548388916015625,-1.6909500360488892,0.4630500078201294,1.689000129699707
1772408671249449000,6.568448974609375,-0.11400000751018524,-0.22095000743865967,1.3470001220703125
1772408671269508900,6.5885087890625,1.1400001049041748,0.18000000715255737,1.2199500799179077
1772408671289568500,6.608568603515625,1.8960001468658447,0.8530500531196594,1.3210500478744507
1772408671309628700,6.628628662109375,2.2290000915527344,1.420050024986267,1.6680001020431519
1772408671329688600,6.6486884765625,2.0209500789642334,1.9039500951766968,2.01705002784729
1772408671349748500,6.66874853515625,1.5679501295089722,1.771950125694275,1.821000099182129
1772408671369808400,6.688808349609375,1.6930500268936157,1.210050106048584,1.8229501247406006
1772408671389868300,6.708868408203125,2.0689501762390137,0.1489500105381012,1.8520500659942627
1772408671409928200,6.72892822265625,3.0739500522613525,-1.7290500402450562,2.668950080871582
1772408671429988000,6.748988037109375,4.717050075531006,-6.592050075531006,5.11305046081543
1772408671450048000,6.769048095703125,6.022050380706787,-14.287050247192383,8.9170503616333
1772408671470108000,6.78910791015625,9.460050582885742,-20.74395179748535,12.781950950622559
1772408671490167800,6.809167724609375,15.285000801086426,-27.490951538085938,17.563051223754883
1772408671510227700,6.829227783203125,18.574050903320312,-32.59800338745117,20.95800018310547
1772408671530287600,6.84928759765625,16.828950881958008,-34.08705139160156,20.81205177307129
1772408671550347500,6.869347412109375,13.164000511169434,-31.36005210876465,16.90904998779297
1772408671570407200,6.8894072265625,9.84795093536377,-22.846050262451172,10.600950241088867
1772408671590467300,6.90946728515625,6.673050403594971,-12.436050415039062,6.037050247192383
1772408671610527200,6.92952734375,3.4360501766204834,-3.9940502643585205,2.3329501152038574
1772408671630587100,6.949587158203125,1.3270500898361206,0.9529500603675842,0.2530499994754791
1772408671650646800,6.969646728515625,-0.46995002031326294,3.075000047683716,-0.11205000430345535
1772408671670706700,6.989706787109375,-2.517000198364258,3.1459500789642334,0.18300001323223114
1772408671690766300,7.009766357421875,-3.7390501499176025,2.2920000553131104,0.8080500364303589
1772408671710826500,7.029826416015625,-2.9410500526428223,0.9510000348091125,2.07705020904541
1772408671730886400,7.049886474609375,-1.4760000705718994,-0.4440000355243683,2.3140501976013184
1772408671750946300,7.0699462890625,0.13395000994205475,-0.8560500144958496,1.4599500894546509
1772408671771006200,7.090006103515625,1.8889501094818115,-0.6160500049591064,0.6019500494003296
1772408671791066000,7.110066162109375,2.8879501819610596,0.06795000284910202,-0.07695000618696213
1772408671811126000,7.1301259765625,2.2699501514434814,0.7140000462532043,0.004050000105053186
1772408671831186000,7.15018603515625,1.0849500894546509,1.3510500192642212,1.158000111579895
1772408671851245800,7.170245849609375,-0.23295001685619354,1.8300000429153442,2.0680501461029053
1772408671871305700,7.1903056640625,-0.8100000619888306,1.6810500621795654,2.745000123977661
1772408671891365600,7.21036572265625,-0.07095000147819519,0.9250500202178955,2.6950502395629883
1772408671911425500,7.230425537109375,1.390950083732605,0.2760000228881836,3.4870500564575195
1772408671931485400,7.2504853515625,2.514000177383423,-1.453950047492981,4.627050399780273
1772408671951545300,7.27054541015625,3.7230002880096436,-5.8690505027771,6.906000137329102
1772408671971605200,7.290605224609375,6.070050239562988,-13.710000991821289,13.495050430297852
1772408671991665200,7.3106650390625,11.386950492858887,-21.697050094604492,17.92005157470703
1772408672011725000,7.33072509765625,15.988950729370117,-27.679950714111328,19.438051223754883
1772408672031784700,7.35078466796875,18.73995018005371,-33.562950134277344,21.171001434326172
1772408672051844900,7.370844970703125,19.2450008392334,-34.044002532958984,19.555051803588867
1772408672071904800,7.39090478515625,15.37605094909668,-28.887001037597656,14.605950355529785
1772408672091964400,7.41096435546875,12.330000877380371,-18.379051208496094,8.518050193786621
1772408672112024600,7.431024658203125,10.705050468444824,-8.365950584411621,4.51200008392334
1772408672132084500,7.45108447265625,7.627950191497803,-1.4089500904083252,1.5460500717163086
1772408672152144100,7.47114404296875,3.6030001640319824,1.8439500331878662,0.226950004696846
1772408672172204000,7.4912041015625,-0.24300001561641693,2.8570501804351807,0.49695003032684326
1772408672192264200,7.51126416015625,-2.3140501976013184,2.6170501708984375,2.070000171661377
1772408672212323800,7.53132373046875,-2.7660000324249268,1.537950038909912,3.05400013923645
1772408672232383700,7.5513837890625,-2.0820000171661377,-0.17805001139640808,2.7280502319335938
1772408672252443600,7.571443603515625,-1.4310001134872437,-0.9439500570297241,1.2679500579833984
1772408672272503600,7.591503662109375,-0.23100000619888306,-1.0810500383377075,0.28905001282691956
1772408672292563500,7.6115634765625,-0.004050000105053186,-0.5490000247955322,-0.3040500283241272
1772408672312623000,7.631623046875,-0.45795002579689026,0.42705002427101135,-0.6319500207901001
1772408672332683300,7.651683349609375,-0.9040500521659851,0.9340500235557556,-0.5629500150680542
1772408672352743000,7.671742919921875,-0.7510500550270081,1.4590500593185425,-0.40905001759529114
1772408672372802800,7.691802734375,0.1080000028014183,1.2769500017166138,-0.3060000240802765
1772408672392862700,7.71186279296875,0.9600000381469727,0.6330000162124634,0.05700000375509262
1772408672412922600,7.731922607421875,1.8510000705718994,-0.16395001113414764,0.1399500072002411
1772408672432982500,7.751982421875,2.9760000705718994,-1.2720000743865967,0.46605002880096436
1772408672453042400,7.77204248046875,3.6250500679016113,-2.7490501403808594,1.9549500942230225
1772408672473102300,7.792102294921875,4.980000019073486,-6.3259501457214355,5.431950092315674
1772408672493162000,7.812161865234375,9.361950874328613,-10.918050765991211,7.086000442504883
1772408672513222000,7.832221923828125,13.252050399780273,-14.088000297546387,7.354050159454346
1772408672533281800,7.85228173828125,15.891000747680664,-16.279050827026367,10.32300090789795
1772408672553341700,7.872341796875,17.701051712036133,-19.86600112915039,13.531050682067871
1772408672573401600,7.892401611328125,17.950050354003906,-25.189950942993164,15.11400032043457
1772408672593461200,7.912461181640625,20.30805015563965,-29.184001922607422,13.741950988769531
1772408672613521400,7.932521484375,22.276050567626953,-25.12995147705078,9.427050590515137
1772408672633581000,7.9525810546875,17.65005111694336,-15.80505084991455,5.914950370788574
1772408672653641000,7.972640869140625,9.60105037689209,-7.300950527191162,4.852050304412842
1772408672673700600,7.99270068359375,2.722050189971924,-1.5360000133514404,3.7320001125335693
1772408672693760800,8.0127607421875,-0.28395000100135803,1.7320500612258911,2.5350000858306885
1772408672713820700,8.032820556640624,0.36195001006126404,3.199050188064575,1.6489500999450684
1772408672733880300,8.05288037109375,1.7910001277923584,2.5669500827789307,1.4310001134872437
1772408672753940200,8.072940185546875,1.924950122833252,1.7340000867843628,1.7059500217437744
1772408672774000000,8.093000244140624,1.7359501123428345,1.3129500150680542,1.384950041770935
1772408672794060000,8.11306005859375,2.45205020904541,0.4819500148296356,0.5140500068664551
1772408672814119700,8.13311962890625,2.9640002250671387,0.34005001187324524,0.0880500078201294
1772408672834179800,8.153179931640626,2.641050100326538,0.7710000276565552,0.11205000430345535
1772408672854239500,8.173239501953125,2.004000186920166,1.0369499921798706,0.17595000565052032
1772408672874299400,8.19329931640625,1.0270500183105469,1.662000060081482,0.16395001113414764
1772408672894359300,8.213359375,0.35895001888275146,1.9369500875473022,0.6220500469207764
1772408672914419200,8.233419189453125,0.48405003547668457,1.7149500846862793,1.9380000829696655
1772408672934478800,8.253478759765626,0.9439500570297241,0.2779500186443329,2.91795015335083
1772408672954538800,8.273538818359375,3.20805025100708,-5.068950176239014,5.797950267791748
1772408672974598700,8.2935986328125,9.522000312805176,-11.887950897216797,9.37695026397705
1772408672994658600,8.313658447265626,17.503950119018555,-17.97705078125,12.061050415039062
1772408673014718200,8.33371826171875,25.13895034790039,-24.6949520111084,14.664000511169434
1772408673034778000,8.353778076171874,27.286951065063477,-28.80105209350586,15.997050285339355
1772408673054838300,8.37383837890625,23.932950973510742,-27.943950653076172,14.995950698852539
1772408673074898000,8.39389794921875,18.634050369262695,-22.825050354003906,11.427000999450684
1772408673094957600,8.41395751953125,14.454000473022461,-14.96505069732666,8.446050643920898
1772408673115017500,8.434017578125,8.89905071258545,-6.693000316619873,5.9920501708984375
1772408673135077600,8.45407763671875,1.645050048828125,-0.031950000673532486,3.1429500579833984
1772408673155137300,8.47413720703125,-3.433950185775757,3.369000196456909,1.366050124168396
1772408673175197200,8.494197265625,-3.922950267791748,4.236000061035156,0.9660000205039978
1772408673195257000,8.514257080078124,-1.9620001316070557,3.0990002155303955,1.1959500312805176
1772408673215316700,8.534316650390625,-0.1860000044107437,1.5280500650405884,1.8690000772476196
1772408673235376600,8.554376708984375,1.3860000371932983,-0.08205000311136246,2.2759501934051514
1772408673255436500,8.5744365234375,2.8129501342773438,-0.9589500427246094,1.3609501123428345
1772408673275496400,8.594496337890625,3.5869500637054443,-0.690000057220459,0.23805001378059387
1772408673295556000,8.61455615234375,3.5629501342773438,-0.35805001854896545,-0.004950000438839197
1772408673315616000,8.634615966796876,2.45205020904541,0.4410000145435333,0.013050000183284283
1772408673335676000,8.654676025390625,0.8860500454902649,2.0689501762390137,0.4849500358104706
1772408673355735800,8.67473583984375,0.07005000114440918,3.0169501304626465,1.3690500259399414
1772408673375795500,8.69479541015625,0.9510000348091125,2.9880001544952393,2.3449501991271973
1772408673395855400,8.71485546875,2.0299501419067383,1.9609501361846924,1.902000069618225
1772408673415915300,8.734915283203126,2.883000135421753,0.3720000088214874,1.0840500593185425
1772408673435975200,8.75497509765625,4.4920501708984375,-1.2480000257492065,0.35100001096725464
1772408673456035000,8.77503515625,6.175050258636475,-3.274050235748291,2.350050210952759
1772408673476095000,8.795094970703126,7.495950222015381,-7.345950126647949,6.364950180053711
1772408673496154600,8.815154541015625,10.779000282287598,-12.979950904846191,8.914950370788574
1772408673516214300,8.83521435546875,16.61400032043457,-18.642000198364258,11.344950675964355
1772408673536274200,8.855274169921875,19.98000144958496,-25.075050354003906,15.858000755310059
1772408673556334000,8.875333984375,21.744001388549805,-31.261951446533203,19.432950973510742
1772408673576394000,8.89539404296875,22.696950912475586,-33.046051025390625,17.154001235961914
1772408673596453600,8.91545361328125,20.143051147460938,-25.585050582885742,12.480000495910645
1772408673616513500,8.935513427734374,14.683950424194336,-14.473950386047363,9.799050331115723
1772408673636573400,8.955573486328126,8.329950332641602,-5.3110504150390625,7.006950378417969
1772408673656633300,8.97563330078125,2.7940502166748047,0.4429500102996826,3.2890501022338867
1772408673676693000,8.99569287109375,-1.2990000247955322,2.965050220489502,1.6990500688552856
1772408673696753000,9.0157529296875,-3.6120002269744873,3.787950277328491,1.9840500354766846
1772408673716812800,9.035812744140625,-3.9130501747131348,3.3979501724243164,2.9250001907348633
1772408673736872400,9.05587255859375,-1.6459500789642334,1.915950059890747,3.307950258255005
1772408673756932400,9.075932373046875,1.204050064086914,0.27105000615119934,2.2980000972747803
1772408673776992300,9.0959921875,3.331050157546997,-0.8629500269889832,0.544950008392334
1772408673797052200,9.11605224609375,3.864000082015991,-0.5520000457763672,-0.42795002460479736
1772408673817111800,9.13611181640625,2.725050210952759,0.15600000321865082,-0.7159500122070312
1772408673837171700,9.156171630859374,1.9870500564575195,0.4600500166416168,-0.40005001425743103
1772408673857231600,9.176231689453125,1.5210000276565552,0.9100500345230103,0.08295000344514847
1772408673877291300,9.196291259765625,0.4720500111579895,1.4899500608444214,0.6100500226020813
1772408673897351000,9.216350830078126,0.19200000166893005,1.5420000553131104,0.781950056552887
1772408673917410800,9.236410888671875,0.5389500260353088,1.3560000658035278,1.5580500364303589
1772408673937470700,9.256470703125,1.4629501104354858,0.7429500222206116,2.0269501209259033
1772408673957530600,9.276530517578125,3.2059502601623535,-1.0900501012802124,1.689000129699707
1772408673977590300,9.29659033203125,5.164050102233887,-3.8239502906799316,4.312950134277344
1772408673997650200,9.316650146484376,8.385000228881836,-8.617950439453125,8.956050872802734
1772408674017710000,9.3367099609375,13.633050918579102,-15.070050239562988,13.360950469970703
1772408674037769700,9.356769775390624,16.330951690673828,-19.16400146484375,15.312000274658203
1772408674057829600,9.37682958984375,16.578001022338867,-23.8780517578125,18.47504997253418
1772408674077889500,9.3968896484375,19.386001586914062,-28.51095199584961,20.83605194091797
1772408674097949200,9.41694921875,21.14805030822754,-29.466001510620117,20.14095115661621
1772408674118009000,9.437009033203125,18.466951370239258,-24.13395118713379,15.985051155090332
1772408674138068700,9.45706884765625,13.288050651550293,-14.056950569152832,11.539050102233887
1772408674158128400,9.47712841796875,7.111050128936768,-3.501000165939331,7.5169501304626465
1772408674178188300,9.497188232421875,1.3819500207901,2.296950101852417,4.729950428009033
1772408674198248200,9.517248291015624,-2.9820001125335693,3.328050136566162,2.356950044631958
1772408674218308000,9.53730810546875,-4.986000061035156,2.8620002269744873,0.5040000081062317
1772408674238367700,9.55736767578125,-3.6259500980377197,1.4869500398635864,0.9709500670433044
1772408674258427400,9.577427490234374,-2.16795015335083,-0.3550500273704529,1.5510001182556152
1772408674278487300,9.5974873046875,-1.9549500942230225,-0.4729500114917755,1.5000001192092896
1772408674298547200,9.617547119140625,-0.26205000281333923,-0.14505000412464142,1.4910000562667847
1772408674318606800,9.63760693359375,1.9590001106262207,0.036000002175569534,0.8710500597953796
1772408674338666800,9.657666748046875,2.505000114440918,-0.07005000114440918,-0.3949500322341919
1772408674358726700,9.6777265625,1.4989501237869263,0.48900002241134644,-0.47895002365112305
1772408674378786300,9.697786376953125,1.204050064086914,0.7210500240325928,-0.3330000042915344
1772408674398846200,9.71784619140625,1.1179500818252563,0.44805002212524414,-0.21495001018047333
1772408674418905900,9.73790576171875,0.559950053691864,0.7120500206947327,0.8869500160217285
1772408674438965500,9.757965576171875,1.1569499969482422,0.2569500207901001,1.9720500707626343
1772408674459025400,9.778025390625,2.694000244140625,-0.7549500465393066,2.1010501384735107
1772408674479085300,9.798085205078126,4.267050266265869,-1.324950098991394,3.8269500732421875
1772408674499145000,9.81814501953125,6.364050388336182,-3.6739501953125,6.8680500984191895
1772408674519204900,9.838204833984374,10.06095027923584,-7.677000522613525,9.324000358581543
1772408674539264500,9.858264404296875,12.996000289916992,-9.585000038146973,12.526050567626953
1772408674559324400,9.878324462890625,13.116000175476074,-11.926050186157227,15.516000747680664
1772408674579384300,9.89838427734375,11.965950965881348,-16.86600112915039,17.884050369262695
1772408674599444000,9.91844384765625,13.213950157165527,-20.566951751708984,17.841001510620117
1772408674619503900,9.93850390625,14.631000518798828,-18.60405158996582,14.764050483703613
1772408674639563800,9.958563720703125,13.321950912475586,-13.486950874328613,11.848050117492676
1772408674659623700,9.978623779296875,10.645050048828125,-9.481950759887695,9.961050033569336
1772408674679683300,9.998683349609376,7.932000160217285,-7.444050312042236,8.6089506149292
1772408674699743200,10.0187431640625,6.043050289154053,-5.634000301361084,7.633950233459473
1772408674719803000,10.038802978515625,5.457000255584717,-4.159950256347656,7.519050121307373
1772408674739862800,10.05886279296875,6.223050117492676,-2.854950189590454,7.342050552368164
1772408674759922700,10.078922607421875,7.267050266265869,-2.425950050354004,6.396000385284424
