time,seconds_elapsed,z,y,x
1772408664850306800,0.169306884765625,0.6187499761581421,0.8999375104904175,1.1054999828338623
1772408664870367000,0.189366943359375,0.5590749979019165,0.7603750228881836,0.8743624687194824
1772408664890427100,0.20942724609375,0.3375625014305115,0.583549976348877,0.6495500206947327
1772408664910487000,0.229487060546875,0.3811500072479248,0.49720001220703125,0.31088748574256897
1772408664930547200,0.249547119140625,0.5143874883651733,0.27678748965263367,0.06366249918937683
1772408664950607400,0.269607421875,0.5366625189781189,-0.007699999958276749,-0.08002500236034393
1772408664970667500,0.28966748046875,0.5889124870300293,-0.0193875003606081,-0.26647499203681946
1772408664990727400,0.3097275390625,0.5676000118255615,-0.08442500233650208,-0.3858250081539154
1772408665010787600,0.32978759765625,0.39820000529289246,-0.2868250012397766,-0.34540000557899475
1772408665030847500,0.349847412109375,0.3683624863624573,-0.1237500011920929,-0.33687499165534973
1772408665050907600,0.36990771484375,0.48881250619888306,0.12443749606609344,-0.5381749868392944
1772408665070967600,0.389967529296875,0.41318750381469727,-0.17710000276565552,-0.993025004863739
1772408665091027700,0.41002783203125,0.057337500154972076,-0.8406749963760376,-1.446774959564209
1772408665111087900,0.430087890625,-0.4805625081062317,-1.5192375183105469,-1.6502749919891357
1772408665131147800,0.450147705078125,-0.7874624729156494,-1.4745500087738037,-1.380774974822998
1772408665151208000,0.4702080078125,-0.5978500247001648,-0.5498625040054321,-0.652162492275238
1772408665171267800,0.490267822265625,-0.5094375014305115,0.32147499918937683,-0.08855000138282776
1772408665191327700,0.51032763671875,-0.5732374787330627,1.0693374872207642,-0.005499999970197678
1772408665211388200,0.53038818359375,-0.5103999972343445,1.4037375450134277,0.011549999937415123
1772408665231448000,0.550447998046875,-0.33041250705718994,1.331412434577942,0.1266375035047531
1772408665251508000,0.570508056640625,-0.1311749964952469,0.9468249678611755,0.28421249985694885
1772408665271568100,0.590568115234375,0.04138749837875366,0.4652999937534332,0.282150000333786
1772408665291628000,0.6106279296875,0.26083749532699585,-0.015124999918043613,0.1223749965429306
1772408665311688200,0.630688232421875,0.3993000090122223,-0.4295499920845032,0.004124999977648258
1772408665331748000,0.650748046875,0.42061248421669006,-0.6595875024795532,0.05623750016093254
1772408665351808300,0.670808349609375,0.30662500858306885,-0.9025499820709229,0.17874999344348907
1772408665371868400,0.690868408203125,0.030662499368190765,-0.9142374992370605,0.25753748416900635
1772408665391928300,0.71092822265625,-0.24089999496936798,-0.44013750553131104,0.18191249668598175
1772408665411988200,0.73098828125,-0.3431999981403351,0.3353624939918518,-0.025712499395012856
1772408665432048400,0.75104833984375,-0.2974124848842621,0.8465874791145325,0.0147124994546175
1772408665452108500,0.771108642578125,-0.20899999141693115,0.9244124889373779,0.24695000052452087
1772408665472168400,0.79116845703125,-0.2525874972343445,0.6506500244140625,0.23100000619888306
1772408665492228600,0.811228515625,-0.29631251096725464,0.23842500150203705,-0.26977500319480896
1772408665512288500,0.83128857421875,-0.21216249465942383,-0.10779999941587448,-0.8608874678611755
1772408665532348400,0.851348388671875,0.020075000822544098,0.05197500064969063,-0.6905249953269958
1772408665552408600,0.87140869140625,0.17448750138282776,0.3172124922275543,0.06366249918937683
1772408665572468700,0.89146875,0.44618749618530273,0.3268375098705292,0.3918749988079071
1772408665592528600,0.911528564453125,0.9010375142097473,-0.20157499611377716,0.23416249454021454
1772408665612588800,0.9315888671875,1.3132624626159668,-0.6819999814033508,0.3928374946117401
1772408665632648700,0.951648681640625,1.4464999437332153,-0.7033125162124634,0.849887490272522
1772408665652708900,0.971708984375,1.0576499700546265,-0.7959874868392944,1.2270499467849731
1772408665672769000,0.99176904296875,0.4109874963760376,-0.5754374861717224,1.0917500257492065
1772408665692829000,1.011828857421875,0.07122500240802765,0.2586374878883362,0.5440874695777893
1772408665712888800,1.031888916015625,0.028599999845027924,0.7720624804496765,0.11811249703168869
1772408665732949000,1.051948974609375,0.09459999948740005,0.7103250026702881,-0.03959999978542328
1772408665753009000,1.0720087890625,-0.010862499475479126,0.060499999672174454,0.060499999672174454
1772408665773068800,1.09206884765625,-0.31226250529289246,-0.45938751101493835,0.06270000338554382
1772408665793129000,1.11212890625,-0.6329125165939331,-0.24956250190734863,-0.2186249941587448
1772408665813189000,1.132189208984375,-0.8395749926567078,0.15633749961853027,-0.522225022315979
1772408665833249000,1.1522490234375,-0.9322500228881836,0.38321250677108765,-0.5700749754905701
1772408665853309000,1.172308837890625,-0.9312874674797058,0.3843125104904175,-0.24089999496936798
1772408665873369000,1.192369140625,-0.8853625059127808,0.4109874963760376,0.14354999363422394
1772408665893429200,1.21242919921875,-0.6148999929428101,0.8541499972343445,0.2628999948501587
1772408665913489200,1.2324892578125,-0.2611125111579895,0.9147874712944031,0.27252501249313354
1772408665933549300,1.25254931640625,-0.11096250265836716,0.04455000162124634,0.043449997901916504
1772408665953609200,1.272609130859375,-0.1046374961733818,-1.0676875114440918,-0.3634124994277954
1772408665973669000,1.292669189453125,-0.38788750767707825,-1.472487449645996,-0.5765374898910522
1772408665993729300,1.312729248046875,-0.49445000290870667,-0.6862624883651733,-0.4006749987602234
1772408666013789200,1.3327890625,0.02213750034570694,0.4067249894142151,0.2363625019788742
1772408666033849300,1.352849365234375,0.6335999965667725,0.6612374782562256,0.8530499935150146
1772408666053909200,1.3729091796875,1.1801625490188599,0.3502124845981598,1.0799249410629272
1772408666073969400,1.392969482421875,1.4155625104904175,0.0147124994546175,1.2984124422073364
1772408666094029300,1.413029296875,1.3206875324249268,-0.035337500274181366,1.483762502670288
1772408666114089500,1.43308935546875,1.2120624780654907,-0.059950001537799835,1.4548875093460083
1772408666134149600,1.453149658203125,1.0192874670028687,-0.10889999568462372,1.4070374965667725
1772408666154209500,1.47320947265625,0.7721999883651733,-0.12168750166893005,1.1364375352859497
1772408666174269700,1.493269775390625,0.5068249702453613,-0.05664999783039093,0.6133875250816345
1772408666194329600,1.51332958984375,0.12017499655485153,0.02213750034570694,-0.008662499487400055
1772408666214389800,1.5333896484375,-0.3559874892234802,0.10628750175237656,-0.5274500250816345
1772408666234449700,1.55344970703125,-0.7682124972343445,0.07108750194311142,-0.80121248960495
1772408666254509600,1.573509521484375,-1.0111750364303589,0.07108750194311142,-0.9046124815940857
1772408666274569700,1.59356982421875,-1.0942250490188599,0.1190750002861023,-0.8065750002861023
1772408666294629600,1.613629638671875,-1.0782749652862549,-0.14409999549388885,-0.5285499691963196
1772408666314689500,1.633689453125,-1.0740125179290771,-0.7118374705314636,-0.27073749899864197
1772408666334749700,1.653749755859375,-1.0419750213623047,-0.9259250164031982,-0.16843749582767487
1772408666354809600,1.6738095703125,-0.7053750157356262,-0.44013750553131104,-0.36024999618530273
1772408666374869800,1.693869873046875,-0.048124998807907104,0.40878748893737793,-0.5563250184059143
1772408666394930000,1.713929931640625,0.2864125072956085,0.10944999754428864,-0.431612491607666
1772408666414989800,1.73398974609375,0.05843750014901161,-1.4244999885559082,-0.6542249917984009
1772408666435049700,1.7540498046875,-0.17173749208450317,-1.9975999593734741,-1.362625002861023
1772408666455110000,1.77410986328125,-0.3932499885559082,-0.5253875255584717,-1.4788124561309814
1772408666475169800,1.794169677734375,-0.5487625002861023,1.1140249967575073,-0.45938751101493835
1772408666495230000,1.81422998046875,-0.5424374938011169,1.8693125247955322,0.4302375018596649
1772408666515289900,1.834289794921875,0.0999625027179718,2.0504000186920166,0.4641999900341034
1772408666535350000,1.85435009765625,0.9425625205039978,1.5071375370025635,0.5974375009536743
1772408666555410000,1.874409912109375,1.300475001335144,0.8530499935150146,1.2194875478744507
1772408666575469800,1.8944697265625,1.3601499795913696,0.3843125104904175,1.7382749319076538
1772408666595530000,1.914530029296875,1.2930500507354736,-0.014024999924004078,1.724524974822998
1772408666615590000,1.93458984375,1.1236499547958374,-0.19731250405311584,1.1481250524520874
1772408666635650000,1.954650146484375,0.8648750185966492,-0.05458749830722809,0.44288748502731323
1772408666655710200,1.974710205078125,0.3768875002861023,-0.17916250228881836,-0.10779999941587448
1772408666675770000,1.99477001953125,-0.28146249055862427,-0.39118748903274536,-0.5157625079154968
1772408666695830300,2.014830322265625,-0.8054749965667725,-0.3251875042915344,-0.8375124931335449
1772408666715890200,2.03489013671875,-1.0334500074386597,-0.06517499685287476,-1.1027499437332153
1772408666735950300,2.054950439453125,-1.079237461090088,0.09886249899864197,-1.1635249853134155
1772408666756010200,2.07501025390625,-0.9695125222206116,0.10312499850988388,-0.8853625059127808
1772408666776070100,2.095070068359375,-0.7969499826431274,-0.05238749831914902,-0.4039750099182129
1772408666796130300,2.11513037109375,-0.522225022315979,-0.09611249715089798,-0.00976249948143959
1772408666816190200,2.135190185546875,-0.20157499611377716,0.19263750314712524,0.29809999465942383
1772408666836250000,2.15525,0.1340624988079071,0.7242124676704407,0.5036625266075134
1772408666856310300,2.175310302734375,0.47066250443458557,0.8914124965667725,0.46213749051094055
1772408666876370400,2.195370361328125,0.6241124868392944,0.283112496137619,-0.08112499862909317
1772408666896430300,2.215430419921875,0.6710000038146973,-0.5796999931335449,-0.9611250162124634
1772408666916490500,2.235490478515625,0.2639999985694885,-0.8780750036239624,-1.2742124795913696
1772408666936550400,2.25555029296875,-0.5413374900817871,-0.6041749715805054,-1.1261249780654907
1772408666956610300,2.2756103515625,-0.7246249914169312,0.26496249437332153,-0.4358749985694885
1772408666976670500,2.29567041015625,-0.3591499924659729,0.8370999693870544,0.3876124918460846
1772408666996730400,2.31573046875,0.517549991607666,0.739062488079071,0.7433249950408936
1772408667016790300,2.335790283203125,1.2865874767303467,0.05623750016093254,1.1034375429153442
1772408667036850400,2.355850341796875,1.5923874378204346,-0.8258249759674072,1.5881249904632568
1772408667056910300,2.375910400390625,1.5966500043869019,-1.2252625226974487,1.8129374980926514
1772408667076970500,2.395970458984375,1.3686749935150146,-0.9355499744415283,1.400575041770935
1772408667097030400,2.416030517578125,0.9201499819755554,-0.5711749792098999,0.6528499722480774
1772408667117090600,2.436090576171875,0.2714250087738037,-0.4977499842643738,-0.07576250284910202
1772408667137150700,2.456150634765625,-0.3900874853134155,-0.5242875218391418,-0.6052749752998352
1772408667157210600,2.476210693359375,-0.7969499826431274,-0.4529249966144562,-0.9407749772071838
1772408667177270800,2.496270751953125,-0.9279875159263611,-0.38692501187324524,-1.0410125255584717
1772408667197330700,2.51633056640625,-0.8375124931335449,-0.5498625040054321,-0.7511624693870544
1772408667237450800,2.55645068359375,-0.5988125205039978,-1.0026500225067139,0.3236750066280365
1772408667297630700,2.616630615234375,-0.408237487077713,0.38225001096725464,0.26510000228881836
1772408667317691000,2.63669091796875,-0.3975124955177307,0.6484500169754028,0.4684624969959259
1772408667337750800,2.656750732421875,-0.14190000295639038,1.1726000308990479,0.4493499994277954
1772408667357811000,2.67681103515625,0.17338749766349792,0.9062625169754028,0.2032250016927719
1772408667377870800,2.696870849609375,0.2853125035762787,-0.6766374707221985,-0.4295499920845032
1772408667397931000,2.716930908203125,0.334262490272522,-1.4660249948501587,-0.9418749809265137
1772408667417991000,2.736990966796875,0.11481250077486038,-1.0239624977111816,-0.7596874833106995
1772408667438051000,2.757051025390625,0.11811249703168869,-0.33687499165534973,-0.3315125107765198
1772408667458111000,2.777111083984375,0.22673749923706055,0.11591249704360962,-0.15248750150203705
1772408667478171000,2.7971708984375,0.6975374817848206,0.009349999949336052,-0.1396999955177307
1772408667498231000,2.81723095703125,1.1481250524520874,-0.5754374861717224,0.283112496137619
1772408667518291000,2.837291015625,1.3420000076293945,-0.8300874829292297,1.024649977684021
1772408667538351000,2.85735107421875,1.3547874689102173,-0.5339124798774719,1.6446374654769897
1772408667558411300,2.877411376953125,1.2248499393463135,-0.018287500366568565,1.7032124996185303
1772408667578471200,2.89747119140625,0.8743624687194824,0.41208750009536743,1.3271499872207642
1772408667598531000,2.917531005859375,0.29493749141693115,0.4503124952316284,0.6283749938011169
1772408667618591200,2.93759130859375,-0.3357749879360199,0.43656250834465027,-0.3634124994277954
1772408667638651100,2.957651123046875,-0.8045125007629395,0.6176499724388123,-1.2241624593734741
1772408667658711300,2.977711181640625,-1.0718125104904175,0.6261749863624573,-1.5043874979019165
1772408667678771200,2.997771240234375,-1.0462374687194824,0.37152498960494995,-1.290162444114685
1772408667698831400,3.017831298828125,-0.7576249837875366,0.15097500383853912,-0.8034124970436096
1772408667718891300,3.037891357421875,-0.4241875112056732,0.07438749819993973,-0.2750000059604645
1772408667738951200,3.057951171875,-0.18878750503063202,0.025299999862909317,0.06159999966621399
1772408667759011600,3.078011474609375,-0.09817499667406082,-0.09817499667406082,0.2032250016927719
1772408667779071500,3.098071533203125,-0.11316250264644623,-0.20473749935626984,0.30236250162124634
1772408667799131400,3.11813134765625,-0.042762499302625656,-0.005499999970197678,0.29809999465942383
1772408667819191600,3.138191650390625,-0.00976249948143959,0.3928374946117401,0.2703250050544739
1772408667839251500,3.15825146484375,-0.05238749831914902,1.1438624858856201,0.24268749356269836
1772408667859311600,3.1783115234375,0.0999625027179718,1.59871244430542,0.20006249845027924
1772408667879371500,3.19837158203125,0.10106249898672104,0.48551249504089355,-0.06627500057220459
1772408667899431400,3.218431396484375,-0.14079999923706055,-1.1985875368118286,-0.5648499727249146
1772408667919491600,3.23849169921875,-0.45182499289512634,-1.812250018119812,-0.3326124846935272
1772408667939551500,3.258551513671875,-0.8938875198364258,-1.5331250429153442,0.43972501158714294
1772408667959612000,3.27861181640625,-1.0888625383377075,-0.12911249697208405,0.5164499878883362
1772408667979671800,3.298671875,-0.7874624729156494,1.0278124809265137,0.055137500166893005
1772408667999731700,3.318731689453125,-0.1812250018119812,0.7231125235557556,0.18411250412464142
1772408668019792000,3.3387919921875,0.38005000352859497,0.20858749747276306,0.5611374974250793
1772408668039851800,3.358851806640625,0.7731624841690063,0.1915374994277954,0.8392999768257141
1772408668059911700,3.37891162109375,0.9127249717712402,0.39077499508857727,0.9649749994277954
1772408668079971800,3.398971923828125,0.8839874863624573,0.4152500033378601,1.033174991607666
1772408668100032000,3.419031982421875,0.7699999809265137,0.2947999835014343,0.9106624722480774
1772408668120092000,3.439091796875,0.42061248421669006,0.2938374876976013,0.46956250071525574
1772408668140151800,3.45915185546875,-0.10889999568462372,0.328900009393692,-0.15578749775886536
1772408668160212000,3.4792119140625,-0.5796999931335449,0.25753748416900635,-0.6575250029563904
1772408668180272000,3.499272216796875,-0.7969499826431274,0.15853749215602875,-0.7767375111579895
1772408668200332000,3.51933203125,-0.7374125123023987,0.12333749979734421,-0.6371750235557556
1772408668220392000,3.539391845703125,-0.45925000309944153,0.08387500047683716,-0.30057498812675476
1772408668240452000,3.5594521484375,-0.19511249661445618,-0.21119999885559082,0.2320999950170517
1772408668260512000,3.579511962890625,0.01691249944269657,-0.44013750553131104,0.5995000004768372
1772408668280572200,3.599572265625,0.14685000479221344,-0.45512500405311584,0.637862503528595
1772408668300632000,3.619632080078125,0.17242500185966492,-0.41359999775886536,0.509024977684021
1772408668320692200,3.639692138671875,0.11481250077486038,-0.3922874927520752,0.5153499841690063
1772408668340752100,3.659752197265625,0.025437500327825546,-0.2484624981880188,0.6176499724388123
1772408668360812300,3.679812255859375,0.07644999772310257,0.055137500166893005,0.48551249504089355
1772408668380872200,3.6998720703125,0.273624986410141,-0.19841249287128448,0.18411250412464142
1772408668400932000,3.71993212890625,-0.048124998807907104,-1.1422125101089478,-0.5583875179290771
1772408668420992300,3.7399921875,-0.46254998445510864,-1.8506125211715698,-1.4841749668121338
1772408668441052200,3.76005224609375,-0.5072374939918518,-1.9017624855041504,-1.2284250259399414
1772408668461112600,3.780112548828125,-0.37619999051094055,-0.5233250260353088,-0.5424374938011169
1772408668481172500,3.80017236328125,-0.6329125165939331,0.25437501072883606,0.08401250094175339
1772408668501232000,3.820232177734375,-0.5722749829292297,0.42157500982284546,0.05843750014901161
1772408668521292500,3.84029248046875,0.026399999856948853,0.29589998722076416,-0.050324998795986176
1772408668541352400,3.8603525390625,0.44618749618530273,0.045512501150369644,0.3129499852657318
1772408668561412400,3.880412353515625,0.739062488079071,0.31088748574256897,0.6741625070571899
1772408668581472500,3.900472412109375,0.9308750033378601,0.6208124756813049,0.7774249911308289
1772408668601532400,3.920532470703125,1.033174991607666,0.5281375050544739,0.7231125235557556
1772408668621592300,3.94059228515625,0.9713000059127808,0.15853749215602875,0.5931749939918518
1772408668641652500,3.960652587890625,0.5484874844551086,-0.14079999923706055,0.40136250853538513
1772408668661712400,3.98071240234375,-0.012924999929964542,-0.14079999923706055,-0.03217500075697899
1772408668681772500,4.0007724609375,-0.3623124957084656,-0.040699999779462814,-0.6351125240325928
1772408668701832400,4.02083251953125,-0.5935875177383423,0.10628750175237656,-0.9696499705314636
1772408668721892600,4.040892578125,-0.6542249917984009,0.11797499656677246,-0.9440749883651733
1772408668741952500,4.060952392578125,-0.4816625118255615,-0.03753750026226044,-0.5583875179290771
1772408668762012400,4.081012451171875,-0.15674999356269836,-0.1993750035762787,0.021175000816583633
1772408668782072600,4.101072509765625,0.07548750191926956,-0.4124999940395355,0.5781875252723694
1772408668802132500,4.121132568359375,0.11275000125169754,-0.6052749752998352,0.9063999652862549
1772408668822192400,4.1411923828125,0.12127500027418137,-0.5702124834060669,0.8701000213623047
1772408668842252500,4.16125244140625,0.043449997901916504,-0.22495000064373016,0.693274974822998
1772408668862312400,4.1813125,0.030662499368190765,0.4482499957084656,0.6283749938011169
1772408668882372400,4.201372314453125,0.18411250412464142,0.8359999656677246,0.48454999923706055
1772408668902432500,4.2214326171875,0.004124999977648258,0.26922500133514404,-0.1504250019788742
1772408668922492400,4.241492431640625,-0.1428624987602234,-0.48496249318122864,-1.230625033378601
1772408668942552600,4.261552490234375,0.7199500203132629,-0.41456249356269836,-1.1251624822616577
1772408668962612500,4.281612548828125,1.090649962425232,0.20432500541210175,0.43656250834465027
1772408668982672400,4.30167236328125,0.4152500033378601,0.720912516117096,1.2856249809265137
1772408669002732800,4.32173291015625,-0.3198249936103821,0.9477875232696533,0.6613749861717224
1772408669022792700,4.341792724609375,-0.09501250088214874,0.555774986743927,0.0147124994546175
1772408669042852400,4.361852294921875,0.6176499724388123,-0.11852499842643738,0.13089999556541443
1772408669062912500,4.38191259765625,1.0522874593734741,-0.3059374988079071,0.5218124985694885
1772408669082972700,4.40197265625,1.1406999826431274,-0.06737499684095383,0.7125250101089478
1772408669103032600,4.422032470703125,1.0608124732971191,-0.13227500021457672,0.7433249950408936
1772408669123092700,4.4420927734375,0.7933750152587891,-0.28036248683929443,0.5654000043869019
1772408669143152600,4.462152587890625,0.2778874933719635,-0.2441999912261963,0.1266375035047531
1772408669163212500,4.482212646484375,-0.36134999990463257,-0.07273750007152557,-0.39118748903274536
1772408669183272400,4.5022724609375,-0.8386124968528748,0.13722500205039978,-0.81826251745224
1772408669203332400,4.522332275390625,-1.0899624824523926,0.4823499917984009,-1.1442749500274658
1772408669223392800,4.542392822265625,-1.0590250492095947,0.6538124680519104,-1.205049991607666
1772408669243452400,4.562452392578125,-0.7735750079154968,0.35557499527931213,-0.8758749961853027
1772408669263512300,4.58251220703125,-0.31130000948905945,-0.1120624989271164,-0.3730374872684479
1772408669283572700,4.60257275390625,0.16596250236034393,-0.6276875138282776,0.08923749625682831
1772408669303632400,4.62263232421875,0.46860000491142273,-1.122962474822998,0.3385249972343445
1772408669323692500,4.642692626953125,0.47286251187324524,-1.3403500318527222,0.18837499618530273
1772408669343752400,4.66275244140625,0.19373749196529388,-1.0356500148773193,-0.2516250014305115
1772408669363812400,4.682812255859375,-0.10037499666213989,-0.2718375027179718,-0.5913875102996826
1772408669383872500,4.70287255859375,-0.20157499611377716,0.1691250056028366,-0.4838624894618988
1772408669403932400,4.722932373046875,-0.14932499825954437,-0.48496249318122864,-0.2974124848842621
1772408669423992600,4.74299267578125,-0.6329125165939331,-0.7522624731063843,-0.9088749885559082
1772408669444052500,4.763052490234375,-1.1368499994277954,-0.6041749715805054,-1.3935624361038208
1772408669464112400,4.7831123046875,-0.9333499670028687,0.04977500066161156,-1.0771750211715698
1772408669484172500,4.803172607421875,-0.6542249917984009,1.349424958229065,-0.3102000057697296
1772408669504232400,4.823232421875,-0.5168625116348267,1.9779374599456787,0.3086875081062317
1772408669524292400,4.843292236328125,0.1531749963760376,1.5923874378204346,0.4749250113964081
1772408669544352500,4.8633525390625,0.7156875133514404,0.6197124719619751,0.4311999976634979
1772408669564412400,4.883412353515625,0.784850001335144,0.40562498569488525,0.15427500009536743
1772408669584472300,4.903472412109375,0.6793875098228455,0.6815875172615051,-0.33783748745918274
1772408669604532500,4.923532470703125,0.47286251187324524,0.5366625189781189,-0.5444999933242798
1772408669624592400,4.94359228515625,0.24914999306201935,0.03698749840259552,-0.4358749985694885
1772408669644652300,4.96365234375,-0.004399999976158142,-0.408237487077713,-0.3975124955177307
1772408669664712400,4.98371240234375,-0.2303124964237213,-0.5211250185966492,-0.38472500443458557
1772408669684772400,5.0037724609375,-0.3016749918460846,-0.15895000100135803,-0.4571875035762787
1772408669704832300,5.023832275390625,-0.27719998359680176,0.1073874980211258,-0.5563250184059143
1772408669724892400,5.043892333984375,-0.3144625127315521,-0.07163749635219574,-0.42102500796318054
1772408669744952000,5.0639521484375,-0.28462499380111694,-0.3240875005722046,-0.17270000278949738
1772408669765012200,5.08401220703125,-0.08758749812841415,-0.5094375014305115,0.04455000162124634
1772408669785072000,5.104072021484375,0.11275000125169754,-0.6500999927520752,0.36629998683929443
1772408669805132000,5.124132080078125,0.18947499990463257,-0.7832000255584717,0.7039999961853027
1772408669825192200,5.144192138671875,0.21931250393390656,-0.7533624768257141,0.8658375144004822
1772408669845252000,5.164252197265625,0.17338749766349792,-0.5392749905586243,0.8339374661445618
1772408669865312000,5.18431201171875,0.011549999937415123,-0.0471624992787838,0.534600019454956
1772408669885372200,5.2043720703125,-0.1344749927520752,0.6506500244140625,0.15633749961853027
1772408669905432300,5.224432373046875,-0.22495000064373016,1.099174976348877,-0.1802625060081482
1772408669925492200,5.2444921875,-0.24199999868869781,-0.10353749990463257,-0.44013750553131104
1772408669945552100,5.26455224609375,-0.22714999318122864,-1.945349931716919,-0.468874990940094
1772408669965612000,5.284612060546875,0.06159999966621399,-2.5078625679016113,-0.1578499972820282
1772408669985672200,5.304672119140625,0.28847500681877136,-1.1816749572753906,0.3012624979019165
1772408670005731800,5.32473193359375,0.12870000302791595,0.03698749840259552,0.6421250104904175
1772408670025792000,5.3447919921875,0.30236250162124634,0.43972501158714294,0.5942749977111816
1772408670045852000,5.364851806640625,0.9436625242233276,0.46309998631477356,0.64638751745224
1772408670065912000,5.384912109375,1.1727374792099,0.2149125039577484,0.8467249870300293
1772408670085972000,5.404971923828125,1.0224499702453613,0.35557499527931213,0.7444249987602234
1772408670106031900,5.425031982421875,0.6921749711036682,0.5494499802589417,0.6070625185966492
1772408670126091800,5.445091796875,0.39393749833106995,0.24158750474452972,0.5952374935150146
1772408670146152000,5.46515185546875,0.08071249723434448,-0.11948750168085098,0.4419249892234802
1772408670166211800,5.4852119140625,-0.2525874972343445,-0.23457500338554382,-0.020487500354647636
1772408670186272000,5.50527197265625,-0.4763000011444092,-0.08648750185966492,-0.5871250033378601
1772408670206331600,5.52533154296875,-0.5018749833106995,0.0625625029206276,-0.8225250244140625
1772408670226391600,5.5453916015625,-0.4071374833583832,0.05939999967813492,-0.6286500096321106
1772408670246451700,5.56545166015625,-0.2153249979019165,-0.15152500569820404,-0.1919499933719635
1772408670266511600,5.58551171875,-0.025712499395012856,-0.3389374911785126,0.21078750491142273
1772408670286571500,5.605571533203125,0.10958749800920486,-0.3763374984264374,0.3918749988079071
1772408670306631400,5.62563134765625,0.1531749963760376,-0.4358749985694885,0.41635000705718994
1772408670326691600,5.645691650390625,-0.00013749999925494194,-0.5946875214576721,0.3768875002861023
1772408670346751500,5.66575146484375,-0.10243749618530273,-0.5446375012397766,0.23732499778270721
1772408670366811400,5.685811279296875,-0.005499999970197678,-0.12911249697208405,0.24268749356269836
1772408670386871300,5.705871337890625,0.14368750154972076,0.30016249418258667,0.36726251244544983
1772408670406931200,5.72593115234375,0.2096875011920929,0.4503124952316284,0.3151499927043915
1772408670426991000,5.7459912109375,0.18617500364780426,-0.202674999833107,0.1190750002861023
1772408670447051300,5.76605126953125,0.02969999983906746,-1.0335874557495117,-0.23237499594688416
1772408670467111200,5.786111083984375,-0.256850004196167,-1.2348874807357788,-0.43697500228881836
1772408670487171000,5.806171142578125,-0.8705124855041504,-0.975974977016449,-0.491287499666214
1772408670507231200,5.826231201171875,-1.0271250009536743,0.21917499601840973,-0.4465999901294708
1772408670527291000,5.846290771484375,-0.4646124839782715,1.3675750494003296,-0.45086249709129333
1772408670547351000,5.86635107421875,0.2523125112056732,1.0702999830245972,-0.3315125107765198
1772408670567411000,5.886410888671875,0.7603750228881836,0.14354999363422394,0.10848750174045563
1772408670587470800,5.906470947265625,0.8487874865531921,-0.2985124886035919,0.5824499726295471
1772408670607531000,5.926531005859375,0.7253124713897705,-0.09721250087022781,0.7145875096321106
1772408670627591000,5.9465908203125,0.6070625185966492,0.2404875010251999,0.6495500206947327
1772408670647650600,5.966650634765625,0.37908750772476196,0.3513124883174896,0.6144874691963196
1772408670667710700,5.986710693359375,-0.04922499880194664,0.3917374908924103,0.40246251225471497
1772408670687770600,6.0067705078125,-0.4763000011444092,0.4727250039577484,-0.04386249929666519
1772408670707830500,6.02683056640625,-0.6212249994277954,0.357637494802475,-0.4805625081062317
1772408670727890700,6.046890625,-0.4838624894618988,0.2213750034570694,-0.7363125085830688
1772408670747950300,6.066950439453125,-0.23567499220371246,0.06159999966621399,-0.6106374859809875
1772408670768010500,6.087010498046875,0.006187499966472387,-0.3422375023365021,-0.14932499825954437
1772408670788070400,6.1070703125,0.09776250272989273,-0.7704125046730042,0.34072500467300415
1772408670808130300,6.12713037109375,0.14794999361038208,-0.8662499785423279,0.5207124948501587
1772408670828190500,6.1471904296875,0.2512125074863434,-0.771512508392334,0.5388625264167786
1772408670848250400,6.16725048828125,0.3396250009536743,-0.6564249992370605,0.6187499761581421
1772408670868310300,6.187310302734375,0.3268375098705292,-0.6671500205993652,0.7262749671936035
1772408670888370200,6.2073701171875,0.27252501249313354,-0.6606875061988831,0.7475875020027161
1772408670908430000,6.22743017578125,0.2480500042438507,-0.5020124912261963,0.6080250144004822
1772408670928490000,6.247489990234375,0.33646249771118164,-0.26124998927116394,0.2853125035762787
1772408670948550100,6.267550048828125,0.40136250853538513,-0.7937874794006348,-0.06833750009536743
1772408670968609800,6.28760986328125,0.06476250290870667,-1.7727874517440796,-0.4955500066280365
1772408670988669700,6.307669677734375,-0.6404749751091003,-1.7898374795913696,-0.7022125124931335
1772408671008729600,6.3277294921875,-1.0377124547958374,-0.6851624846458435,-0.47423750162124634
1772408671028789800,6.347789794921875,-0.9898625016212463,0.7837499976158142,-0.3793624937534332
1772408671048849400,6.367849365234375,-0.4006749987602234,1.3420000076293945,-0.6115999817848206
1772408671068909300,6.387909423828125,0.5292375087738037,0.5781875252723694,-0.39118748903274536
1772408671088969500,6.407969482421875,1.0736000537872314,-0.30057498812675476,0.22990000247955322
1772408671109029400,6.428029296875,1.1449625492095947,-0.3485625088214874,0.6421250104904175
1772408671129089300,6.44808935546875,0.9073625206947327,-0.11096250265836716,0.7231125235557556
1772408671149149200,6.468149169921875,0.6858500242233276,-0.07796250283718109,0.5803874731063843
1772408671169209000,6.488208984375,0.46639999747276306,-0.18342499434947968,0.40562498569488525
1772408671189269000,6.50826904296875,0.19580000638961792,-0.15152500569820404,0.09679999947547913
1772408671209329000,6.528328857421875,-0.10779999941587448,0.057337500154972076,-0.3539249897003174
1772408671229388800,6.548388916015625,-0.27390000224113464,0.17448750138282776,-0.772475004196167
1772408671249449000,6.568448974609375,-0.2536875009536743,0.2171124964952469,-0.9950875043869019
1772408671269508900,6.5885087890625,-0.16747500002384186,0.04881250113248825,-0.9248250126838684
1772408671289568500,6.608568603515625,-0.09927500039339066,-0.29205000400543213,-0.680899977684021
1772408671309628700,6.628628662109375,-0.07369999587535858,-0.4221250116825104,-0.4188250005245209
1772408671329688600,6.6486884765625,-0.19731250405311584,-0.30703750252723694,-0.21752500534057617
1772408671349748500,6.66874853515625,-0.3016749918460846,-0.07590000331401825,-0.15468749403953552
1772408671369808400,6.688808349609375,-0.3133625090122223,0.09886249899864197,-0.16431249678134918
1772408671389868300,6.708868408203125,-0.30799999833106995,0.2862749993801117,-0.15248750150203705
1772408671409928200,6.72892822265625,-0.24626250565052032,0.46213749051094055,-0.17063750326633453
1772408671429988000,6.748988037109375,-0.16101250052452087,0.5846499800682068,-0.12484999746084213
1772408671450048000,6.769048095703125,0.07975000143051147,0.010449999943375587,-0.2857249975204468
1772408671470108000,6.78910791015625,0.341825008392334,-0.8141375184059143,-0.7383750081062317
1772408671490167800,6.809167724609375,0.2523125112056732,-1.397825002670288,-0.7906249761581421
1772408671510227700,6.829227783203125,-0.29205000400543213,-1.813349962234497,-0.2899875044822693
1772408671530287600,6.84928759765625,-0.9248250126838684,-1.0058125257492065,0.021175000816583633
1772408671550347500,6.869347412109375,-1.3733500242233276,0.7358999848365784,-0.19731250405311584
1772408671570407200,6.8894072265625,-0.9620875120162964,1.9992499351501465,-0.2824249863624573
1772408671590467300,6.90946728515625,-0.26221248507499695,2.2016499042510986,0.04235000163316727
1772408671610527200,6.92952734375,0.11481250077486038,2.0398125648498535,0.3726249933242798
1772408671630587100,6.949587158203125,0.3609375059604645,1.4165250062942505,0.6580749750137329
1772408671650646800,6.969646728515625,0.5729625225067139,0.29589998722076416,1.0363374948501587
1772408671670706700,6.989706787109375,0.6198499798774719,-0.5350124835968018,1.1705374717712402
1772408671690766300,7.009766357421875,0.5164499878883362,-0.6330500245094299,0.7369999885559082
1772408671710826500,7.029826416015625,0.21078750491142273,-0.38692501187324524,0.038087498396635056
1772408671730886400,7.049886474609375,-0.17270000278949738,-0.07590000331401825,-0.5115000009536743
1772408671750946300,7.0699462890625,-0.3665750026702881,0.1989624947309494,-0.8662499785423279
1772408671771006200,7.090006103515625,-0.3741374909877777,0.37152498960494995,-0.8896250128746033
1772408671791066000,7.110066162109375,-0.2835249900817871,0.4375250041484833,-0.5317124724388123
1772408671811126000,7.1301259765625,-0.10243749618530273,0.2938374876976013,-0.029975000768899918
1772408671831186000,7.15018603515625,0.015812499448657036,0.021037500351667404,0.3236750066280365
1772408671851245800,7.170245849609375,-0.04386249929666519,-0.28888750076293945,0.4599374830722809
1772408671871305700,7.1903056640625,-0.23457500338554382,-0.27293750643730164,0.2523125112056732
1772408671891365600,7.21036572265625,-0.3698749840259552,0.04661250114440918,-0.09184999763965607
1772408671911425500,7.230425537109375,-0.4923875033855438,0.27994999289512634,-0.20157499611377716
1772408671931485400,7.2504853515625,-0.6914874911308289,0.4940375089645386,-0.08002500236034393
1772408671951545300,7.27054541015625,-0.4838624894618988,0.6868125200271606,0.026399999856948853
1772408671971605200,7.290605224609375,-0.30057498812675476,0.47066250443458557,-0.24199999868869781
1772408671991665200,7.3106650390625,-0.468874990940094,-0.08332499861717224,-0.7501999735832214
1772408672011725000,7.33072509765625,-0.5785999894142151,0.23416249454021454,-0.8853625059127808
1772408672031784700,7.35078466796875,-0.8853625059127808,0.8402624726295471,-0.9418749809265137
1772408672051844900,7.370844970703125,-1.056962490081787,1.575337529182434,-0.6371750235557556
1772408672071904800,7.39090478515625,-0.9578250050544739,2.0398125648498535,-0.38472500443458557
1772408672091964400,7.41096435546875,-0.41772499680519104,2.024825096130371,-0.31556248664855957
1772408672112024600,7.431024658203125,-0.016224998980760574,1.583862543106079,0.11591249704360962
1772408672132084500,7.45108447265625,0.14685000479221344,1.3440624475479126,0.8179875016212463
1772408672152144100,7.47114404296875,0.23842500150203705,1.366474986076355,1.3495625257492065
1772408672172204000,7.4912041015625,0.23952500522136688,1.4698749780654907,1.4954500198364258
1772408672192264200,7.51126416015625,-0.025712499395012856,1.3866875171661377,1.2802624702453613
1772408672212323800,7.53132373046875,-0.5680124759674072,1.283424973487854,0.8094624876976013
1772408672232383700,7.5513837890625,-1.0729124546051025,1.4389375448226929,0.3544749915599823
1772408672252443600,7.571443603515625,-1.186900019645691,1.6317124366760254,-0.05128749832510948
1772408672272503600,7.591503662109375,-1.0729124546051025,1.6935875415802002,-0.1578499972820282
1772408672292563500,7.6115634765625,-0.8736749887466431,1.4836249351501465,0.07864999771118164
1772408672312623000,7.631623046875,-0.6041749715805054,1.0278124809265137,0.29163751006126404
1772408672332683300,7.651683349609375,-0.39118748903274536,0.739062488079071,0.34168750047683716
1772408672352743000,7.671742919921875,-0.2909500002861023,0.517549991607666,0.28847500681877136
1772408672372802800,7.691802734375,-0.2377374917268753,0.2820124924182892,0.2703250050544739
1772408672392862700,7.71186279296875,-0.20047499239444733,0.10628750175237656,0.3544749915599823
1772408672412922600,7.731922607421875,-0.15991249680519104,0.12966249883174896,0.4141499996185303
1772408672432982500,7.751982421875,-0.05664999783039093,0.44714999198913574,0.46213749051094055
1772408672453042400,7.77204248046875,0.06902500241994858,0.7646374702453613,0.4482499957084656
1772408672473102300,7.792102294921875,-0.04592499881982803,0.5110874772071838,0.26510000228881836
1772408672493162000,7.812161865234375,-0.18878750503063202,0.1722874939441681,0.006187499966472387
1772408672513222000,7.832221923828125,0.006187499966472387,0.3161124885082245,-0.22921249270439148
1772408672533281800,7.85228173828125,0.2213750034570694,0.07961250096559525,-0.233474999666214
1772408672553341700,7.872341796875,-0.20473749935626984,-0.5318499803543091,-0.14506250619888306
1772408672573401600,7.892401611328125,-0.8853625059127808,-0.901449978351593,-0.6692125201225281
1772408672593461200,7.912461181640625,-1.1283249855041504,-0.8449375033378601,-1.363724946975708
1772408672613521400,7.932521484375,-0.5807999968528748,-0.29961249232292175,-1.0419750213623047
1772408672633581000,7.9525810546875,0.2788499891757965,0.21821250021457672,0.10848750174045563
1772408672653641000,7.972640869140625,0.7347999811172485,0.2096875011920929,0.8168874979019165
1772408672673700600,7.99270068359375,0.7284749746322632,-0.430649995803833,0.7774249911308289
1772408672693760800,8.0127607421875,0.5867124795913696,-0.5796999931335449,0.14781250059604645
1772408672713820700,8.032820556640624,0.3577750027179718,-0.3315125107765198,-0.4433000087738037
1772408672733880300,8.05288037109375,0.13942499458789825,-0.040699999779462814,-0.550962507724762
1772408672753940200,8.072940185546875,-0.06091250106692314,0.057337500154972076,-0.42625001072883606
1772408672774000000,8.093000244140624,-0.2761000096797943,-0.022549999877810478,-0.35282498598098755
1772408672794060000,8.11306005859375,-0.3389374911785126,-0.05142499879002571,-0.2750000059604645
1772408672814119700,8.13311962890625,-0.17916250228881836,-0.07163749635219574,-0.031075000762939453
1772408672834179800,8.153179931640626,-0.06517499685287476,-0.20899999141693115,0.26083749532699585
1772408672854239500,8.173239501953125,0.032862499356269836,-0.05664999783039093,0.3993000090122223
1772408672874299400,8.19329931640625,0.09679999947547913,0.005087499972432852,0.48028749227523804
1772408672894359300,8.213359375,0.10848750174045563,-0.14932499825954437,0.4769875109195709
1772408672914419200,8.233419189453125,-0.03423750028014183,-0.21972499787807465,0.38225001096725464
1772408672934478800,8.253478759765626,-0.26647499203681946,-0.12594999372959137,0.1648624986410141
1772408672954538800,8.273538818359375,-0.2601499855518341,-0.33041250705718994,-0.45512500405311584
1772408672974598700,8.2935986328125,-0.19304999709129333,-0.8076750040054321,-1.262524962425232
1772408672994658600,8.313658447265626,-0.18878750503063202,-1.0932625532150269,-1.5533374547958374
1772408673014718200,8.33371826171875,-0.3207874894142151,-0.7203624844551086,-1.1815375089645386
1772408673034778000,8.353778076171874,-0.26647499203681946,0.29589998722076416,-0.5700749754905701
1772408673054838300,8.37383837890625,-0.17173749208450317,1.0107624530792236,-0.23237499594688416
1772408673074898000,8.39389794921875,-0.005499999970197678,1.2760000228881836,-0.031075000762939453
1772408673094957600,8.41395751953125,0.4067249894142151,1.2504249811172485,0.37482500076293945
1772408673115017500,8.434017578125,0.5047624707221985,0.9851874709129333,0.988349974155426
1772408673135077600,8.45407763671875,0.3620375096797943,0.9659374952316284,1.1045374870300293
1772408673155137300,8.47413720703125,0.22357499599456787,0.8519499897956848,0.45045000314712524
1772408673175197200,8.494197265625,0.10422500222921371,0.5590749979019165,-0.34540000557899475
1772408673195257000,8.514257080078124,-0.09075000137090683,0.1190750002861023,-0.726687490940094
1772408673215316700,8.534316650390625,-0.2952125072479248,-0.5285499691963196,-0.7863624691963196
1772408673235376600,8.554376708984375,-0.5094375014305115,-0.8236249685287476,-0.80121248960495
1772408673255436500,8.5744365234375,-0.6382749676704407,-0.4465999901294708,-0.8130375146865845
1772408673275496400,8.594496337890625,-0.551925003528595,-0.22398750483989716,-0.6115999817848206
1772408673295556000,8.61455615234375,-0.32298749685287476,-0.34113749861717224,-0.17173749208450317
1772408673315616000,8.634615966796876,-0.06201250106096268,-0.3465000092983246,0.27252501249313354
1772408673335676000,8.654676025390625,0.08607500046491623,-0.36024999618530273,0.49197500944137573
1772408673355735800,8.67473583984375,0.010449999943375587,-0.33041250705718994,0.3609375059604645
1772408673375795500,8.69479541015625,-0.3357749879360199,-0.20157499611377716,0.15853749215602875
1772408673395855400,8.71485546875,-0.7374125123023987,-0.03863750025629997,0.07864999771118164
1772408673415915300,8.734915283203126,-0.8566250205039978,0.25011250376701355,-0.05884999781847
1772408673435975200,8.75497509765625,-0.6456999778747559,0.8029999732971191,-0.16747500002384186
1772408673456035000,8.77503515625,-0.33467498421669006,1.034137487411499,0.004124999977648258
1772408673476095000,8.795094970703126,-0.3932499885559082,0.39393749833106995,0.0849749967455864
1772408673496154600,8.815154541015625,-0.42528748512268066,-0.25808748602867126,-0.3581874966621399
1772408673516214300,8.83521435546875,-0.1504250019788742,0.05087500065565109,-0.5945500135421753
1772408673536274200,8.855274169921875,-0.03739999979734421,-0.005499999970197678,-0.4113999903202057
1772408673556334000,8.875333984375,-0.4848249852657318,-0.7959874868392944,-0.4273499846458435
1772408673576394000,8.89539404296875,-0.5956500172615051,-0.7394750118255615,-0.49445000290870667
1772408673596453600,8.91545361328125,0.09350000321865082,0.3950375020503998,-0.20253749191761017
1772408673616513500,8.935513427734374,0.5846499800682068,0.8626750111579895,0.3151499927043915
1772408673636573400,8.955573486328126,0.5698000192642212,0.4716250002384186,0.7039999961853027
1772408673656633300,8.97563330078125,0.5047624707221985,-0.17063750326633453,0.8839874863624573
1772408673676693000,8.99569287109375,0.5058624744415283,-0.2782999873161316,0.7028999924659729
1772408673696753000,9.0157529296875,0.3546124994754791,-0.25905001163482666,0.2330625057220459
1772408673716812800,9.035812744140625,-0.16843749582767487,-0.734250009059906,-0.38266250491142273
1772408673736872400,9.05587255859375,-0.8054749965667725,-1.1752125024795532,-0.9151999950408936
1772408673756932400,9.075932373046875,-1.3668874502182007,-1.3477749824523926,-1.1847000122070312
1772408673776992300,9.0959921875,-1.4680874347686768,-1.2988250255584717,-1.2113749980926514
1772408673797052200,9.11605224609375,-1.271049976348877,-0.9131374955177307,-1.0612249374389648
1772408673817111800,9.13611181640625,-0.9046124815940857,-0.7576249837875366,-0.7841625213623047
1772408673837171700,9.156171630859374,-0.5796999931335449,-0.7416750192642212,-0.49761250615119934
1772408673857231600,9.176231689453125,-0.3400374948978424,-0.7309499979019165,-0.23457500338554382
1772408673877291300,9.196291259765625,-0.2718375027179718,-0.6660500168800354,0.03918749839067459
1772408673897351000,9.216350830078126,-0.22288750112056732,-0.5029749870300293,0.08607500046491623
1772408673917410800,9.236410888671875,-0.24832500517368317,-0.37950000166893005,-0.10986249893903732
1772408673937470700,9.256470703125,-0.4241875112056732,-0.25808748602867126,-0.19511249661445618
1772408673957530600,9.276530517578125,-0.3133625090122223,0.3363249897956848,-0.1652749925851822
1772408673977590300,9.29659033203125,0.3513124883174896,1.4975124597549438,0.026399999856948853
1772408673997650200,9.316650146484376,0.7699999809265137,2.38700008392334,0.5153499841690063
1772408674017710000,9.3367099609375,0.941462516784668,2.5467751026153564,1.0650750398635864
1772408674037769700,9.356769775390624,0.637862503528595,2.073775053024292,1.0969749689102173
1772408674057829600,9.37682958984375,0.0008249999955296516,0.5898749828338623,0.2714250087738037
1772408674077889500,9.3968896484375,-0.522225022315979,-0.5446375012397766,-0.48592498898506165
1772408674097949200,9.41694921875,-0.80121248960495,-1.046375036239624,-0.6115999817848206
1772408674118009000,9.437009033203125,-0.4338124990463257,-0.771512508392334,-0.15468749403953552
1772408674138068700,9.45706884765625,0.10202500224113464,-0.7246249914169312,0.4493499994277954
1772408674158128400,9.47712841796875,0.46956250071525574,-0.5893250107765198,1.034137487411499
1772408674178188300,9.497188232421875,0.43972501158714294,-0.13337500393390656,1.3217874765396118
1772408674198248200,9.517248291015624,0.22357499599456787,0.26496249437332153,1.1119624376296997
1772408674218308000,9.53730810546875,0.2938374876976013,0.26606249809265137,0.693274974822998
1772408674238367700,9.55736767578125,0.10848750174045563,-0.3900874853134155,0.17448750138282776
1772408674258427400,9.577427490234374,-0.23663750290870667,-0.6276875138282776,-0.3698749840259552
1772408674278487300,9.5974873046875,-0.3218874931335449,-0.6340125203132629,-0.8076750040054321
1772408674298547200,9.617547119140625,-0.34636250138282776,-0.9707499742507935,-1.122962474822998
1772408674318606800,9.63760693359375,-0.5296499729156494,-0.6532624959945679,-1.1687500476837158
1772408674338666800,9.657666748046875,-0.5339124798774719,-0.17063750326633453,-0.9748749732971191
1772408674358726700,9.6777265625,-0.4092000126838684,-0.2868250012397766,-0.6712750196456909
1772408674378786300,9.697786376953125,-0.3665750026702881,-0.36024999618530273,-0.39544999599456787
1772408674398846200,9.71784619140625,-0.30483749508857727,-0.40287500619888306,-0.20583750307559967
1772408674418905900,9.73790576171875,-0.33783748745918274,-0.6330500245094299,-0.09501250088214874
1772408674438965500,9.757965576171875,-0.44756248593330383,-0.5285499691963196,-0.20157499611377716
1772408674459025400,9.778025390625,-0.44756248593330383,-0.19841249287128448,-0.3016749918460846
1772408674479085300,9.798085205078126,-0.3198249936103821,0.3151499927043915,-0.16321249306201935
1772408674499145000,9.81814501953125,-0.33041250705718994,0.7922750115394592,-0.20363749563694
1772408674519204900,9.838204833984374,-0.2110625058412552,1.042662501335144,0.02213750034570694
1772408674539264500,9.858264404296875,-0.21326249837875366,1.007462501525879,0.6241124868392944
1772408674559324400,9.878324462890625,-0.5615500211715698,0.9190499782562256,1.0852874517440796
1772408674579384300,9.89838427734375,-0.9248250126838684,0.7742624878883362,1.1844249963760376
1772408674599444000,9.91844384765625,-0.9376124739646912,0.015812499448657036,0.7859500050544739
1772408674619503900,9.93850390625,-0.28036248683929443,0.053075000643730164,0.40892499685287476
1772408674639563800,9.958563720703125,0.5218124985694885,0.9818875193595886,0.43230000138282776
1772408674659623700,9.978623779296875,0.6901124715805054,1.2237499952316284,1.0576499700546265
1772408674679683300,9.998683349609376,0.5612750053405762,0.2287999987602234,1.624287486076355
1772408674699743200,10.0187431640625,0.5942749977111816,-0.4571875035762787,1.6913875341415405
1772408674719803000,10.038802978515625,0.693274974822998,-0.3667125105857849,1.0139249563217163
1772408674739862800,10.05886279296875,0.6506500244140625,0.18837499618530273,0.21285000443458557
1772408674759922700,10.078922607421875,0.4248749911785126,0.8445249795913696,-0.1919499933719635
