time,seconds_elapsed,z,y,x
1772594369413050000,0.496050048828125,5.042787551879883,-6.548740386962891,3.849576950073242
1772594369433314000,0.51631396484375,5.0248308181762695,-6.61428165435791,3.856161117553711
1772594369453578000,0.536577880859375,4.972158432006836,-6.677428722381592,3.875314712524414
1772594369473841000,0.5568408203125,4.922778129577637,-7.4223246574401855,3.907935619354248
1772594369494105000,0.57710498046875,4.875791549682617,-7.427412033081055,3.9396588802337646
1772594369514369000,0.597369140625,4.829703330993652,-7.430405139923096,3.9701850414276123
1772594369534632000,0.6176318359375,4.0207624435424805,-7.461529731750488,4.009389877319336
1772594369554896000,0.637895751953125,3.9815573692321777,-7.529465198516846,4.061763286590576
1772594369575160000,0.65816015625,3.962702989578247,-7.581539154052734,4.087800025939941
1772594369595423000,0.678423095703125,3.9426517486572266,-7.63301420211792,4.103063106536865
1772594369615687000,0.69868701171875,3.8989574909210205,-7.677606105804443,4.1395745277404785
1772594369635951000,0.718951171875,3.8720226287841797,-7.717410087585449,4.205115795135498
1772594369656214000,0.739214111328125,3.832219123840332,-7.761403560638428,4.970362663269043
1772594369676478000,0.75947802734375,3.769371271133423,-7.808988094329834,4.982333660125732
1772594369696742000,0.779741943359375,3.7597944736480713,-7.876923561096191,4.9619832038879395
1772594369717006000,0.800006103515625,3.786729335784912,-7.864952564239502,4.892550945281982
1772594369737269000,0.82026904296875,3.073556423187256,-7.061099529266357,4.086902141571045
1772594369757533000,0.840532958984375,0.5530605912208557,-7.0446391105651855,4.124012470245361
1772594369777797000,0.860797119140625,-0.5273229479789734,-7.097311496734619,5.143044471740723
1772594369798060000,0.88106005859375,0.6227917075157166,-8.275259017944336,5.208286285400391
1772594369818324000,0.901323974609375,0.6796540021896362,-9.208398818969727,5.241805553436279
1772594369838588000,0.921587890625,0.6368576288223267,-9.242815971374512,5.251681327819824
1772594369858851000,0.94185107421875,0.5802946090698242,-9.255684852600098,5.192724227905273
1772594369879115000,0.962114990234375,0.5545569658279419,-9.270947456359863,5.116708278656006
1772594369899379000,0.98237890625,0.5422866940498352,-9.310153007507324,4.3628339767456055
1772594369919642000,1.00264208984375,0.5252280235290527,-9.318233489990234,4.3640313148498535
1772594369939906000,1.022906005859375,0.4917091727256775,-9.31613826751709,4.3505635261535645
1772594369960170000,1.043169921875,0.4743511974811554,-9.314342498779297,4.34607458114624
1772594369980433000,1.063432861328125,0.48602294921875,-9.28381633758545,4.301183223724365
1772594370000697000,1.083697021484375,0.43754035234451294,-9.23563289642334,3.5143887996673584
1772594370020961000,1.1039609375,0.4288613796234131,-9.216778755187988,3.5078048706054688
1772594370041224000,1.124223876953125,0.4216787815093994,-9.25299072265625,3.4823663234710693
1772594370061488000,1.144488037109375,0.4076128304004669,-9.266159057617188,3.511695384979248
1772594370081752000,1.164751953125,0.43335050344467163,-9.260173797607422,3.4958338737487793
1772594370102015000,1.185014892578125,0.44681790471076965,-9.29458999633789,3.4602200984954834
1772594370122279000,1.20527880859375,0.4593874514102936,-9.355642318725586,3.4222121238708496
1772594370142543000,1.225543212890625,0.4827309250831604,-10.096348762512207,3.420715570449829
1772594370162806000,1.245805908203125,0.5392939448356628,-10.108019828796387,3.404554843902588
1772594370183070000,1.266070068359375,0.5746083855628967,-10.113107681274414,3.3716344833374023
1772594370203334000,1.286333984375,0.6084265112876892,-10.09245777130127,3.3500866889953613
1772594370223597000,1.30659716796875,0.6386532783508301,-10.081085205078125,3.2887353897094727
1772594370243861000,1.326861083984375,0.6437410116195679,-10.088268280029297,3.237858533859253
1772594370264125000,1.347125,0.6491279602050781,-10.075698852539062,3.2193033695220947
1772594370284388000,1.36738818359375,0.6575076580047607,-10.099940299987793,3.202244758605957
1772594370304652000,1.387652099609375,0.6554127335548401,-10.082581520080566,3.1926679611206055
1772594370324916000,1.407916015625,0.6437410116195679,-10.065223693847656,3.1648354530334473
1772594370345179000,1.428178955078125,0.645237386226654,-10.031405448913574,3.128922462463379
1772594370365443000,1.448443115234375,0.6584054827690125,-10.005967140197754,3.089118719100952
1772594370385707000,1.46870703125,0.6763619780540466,-9.994894027709961,3.0475194454193115
1772594370405970000,1.488969970703125,0.685639500617981,-9.978434562683105,3.033752918243408
1772594370426234000,1.509234130859375,0.6976104974746704,-9.979331970214844,3.024475336074829
1772594370446498000,1.529498046875,0.7143699526786804,-9.968857765197754,3.0014309883117676
1772594370466761000,1.549760986328125,0.7326257228851318,-9.964667320251465,2.9777884483337402
1772594370487025000,1.57002490234375,0.7460930943489075,-9.9679594039917,2.9478609561920166
1772594370507289000,1.5902890625,0.7610568404197693,-9.946112632751465,2.9140427112579346
1772594370527552000,1.610552001953125,0.7876923680305481,-9.922170639038086,2.8673558235168457
1772594370547816000,1.63081591796875,0.7978677153587341,-9.885957717895508,2.826355218887329
1772594370568080000,1.651079833984375,0.8050503134727478,-9.860219955444336,2.781463861465454
1772594370588343000,1.671343017578125,0.8077437877655029,-9.834781646728516,2.7539305686950684
1772594370608607000,1.69160693359375,0.8191162347793579,-9.817423820495605,2.7240030765533447
1772594370628871000,1.711870849609375,0.8292916417121887,-9.78719711303711,2.7078421115875244
1772594370649134000,1.732134033203125,0.8307880163192749,-9.763854026794434,2.6782138347625732
1772594370669398000,1.75239794921875,0.8394669890403748,-9.743802070617676,2.6635494232177734
1772594370689662000,1.772661865234375,0.8529343605041504,-9.72734260559082,2.630629062652588
1772594370709925000,1.792925048828125,0.861314058303833,-9.715371131896973,2.625840663909912
1772594370730189000,1.81318896484375,0.8783727288246155,-9.717765808105469,2.660856008529663
1772594370750453000,1.833452880859375,0.9166799783706665,-9.705794334411621,2.7048494815826416
1772594370770716000,1.8537158203125,0.9534908533096313,-9.696816444396973,2.750638484954834
1772594370790980000,1.87397998046875,0.9980828166007996,-9.701904296875,2.818274736404419
1772594370811244000,1.894244140625,1.059733510017395,-9.69083023071289,2.8769326210021973
1772594370831507000,1.9145068359375,1.0992377996444702,-9.677363395690918,2.927210807800293
1772594370851771000,1.93477099609375,1.1405378580093384,-9.643245697021484,2.9768905639648438
1772594370872035000,1.95503515625,1.1860276460647583,-9.608829498291016,3.002927541732788
1772594370892298000,1.975298095703125,1.1926116943359375,-9.581595420837402,3.0148985385894775
1772594370912562000,1.99556201171875,1.193210244178772,-9.552565574645996,3.006518840789795
1772594370932826000,2.015826171875,1.1982979774475098,-9.563039779663086,3.0131027698516846
1772594370953089000,2.036089111328125,1.2003928422927856,-9.576507568359375,3.0107085704803467
1772594370973353000,2.05635302734375,1.1776479482650757,-9.57860279083252,3.006518840789795
1772594370993617000,2.076616943359375,1.1815385818481445,-9.58788013458252,3.0166940689086914
1772594371013881000,2.096881103515625,1.1824363470077515,-9.593865394592285,3.015796422958374
1772594371034144000,2.11714404296875,1.1890203952789307,-9.600449562072754,2.984971046447754
1772594371054408000,2.137407958984375,1.1991957426071167,-9.627983093261719,2.958036184310913
1772594371074672000,2.157672119140625,1.2054805755615234,-9.625588417053223,2.940678119659424
1772594371094935000,2.17793505859375,1.2120646238327026,-9.626486778259277,2.951751470565796
1772594371115199000,2.198198974609375,1.204882025718689,-9.626486778259277,2.9206268787384033
1772594371135463000,2.218462890625,1.206079125404358,-9.624990463256836,2.9104514122009277
1772594371155726000,2.23872607421875,1.170465350151062,-9.62379264831543,2.8924949169158936
1772594371175990000,2.258989990234375,1.1572972536087036,-9.626187324523926,2.890399932861328
1772594371196271000,2.27927099609375,1.138742208480835,-9.624391555786133,2.8906993865966797
1772594371216535000,2.29953515625,1.095047950744629,-9.616909980773926,2.873042106628418
1772594371236799000,2.319799072265625,1.0504560470581055,-9.619303703308105,2.8604724407196045
1772594371257062000,2.340061767578125,1.0190321207046509,-9.610325813293457,2.8505964279174805
1772594371277326000,2.360326171875,0.9507973790168762,-9.608230590820312,2.8482022285461426
1772594371297590000,2.380590087890625,0.23822307586669922,-9.618406295776367,2.843413829803467
1772594371317853000,2.40085302734375,0.2064998894929886,-9.617507934570312,2.83443546295166
1772594371338117000,2.4211171875,0.15442600846290588,-9.625588417053223,2.8622682094573975
1772594371358381000,2.441381103515625,0.07511807978153229,-9.625588417053223,2.878129720687866
1772594371378644000,2.46164404296875,-0.6500257849693298,-9.633968353271484,2.8886044025421143
1772594371398908000,2.481907958984375,-0.639850378036499,-9.638457298278809,2.9257144927978516
1772594371419172000,2.502172119140625,-0.6230909824371338,-9.626786231994629,2.967313766479492
1772594371439435000,2.52243505859375,-0.6431424021720886,-9.625887870788574,3.001730442047119
1772594371459699000,2.542698974609375,-0.6772598028182983,-9.62947940826416,3.03794264793396
1772594371479963000,2.562962890625,-0.6910264492034912,-9.609128952026367,3.071760892868042
1772594371500226000,2.58322607421875,-0.6862380504608154,-9.57860279083252,3.079841136932373
1772594371520490000,2.603489990234375,-0.6590040326118469,-9.545681953430176,3.0666730403900146
1772594371540754000,2.62375390625,-0.6108207106590271,-9.479243278503418,3.0457239151000977
1772594371561017000,2.64401708984375,-0.5781996846199036,-8.777742385864258,3.001131772994995
1772594371581281000,2.664281005859375,-0.56233811378479,-8.774150848388672,2.949357271194458
1772594371601545000,2.684544921875,-0.5731120109558105,-8.77504825592041,2.88531231880188
1772594371621808000,2.70480810546875,-0.5901707410812378,-8.773252487182617,2.1523873805999756
1772594371642072000,2.725072021484375,-0.6374561786651611,-8.801982879638672,2.1431097984313965
1772594371662336000,2.7453359375,-0.7023988962173462,-8.830713272094727,2.132335901260376
1772594371682599000,2.765598876953125,-0.7511807680130005,-8.875604629516602,2.123058319091797
1772594371702863000,2.785863037109375,-0.7903858423233032,-8.941445350646973,2.139817714691162
1772594371723127000,2.806126953125,-0.8409633636474609,-9.775525093078613,2.181716203689575
1772594371743390000,2.826389892578125,-0.8759785294532776,-9.793781280517578,2.257133722305298
1772594371763654000,2.84665380859375,-0.8930372595787048,-9.838972091674805,2.9987375736236572
1772594371783918000,2.86691796875,-0.8906430602073669,-9.889249801635742,3.0050225257873535
1772594371804182000,2.88718212890625,-0.8514379858970642,-9.925163269042969,3.0160956382751465
1772594371824445000,2.90744482421875,-0.8152256608009338,-9.96017837524414,3.0301616191864014
1772594371844709000,2.927709228515625,-0.8011597394943237,-9.960477828979492,3.028066635131836
1772594371864973000,2.94797314453125,-0.7757213711738586,-9.954193115234375,3.0301616191864014
1772594371885236000,2.968236083984375,-0.7272387742996216,-9.925163269042969,3.0172927379608154
1772594371905500000,2.9885,-0.6775590777397156,-9.882665634155273,2.970306396484375
1772594371925764000,3.00876416015625,-0.6401496529579163,-9.823708534240723,2.918531894683838
1772594371946027000,3.029027099609375,-0.5946598649024963,-9.776423454284668,2.861968755722046
1772594371966291000,3.049291015625,-0.5383961200714111,-9.7605619430542,2.825756549835205
1772594371986555000,3.069554931640625,-0.4875193238258362,-9.739612579345703,2.78625226020813
1772594372006818000,3.089818115234375,-0.4091092050075531,-9.730335235595703,2.7548282146453857
1772594372027082000,3.11008203125,-0.36002808809280396,-9.750386238098145,2.7222073078155518
1772594372047346000,3.130345947265625,-0.31543606519699097,-9.73542308807373,2.689286947250366
1772594372067609000,3.150609130859375,-0.2783259451389313,-9.726743698120117,2.6354174613952637
1772594372087873000,3.170873046875,-0.24750059843063354,-9.725247383117676,2.5830442905426025
1772594372108137000,3.191136962890625,-0.2223614901304245,-9.677961349487305,2.527379274368286
1772594372128400000,3.21139990234375,-0.20380641520023346,-9.66539192199707,2.484283447265625
1772594372148664000,3.2316640625,-0.18076223134994507,-9.65491771697998,2.452261209487915
1772594372168928000,3.251927978515625,-0.16101007163524628,-9.642647743225098,2.450465440750122
1772594372189191000,3.27219091796875,-0.14095862209796906,-9.67347240447998,2.4459762573242188
1772594372209455000,3.292455078125,-0.13347674906253815,-9.700706481933594,2.4839842319488525
1772594372229719000,3.312718994140625,-0.13257892429828644,-9.720159530639648,2.501342296600342
1772594372249982000,3.33298193359375,-0.127191960811615,-9.73542308807373,2.532167673110962
1772594372270246000,3.353245849609375,-0.11851298063993454,-9.75637149810791,2.5564088821411133
1772594372290510000,3.373510009765625,-0.11522095650434494,-9.749189376831055,2.532167673110962
1772594372310773000,3.39377294921875,-0.0966658964753151,-9.737217903137207,2.535459518432617
1772594372331037000,3.414036865234375,-0.08708908408880234,-9.720458984375,2.5160067081451416
1772594372351301000,3.434301025390625,-0.0769137293100357,-9.714174270629883,2.495955228805542
1772594372371564000,3.45456396484375,-0.07302315533161163,-9.707290649414062,2.495955228805542
1772594372391828000,3.474827880859375,-0.05776011571288109,-9.699509620666504,2.500145196914673
1772594372412092000,3.495091796875,-0.02124853990972042,-9.717466354370117,2.4956560134887695
1772594372452619000,3.535618896484375,-0.01975216343998909,-9.705794334411621,2.4938602447509766
1772594372472883000,3.555883056640625,-0.012569558806717396,-9.702502250671387,2.484283447265625
1772594372493146000,3.57614599609375,-0.012868833728134632,-9.691429138183594,2.470816135406494
1772594372513410000,3.59641015625,-0.012569558806717396,-9.679458618164062,2.466326951980591
1772594372533674000,3.616674072265625,0,-9.676166534423828,2.4519617557525635
1772594372553937000,3.63693701171875,0.03651157766580582,-9.680655479431152,2.454655408859253
1772594372574201000,3.657201171875,0.05357026308774948,-9.668384552001953,2.4543559551239014
1772594372594465000,3.677465087890625,0.08319851011037827,-9.665093421936035,2.4687211513519287
1772594372614728000,3.69772802734375,0.1116296574473381,-9.658209800720215,2.484882116317749
1772594372634992000,3.7179921875,0.12868833541870117,-9.65222454071045,2.5154082775115967
1772594372675519000,3.75851904296875,0.15741875767707825,-9.635464668273926,2.550124168395996
1772594372695783000,3.778782958984375,0.17387889325618744,-9.636661529541016,2.578854560852051
1772594372716047000,3.799047119140625,0.19063830375671387,-9.627983093261719,2.585139274597168
1772594372736310000,3.81931005859375,0.20769700407981873,-9.637859344482422,2.6051907539367676
1772594372756574000,3.839573974609375,0.2256535142660141,-9.629179954528809,2.6132712364196777
1772594372776838000,3.859837890625,0.2298433631658554,-9.631574630737305,2.626439332962036
1772594372797101000,3.88010107421875,0.23912090063095093,-9.62828254699707,2.633023262023926
1772594372817365000,3.900364990234375,0.2561795711517334,-9.630077362060547,2.642300844192505
1772594372857892000,3.94089208984375,0.27982231974601746,-9.630077362060547,2.666242837905884
1772594372878156000,3.961156005859375,0.2720411717891693,-9.624691009521484,2.6791117191314697
1772594372898420000,3.981419921875,0.2588730454444885,-9.626486778259277,2.671929121017456
1772594372918683000,4.001682861328125,0.2654571235179901,-9.619004249572754,2.675520420074463
1772594372938947000,4.021947021484375,0.2777273952960968,-9.621099472045898,2.668936252593994
1772594372959211000,4.0422109375,0.27802667021751404,-9.626187324523926,2.647388458251953
1772594372979474000,4.062473876953125,0.2801215946674347,-9.627983093261719,2.6255414485931396
1772594372999738000,4.082738037109375,0.27323827147483826,-9.63067626953125,2.6114754676818848
1772594373020002000,4.103001953125,0.28880056738853455,-9.634865760803223,2.595613956451416
1772594373040265000,4.123264892578125,0.29059621691703796,-9.636661529541016,2.5872342586517334
1772594373060529000,4.14352880859375,0.30226796865463257,-9.63995361328125,2.585139274597168
1772594373080793000,4.16379296875,0.2983773946762085,-9.642348289489746,2.5731682777404785
1772594373101057000,4.18405712890625,0.3139396905899048,-9.644144058227539,2.5707740783691406
1772594373121320000,4.20431982421875,0.3067570924758911,-9.632771492004395,2.5602993965148926
1772594373141584000,4.224583984375,0.3130418658256531,-9.62379264831543,2.5459342002868652
1772594373161848000,4.24484814453125,0.314238965511322,-9.622296333312988,2.5357589721679688
1772594373182111000,4.265111083984375,0.3166331648826599,-9.626187324523926,2.528576374053955
1772594373202375000,4.285375,0.31932663917541504,-9.63067626953125,2.519897222518921
1772594373222639000,4.30563916015625,0.3256114423274994,-9.644144058227539,2.5115175247192383
1772594373242902000,4.325902099609375,0.3115454912185669,-9.644144058227539,2.500145196914673
1772594373263166000,4.346166015625,0.31513679027557373,-9.644144058227539,2.504035711288452
1772594373283430000,4.366429931640625,0.30705636739730835,-9.639355659484863,2.4998457431793213
1772594373303693000,4.386693115234375,0.27383682131767273,-9.641449928283691,2.4998457431793213
1772594373323957000,4.40695703125,0.2744353711605072,-9.650129318237305,2.4950573444366455
1772594373344221000,4.427220947265625,0.2801215946674347,-9.657012939453125,2.4815900325775146
1772594373364484000,4.447484130859375,0.2735375463962555,-9.684545516967773,2.476801633834839
1772594373384748000,4.467748046875,0.2702455222606659,-9.709685325622559,2.4666264057159424
1772594373405012000,4.488011962890625,0.2513911724090576,-9.738714218139648,2.4735095500946045
1772594373425275000,4.50827490234375,0.23014263808727264,-9.755474090576172,2.4776995182037354
1772594373445539000,4.5285390625,0.2082955539226532,-9.768043518066406,2.4678235054016113
1772594373465803000,4.548802978515625,0.1867477297782898,-9.786897659301758,2.468122720718384
1772594373486066000,4.56906591796875,0.17537526786327362,-9.797073364257812,2.4693198204040527
1772594373506330000,4.589330078125,0.15352818369865417,-9.786897659301758,2.477998733520508
1772594373526594000,4.609593994140625,0.16220717132091522,-9.775824546813965,2.4747066497802734
1772594373546857000,4.62985693359375,0.1702875941991806,-9.769539833068848,2.474407434463501
1772594373567121000,4.650120849609375,0.17058686912059784,-9.746196746826172,2.4776995182037354
1772594373587385000,4.670385009765625,0.1735796183347702,-9.727940559387207,2.4711153507232666
1772594373607648000,4.69064794921875,0.1529296338558197,-9.717166900634766,2.465728521347046
1772594373627912000,4.710911865234375,0.1313818246126175,-9.720159530639648,2.4624364376068115
1772594373648176000,4.731176025390625,0.11911153793334961,-9.743502616882324,2.463932752609253
1772594373668439000,4.75143896484375,0.10594342648983002,-9.76325511932373,2.457947254180908
1772594373688703000,4.771702880859375,0.09636662155389786,-9.774927139282227,2.465129852294922
1772594373708967000,4.791966796875,0.10504560172557831,-9.795876502990723,2.468122720718384
1772594373729230000,4.81222998046875,0.12360066175460815,-9.79288387298584,2.466925621032715
1772594373749494000,4.832493896484375,0.1331774741411209,-9.785700798034668,2.4660277366638184
1772594373769758000,4.852758056640625,0.14933833479881287,-9.77013874053955,2.4636335372924805
1772594373790021000,4.873021240234375,0.13916297256946564,-9.762657165527344,2.4585459232330322
1772594373810285000,4.89328515625,0.1215057373046875,-9.773730278015137,2.452261209487915
1772594373830549000,4.913549072265625,0.11222820729017258,-9.787496566772461,2.4531588554382324
1772594373850812000,4.93381201171875,0.10803835093975067,-9.802460670471191,2.4519617557525635
1772594373871076000,4.954076171875,0.09487023949623108,-9.807547569274902,2.446275472640991
1772594373891340000,4.974340087890625,0.08289923518896103,-9.829694747924805,2.44747257232666
1772594373911603000,4.99460302734375,0.07571662962436676,-9.845256805419922,2.4444799423217773
1772594373931867000,5.014866943359375,0.06703764945268631,-9.849745750427246,2.4340052604675293
1772594373952131000,5.035131103515625,0.054767362773418427,-9.86351203918457,2.4352023601531982
1772594373972394000,5.05539404296875,0.05297171324491501,-9.860818862915039,2.423830032348633
1772594373992658000,5.075657958984375,0.04967968538403511,-9.873388290405273,2.4217350482940674
1772594374012922000,5.095922119140625,0.044592007994651794,-9.885659217834473,2.42472767829895
1772594374033185000,5.11618505859375,0.033518824726343155,-9.897629737854004,2.439392328262329
1772594374053449000,5.136448974609375,0.0293289702385664,-9.896432876586914,2.4358010292053223
1772594374073713000,5.156712890625,0.03411737456917763,-9.9000244140625,2.436399459838867
1772594374093976000,5.17697607421875,0.0314238965511322,-9.911396026611328,2.441187858581543
1772594374114240000,5.197239990234375,0.03232172131538391,-9.915287017822266,2.434903144836426
1772594374134504000,5.21750390625,0.03950432687997818,-9.896133422851562,2.4262242317199707
1772594374154767000,5.23776708984375,0.03711012750864029,-9.866206169128418,2.42203426361084
1772594374175031000,5.258031005859375,0.02603694424033165,-9.848249435424805,2.4286184310913086
1772594374195295000,5.278294921875,0.01825578883290291,-9.829395294189453,2.4420857429504395
1772594374215558000,5.298557861328125,0.011671733111143112,-9.803657531738281,2.4352023601531982
1772594374235822000,5.318822021484375,0.002992752008140087,-9.790189743041992,2.4378957748413086
1772594374256086000,5.3390859375,-0.005087678786367178,-9.774927139282227,2.448669672012329
1772594374276349000,5.359348876953125,-0.01107318326830864,-9.763554573059082,2.4477720260620117
1772594374296613000,5.379613037109375,-0.004189853090792894,-9.750985145568848,2.4594438076019287
1772594374316877000,5.399876953125,0.02603694424033165,-9.747992515563965,2.460341453552246
1772594374337140000,5.420139892578125,0.04578910768032074,-9.767744064331055,2.4567501544952393
1772594374357404000,5.44040380859375,0.08170213550329208,-9.783007621765137,2.454655408859253
1772594374377668000,5.460668212890625,0.10923545062541962,-9.794678688049316,2.459743022918701
1772594374397932000,5.48093212890625,0.0975637212395668,-9.842862129211426,2.487874746322632
1772594374418195000,5.50119482421875,0.09187749028205872,-9.879075050354004,2.5225908756256104
1772594374438459000,5.521458984375,0.11103110015392303,-9.91049861907959,2.5118167400360107
1772594374458723000,5.54172314453125,0.11971008777618408,-9.93474006652832,2.494758129119873
1772594374478986000,5.561986083984375,0.1355716735124588,-9.905111312866211,2.484882116317749
1772594374499250000,5.58225,0.15472528338432312,-9.847949981689453,2.479794502258301
1772594374519514000,5.60251416015625,0.16819266974925995,-9.789591789245605,2.445377826690674
1772594374539777000,5.622777099609375,0.18375498056411743,-9.742006301879883,2.4151508808135986
1772594374560041000,5.643041015625,0.19213469326496124,-9.701005935668945,2.390011787414551
1772594374580305000,5.663304931640625,0.1966238170862198,-9.663596153259277,2.388216257095337
1772594374600568000,5.683568115234375,0.22026655077934265,-9.644442558288574,2.387019157409668
1772594374641096000,5.724095947265625,0.24510639905929565,-9.645340919494629,2.419640064239502
1772594374661359000,5.744359130859375,0.2454056739807129,-9.654618263244629,2.436399459838867
1772594374681623000,5.764623046875,0.22685061395168304,-9.654618263244629,2.4334068298339844
1772594374701887000,5.784886962890625,0.21936872601509094,-9.656713485717773,2.436998128890991
1772594374722150000,5.80514990234375,0.21936872601509094,-9.655516624450684,2.448669672012329
1772594374742414000,5.8254140625,0.23163901269435883,-9.64803409576416,2.474407434463501
1772594374762678000,5.845677978515625,0.24151510000228882,-9.642946243286133,2.502239942550659
1772594374782941000,5.86594091796875,0.22445641458034515,-9.645939826965332,2.5225908756256104
1772594374803205000,5.886205078125,0.20709845423698425,-9.642048835754395,2.5585038661956787
1772594374823469000,5.906468994140625,0.18285715579986572,-9.635764122009277,2.568679094314575
1772594374843732000,5.92673193359375,0.15891513228416443,-9.627084732055664,2.586336374282837
1772594374863996000,5.946995849609375,0.10893617570400238,-9.628581047058105,2.599205255508423
1772594374884260000,5.967260009765625,0.07122749835252762,-9.633968353271484,2.6033949851989746
1772594374904523000,5.98752294921875,0.042197804898023605,-9.633369445800781,2.619555950164795
1772594374924787000,6.007786865234375,0.02693476900458336,-9.637260437011719,2.6093804836273193
1772594374945051000,6.02805078125,0.0314238965511322,-9.631275177001953,2.614168882369995
1772594374965314000,6.04831396484375,0.03770867735147476,-9.625887870788574,2.6255414485931396
1772594374985578000,6.068577880859375,0.034416649490594864,-9.616610527038574,2.6458921432495117
1772594375005842000,6.088842041015625,0.019153613597154617,-9.617208480834961,2.629431962966919
1772594375026105000,6.10910498046875,0.0077811554074287415,-9.620800018310547,2.6204538345336914
1772594375046369000,6.129369140625,-0.002693476853892207,-9.624092102050781,2.6210522651672363
1772594375066633000,6.149633056640625,-0.013168109580874443,-9.605836868286133,2.6494834423065186
1772594375086896000,6.169896240234375,-0.037409402430057526,-9.573814392089844,2.6868927478790283
1772594375107160000,6.19016015625,-0.06374561786651611,-9.544185638427734,2.7246015071868896
1772594375127424000,6.210424072265625,-0.08319851011037827,-9.520543098449707,2.7557260990142822
1772594375147687000,6.23068701171875,-0.08050503581762314,-9.5130615234375,2.7772738933563232
1772594375167951000,6.250951171875,-0.09516951441764832,-9.526228904724121,2.843413829803467
1772594375188215000,6.271215087890625,-0.11671733111143112,-9.541492462158203,2.8886044025421143
1772594375208478000,6.29147802734375,-0.12389993667602539,-9.549872398376465,2.9373862743377686
1772594375228742000,6.311741943359375,-0.14036007225513458,-9.55705451965332,2.9777884483337402
1772594375249006000,6.332006103515625,-0.11911153793334961,-9.498396873474121,3.018789052963257
1772594375269269000,6.35226904296875,-0.11043255031108856,-9.446322441101074,3.06068754196167
1772594375289533000,6.372532958984375,-0.09247604012489319,-9.429264068603516,3.1196448802948
1772594375309797000,6.392797119140625,-0.11043255031108856,-9.448417663574219,3.149871587753296
1772594375330060000,6.41306005859375,-0.127191960811615,-9.469367027282715,3.139396905899048
1772594375350324000,6.433323974609375,-0.13527239859104156,-9.482535362243652,3.1606454849243164
1772594375370588000,6.453587890625,-0.18944120407104492,-9.496301651000977,3.167229652404785
1772594375390851000,6.47385107421875,-0.19243396818637848,-9.46607494354248,3.1648354530334473
1772594375411115000,6.494114990234375,-0.19722236692905426,-9.454402923583984,3.1606454849243164
1772594375431440000,6.51443994140625,-0.21428105235099792,-9.434651374816895,3.1839890480041504
1772594375451703000,6.534703125,-0.22415713965892792,-9.42208194732666,3.1648354530334473
1772594375471967000,6.554967041015625,-0.2313397377729416,-9.445425033569336,3.1717185974121094
1772594375492231000,6.57523095703125,-0.23942017555236816,-9.442432403564453,3.1938650608062744
1772594375512494000,6.595494140625,-0.24151510000228882,-9.427767753601074,3.2468366622924805
1772594375532758000,6.615758056640625,-0.24361002445220947,-9.443329811096191,3.263596296310425
1772594375553022000,6.63602197265625,-0.24809914827346802,-9.48073959350586,3.281552791595459
1772594375573286000,6.656285888671875,-0.1595136821269989,-9.511565208435059,3.306093215942383
1772594375593549000,6.676549072265625,-0.21098902821540833,-9.55705451965332,3.3749265670776367
1772594375613813000,6.69681298828125,-0.1885433793067932,-9.503185272216797,3.3156700134277344
1772594375634077000,6.717076904296875,-0.14604631066322327,-9.442432403564453,3.2743701934814453
1772594375654340000,6.737340087890625,-0.09876082092523575,-8.70801067352295,3.318363666534424
1772594375674604000,6.75760400390625,-0.06404489278793335,-8.716690063476562,3.3710360527038574
1772594375694868000,6.777867919921875,-0.03082534670829773,-8.768165588378906,3.434781551361084
1772594375715131000,6.798130859375,0.002693476853892207,-9.530718803405762,3.4805707931518555
1772594375735395000,6.81839501953125,0.017058687284588814,-9.548674583435059,3.487154722213745
1772594375755659000,6.838658935546875,0.011372458189725876,-9.583989143371582,3.4775779247283936
1772594375775922000,6.858921875,-0.01646013744175434,-9.597456932067871,3.4548330307006836
1772594375796186000,6.87918603515625,-0.041299980133771896,-9.60404109954834,3.4479496479034424
1772594375816450000,6.899449951171875,-0.06434416770935059,-9.592069625854492,3.445854902267456
1772594375836713000,6.919712890625,-0.090979665517807,-9.593565940856934,3.421314239501953
1772594375856977000,6.939976806640625,-0.10354922711849213,-9.58788013458252,3.3848025798797607
1772594375877241000,6.960240966796875,-0.11971008777618408,-9.567230224609375,3.361459255218506
1772594375897504000,6.98050390625,-0.12629413604736328,-9.54777717590332,3.378218650817871
1772594375917768000,7.000767822265625,-0.10953472554683685,-9.541492462158203,3.394678831100464
1772594375938032000,7.0210322265625,-0.09876082092523575,-9.55705451965332,3.362057685852051
1772594375958295000,7.041294921875,-0.08888474106788635,-9.575310707092285,3.3569700717926025
1772594375978559000,7.06155908203125,-0.0933738648891449,-9.591172218322754,3.3458969593048096
1772594375998823000,7.081822998046875,-0.1182137057185173,-9.577106475830078,3.3488895893096924
1772594376019086000,7.102086181640625,-0.10235211998224258,-9.560346603393555,3.3530795574188232
1772594376039350000,7.12235009765625,-0.061949968338012695,-9.534010887145996,3.328239679336548
1772594376059614000,7.142614013671875,-0.023044191300868988,-9.527725219726562,3.3285388946533203
1772594376079877000,7.162877197265625,0.015562310814857483,-9.532513618469238,3.356072187423706
1772594376100141000,7.18314111328125,0.032022446393966675,-9.534908294677734,3.368941068649292
1772594376120405000,7.203405029296875,0.04638765752315521,-9.52922248840332,3.3530795574188232
1772594376140668000,7.22366796875,0.08439560979604721,-9.510068893432617,3.2986114025115967
1772594376160932000,7.24393212890625,0.09457096457481384,-9.528024673461914,3.3069911003112793
1772594376181196000,7.264196044921875,0.07062894850969315,-9.576208114624023,3.362057685852051
1772594376201459000,7.284458984375,0.04578910768032074,-9.565434455871582,3.365349769592285
1772594376221723000,7.304722900390625,0.02274491637945175,-9.550769805908203,3.401561975479126
1772594376241987000,7.324987060546875,0.021847089752554893,-9.557653427124023,3.448249101638794
1772594376262250000,7.34525,0.024241292849183083,-9.531316757202148,3.4706945419311523
1772594376282514000,7.365513916015625,0.026635494083166122,-9.497498512268066,3.4817678928375244
1772594376302778000,7.385778076171875,0.02753331884741783,-9.483732223510742,3.4683003425598145
1772594376323041000,7.406041015625,0.013766659423708916,-9.497498512268066,3.456329345703125
1772594376343305000,7.426304931640625,0.021847089752554893,-9.511863708496094,3.4386723041534424
1772594376363569000,7.44656884765625,-0.011372458189725876,-9.495104789733887,3.4635119438171387
1772594376383832000,7.46683203125,-0.041299980133771896,-9.468768119812012,3.474285840988159
1772594376404096000,7.487095947265625,-0.033518824726343155,-9.425971984863281,3.4584243297576904
1772594376424360000,7.50735986328125,-0.022445641458034515,-9.357438087463379,3.414430856704712
1772594376444623000,7.527623046875,-0.023044191300868988,-9.320327758789062,3.4252047538757324
1772594376464887000,7.547886962890625,-0.011671733111143112,-9.330503463745117,3.506009101867676
1772594376485151000,7.56815087890625,-0.009277531877160072,-9.320926666259766,3.575740337371826
1772594376505414000,7.588413818359375,-0.002992752008140087,-9.322422981262207,4.302081108093262
1772594376525678000,7.608677978515625,-0.0077811554074287415,-9.38856315612793,4.309263706207275
1772594376545942000,7.62894189453125,-0.04159925505518913,-9.419687271118164,4.289511680603027
1772594376566205000,7.649204833984375,-0.05985504388809204,-9.379284858703613,4.234744071960449
1772594376586469000,7.66946923828125,-0.08289923518896103,-9.406219482421875,4.215590476989746
1772594376606733000,7.689733154296875,-0.10833762586116791,-9.48073959350586,4.165910720825195
1772594376626996000,7.709995849609375,-0.12838906049728394,-9.469367027282715,4.115333557128906
1772594376647260000,7.730260009765625,-0.11522095650434494,-9.420584678649902,4.134487152099609
1772594376667524000,7.750524169921875,-0.10205284506082535,-9.3828763961792,4.1198225021362305
1772594376687787000,7.770787109375,-0.13018471002578735,-9.344569206237793,4.1395745277404785
1772594376708051000,7.791051025390625,-0.10714052617549896,-9.2748384475708,4.15064811706543
1772594376728315000,7.81131494140625,-0.08289923518896103,-9.216479301452637,4.1647138595581055
1772594376748578000,7.831578125,-0.07182604819536209,-9.19283676147461,4.148552894592285
1772594376768842000,7.851842041015625,-0.05656301602721214,-9.19552993774414,4.129997730255127
1772594376789106000,7.87210595703125,-0.04249707981944084,-9.207501411437988,4.103960990905762
1772594376809369000,7.892369140625,-0.041299980133771896,-9.22874927520752,4.076726913452148
1772594376829633000,7.912633056640625,-0.027832595631480217,-9.236531257629395,4.071040630340576
1772594376849897000,7.93289697265625,-0.02603694424033165,-9.237428665161133,4.064456462860107
1772594376870161000,7.953160888671875,-0.026635494083166122,-9.23443603515625,4.0650553703308105
1772594376890424000,7.973424072265625,-0.03321954980492592,-9.216479301452637,4.064755916595459
1772594376910688000,7.99368798828125,-0.01496376097202301,-9.198522567749023,4.064755916595459
1772594376930952000,8.013951904296874,-0.008978256024420261,-9.181164741516113,4.053084373474121
1772594376951215000,8.034215087890624,0.01496376097202301,-9.160215377807617,4.041711807250977
1772594376971479000,8.05447900390625,0.02992752194404602,-9.142857551574707,4.039916038513184
1772594376991743000,8.074742919921874,0.016759412363171577,-9.131484985351562,4.036324977874756
1772594377012006000,8.095005859375,0.017058687284588814,-9.134777069091797,4.033930778503418
1772594377032270000,8.11527001953125,0.008978256024420261,-9.15961742401123,4.027945041656494
1772594377052534000,8.135533935546874,0.004189853090792894,-9.165602684020996,4.014477729797363
1772594377072797000,8.155796875,0.006883329711854458,-9.173982620239258,4.01537561416626
1772594377093061000,8.17606103515625,0.008978256024420261,-9.18625259399414,4.015076160430908
1772594377113325000,8.196324951171874,0.005386953707784414,-9.188048362731934,4.018667697906494
1772594377133588000,8.216587890625,0.015263035893440247,-9.202413558959961,4.0207624435424805
1772594377153852000,8.236851806640624,0.020350715145468712,-9.207501411437988,4.017470359802246
1772594377174116000,8.2571162109375,0.013766659423708916,-9.216479301452637,4.0207624435424805
1772594377194379000,8.27737890625,0.011971008032560349,-9.228151321411133,4.006995677947998
1772594377214643000,8.297642822265624,0.02274491637945175,-9.243413925170898,4.002506732940674
1772594377234907000,8.317906982421874,0.028131870552897453,-9.252691268920898,4.011185646057129
1772594377255170000,8.338170166015624,0.03381809964776039,-9.25059700012207,3.9974191188812256
1772594377275434000,8.35843408203125,0.035913024097681046,-9.257181167602539,3.9956233501434326
1772594377295698000,8.378697998046874,0.023044191300868988,-9.268852233886719,3.9911341667175293
1772594377315961000,8.398961181640624,0.031124621629714966,-9.271845817565918,3.980958938598633
1772594377336225000,8.41922509765625,0.04040215536952019,-9.279327392578125,3.984251022338867
1772594377356489000,8.439489013671874,0.02992752194404602,-9.282020568847656,3.979761838912964
1772594377376752000,8.459752197265624,0.027832595631480217,-9.283516883850098,3.9764697551727295
1772594377397016000,8.48001611328125,0.038307227194309235,-9.29997730255127,3.97916316986084
1772594377417280000,8.500280029296874,0.03381809964776039,-9.3026704788208,3.9683892726898193
1772594377437543000,8.52054296875,0.029628245159983635,-9.315239906311035,3.9630024433135986
1772594377457807000,8.54080712890625,0.023942016065120697,-9.320028305053711,3.9606082439422607
1772594377478071000,8.561071044921874,0.014065935276448727,-9.319729804992676,3.965695858001709
1772594377498334000,8.581333984375,0.01646013744175434,-9.319729804992676,3.944148063659668
1772594377518598000,8.601597900390624,0.023044191300868988,-9.327810287475586,3.907935619354248
1772594377538862000,8.621862060546874,0.020649990066885948,-9.319729804992676,3.8902785778045654
1772594377559125000,8.642125,0.05147533491253853,-9.321824073791504,3.8600516319274902
1772594377579389000,8.662388916015624,0.04339490458369255,-9.317934036254883,3.8693292140960693
1772594377599653000,8.682653076171874,0.0065840547904372215,-9.320926666259766,3.9028480052948
1772594377619916000,8.702916015625,-0.03232172131538391,-9.328108787536621,3.9136219024658203
1772594377640180000,8.723179931640624,-0.06314706802368164,-9.329306602478027,3.922001600265503
1772594377660444000,8.74344384765625,-0.08230068534612656,-9.315838813781738,3.9223008155822754
1772594377680707000,8.76370703125,-0.10295066982507706,-9.304166793823242,3.9321770668029785
1772594377700971000,8.783970947265624,-0.08738835901021957,-9.329605102539062,3.91092848777771
1772594377721235000,8.80423486328125,-0.08170213550329208,-9.387365341186523,3.8872857093811035
1772594377741498000,8.824498046875,-0.04967968538403511,-9.434651374816895,3.9070379734039307
1772594377761762000,8.844761962890624,-0.021547814831137657,-9.507973670959473,3.94175386428833
1772594377782026000,8.86502587890625,0.020649990066885948,-10.350133895874023,3.976170539855957
1772594377802289000,8.885288818359374,0.043095629662275314,-10.401609420776367,3.997718334197998
1772594377822553000,8.905552978515624,0.05776011571288109,-10.465055465698242,4.0527849197387695
1772594377842817000,8.925817138671874,0.06554127484560013,-11.582249641418457,4.096778392791748
1772594377863080000,8.946079833984374,0.09247604012489319,-12.338518142700195,4.16800594329834
1772594377883344000,8.96634375,0.1256955862045288,-12.393285751342773,4.93923807144165
1772594377903608000,8.986608154296874,0.16669629514217377,-12.457630157470703,4.986823081970215
1772594377923871000,9.00687109375,0.22864626348018646,-12.519579887390137,5.01285982131958
1772594377944135000,9.027135009765624,1.0773907899856567,-12.584223747253418,5.008370876312256
1772594377964399000,9.047399169921874,1.1118074655532837,-13.339593887329102,4.999990940093994
1772594377984662000,9.067662109375,2.0066401958465576,-13.358149528503418,4.97545051574707
1772594378004926000,9.087926025390624,2.8814218044281006,-13.37580680847168,4.958691120147705
1772594378025190000,9.10818994140625,2.9116485118865967,-13.347075462341309,4.953303813934326
1772594378045453000,9.128453125,2.010530948638916,-12.10777759552002,4.985027313232422
1772594378065717000,9.148717041015624,0.7802104949951172,-10.851420402526855,6.494272232055664
1772594378085981000,9.16898095703125,-0.16879121959209442,-9.44063663482666,7.929895401000977
1772594378106244000,9.189244140625,-0.24989479780197144,-8.087313652038574,9.036016464233398
1772594378126508000,9.209508056640624,-1.0890624523162842,-6.896498203277588,9.112031936645508
1772594378146772000,9.22977197265625,-1.0845733880996704,-5.794267177581787,9.16201114654541
1772594378167036000,9.250035888671874,-1.0396820306777954,-4.767154693603516,8.397064208984375
1772594378187299000,9.270299072265624,-0.1463455855846405,-3.8780081272125244,6.543054103851318
1772594378227827000,9.310826904296874,1.3569138050079346,-3.015796422958374,3.4425628185272217
1772594378248090000,9.331090087890624,2.743156671524048,-2.9595324993133545,2.651578426361084
1772594378268354000,9.35135400390625,3.994725465774536,-2.9251158237457275,2.5668835639953613
1772594378288618000,9.371617919921874,4.858134746551514,-2.9095535278320312,1.7438766956329346
1772594378308881000,9.391880859375,5.8547210693359375,-2.954145669937134,0.9687538743019104
1772594378329145000,9.41214501953125,6.745364189147949,-3.033752918243408,0.1463455855846405
1772594378349409000,9.432408935546874,7.6671319007873535,-3.755305290222168,0.11791443079710007
1772594378389936000,9.47293603515625,7.774870872497559,-2.92421817779541,1.3455413579940796
1772594378410200000,9.493199951171874,8.682572364807129,-2.884115219116211,1.4215573072433472
1772594378430463000,9.513462890625,9.589376449584961,-2.8652608394622803,2.2433669567108154
1772594378450727000,9.533726806640624,9.62379264831543,-2.825756549835205,2.266411066055298
1772594378470991000,9.5539912109375,9.636063575744629,-2.0207061767578125,2.312499523162842
1772594378491254000,9.57425390625,9.656713485717773,-1.0079588890075684,2.3615806102752686
1772594378511518000,9.59451806640625,9.580697059631348,-0.16071078181266785,2.327463388442993
1772594378531782000,9.614781982421874,8.574832916259766,0.5632359385490417,2.3080103397369385
1772594378552045000,9.635045166015624,7.824251174926758,0.6159083843231201,2.2987329959869385
1772594378572309000,9.65530908203125,7.788936614990234,1.4050971269607544,2.3050177097320557
1772594378592573000,9.675572998046874,7.803301811218262,1.492186188697815,2.310105323791504
1772594378612836000,9.695836181640624,7.81108283996582,2.2508487701416016,2.34841251373291
1772594378633100000,9.71610009765625,7.8634562492370605,2.267608165740967,2.4193408489227295
1772594378653364000,9.736364013671874,7.944859027862549,2.275090217590332,2.4618380069732666
1772594378673627000,9.756626953125,7.979575157165527,2.3493103981018066,2.4962544441223145
1772594378693891000,9.77689111328125,8.011298179626465,3.1181483268737793,2.520495891571045
1772594378714155000,9.797155029296874,8.010101318359375,3.1540615558624268,2.5393502712249756
1772594378734418000,9.81741796875,7.9987287521362305,3.2196028232574463,2.5276784896850586
1772594378754682000,9.83768212890625,8.052597999572754,3.290231704711914,2.5127146244049072
1772594378774946000,9.857946044921874,8.797194480895996,3.3120787143707275,2.507627010345459
1772594378795209000,9.878208984375,8.813355445861816,3.3623569011688232,2.5055320262908936
1772594378815473000,9.898472900390624,8.828319549560547,3.434183120727539,2.4426841735839844
1772594378835737000,9.918737060546874,8.80048656463623,3.5045127868652344,1.670554280281067
1772594378856000000,9.939,8.74721622467041,4.356549263000488,1.6205753087997437
1772594378876264000,9.959263916015624,8.672696113586426,4.428375244140625,1.5726912021636963
1772594378896528000,9.97952783203125,7.834426403045654,4.501996994018555,1.5828665494918823
1772594378916791000,9.999791015625,7.818864345550537,5.196016311645508,1.6172832250595093
1772594378937055000,10.020054931640624,7.8296380043029785,5.200505256652832,1.6627731323242188
1772594378957319000,10.04031884765625,8.652645111083984,5.191826343536377,1.6759412288665771
1772594378977582000,10.06058203125,8.68945598602295,5.1996073722839355,1.6283564567565918
1772594378997846000,10.080845947265624,8.657134056091309,5.214571475982666,0.8843582272529602
1772594379018110000,10.10110986328125,7.883208274841309,5.223250389099121,0.8798691034317017
1772594379038373000,10.121373046875,7.873033046722412,5.240907669067383,0.9418190717697144
1772594379058637000,10.141636962890624,7.906851291656494,5.249885559082031,1.017835021018982
1772594379078901000,10.16190087890625,7.924807548522949,5.263053894042969,1.7049708366394043
1772594379099164000,10.182163818359374,7.940370082855225,5.294477939605713,1.6511013507843018
1772594379119428000,10.202427978515624,7.961618423461914,5.321712017059326,1.5909470319747925
1772594379139692000,10.222692138671874,8.003816604614258,5.355829238891602,0.618302583694458
1772594379159955000,10.242954833984374,8.04930591583252,5.3791728019714355,0.5641337633132935
1772594379180219000,10.263218994140624,8.052298545837402,5.400720596313477,0.5123591423034668
1772594379200483000,10.283483154296874,8.047211647033691,5.418676853179932,0.46088382601737976
1772594379220746000,10.30374609375,8.099884033203125,5.448903560638428,0.419883131980896
1772594379241010000,10.324010009765624,8.174702644348145,5.4560866355896,0.3770867586135864
1772594379261274000,10.344274169921874,8.221090316772461,5.4536919593811035,0.34835633635520935
1772594379281537000,10.364537109375,8.199841499328613,5.451597213745117,0.3555389642715454
1772594379301801000,10.384801025390624,8.140884399414062,5.4659624099731445,0.34506431221961975
1772594379322065000,10.40506494140625,8.093897819519043,5.464765548706055,0.35045126080513
1772594379342328000,10.425328125,8.054393768310547,5.464466094970703,0.328903466463089
1772594379362592000,10.445592041015624,8.037035942077637,5.4584808349609375,0.3034650683403015
1772594379382856000,10.46585595703125,8.03883171081543,5.464466094970703,0.26246437430381775
1772594379403119000,10.486119140625,8.030451774597168,5.469254493713379,0.22535423934459686
1772594379423383000,10.506383056640624,8.036736488342285,5.4453125,0.17238251864910126
1772594379463911000,10.546910888671874,8.167220115661621,5.330689907073975,0.08289923518896103
1772594379484174000,10.567174072265624,8.985139846801758,5.275024890899658,0.03381809964776039
1772594379504438000,10.58743798828125,9.022250175476074,5.260959148406982,0.03501519933342934
1772594379524702000,10.607701904296874,9.011475563049316,5.246593952178955,0.039803601801395416
1772594379565229000,10.64822900390625,7.989750385284424,5.249885559082031,0.07182604819536209
1772594379585493000,10.668492919921874,7.92899751663208,5.260959148406982,0.06314706802368164
1772594379605756000,10.688755859375,7.875726699829102,5.284003257751465,0.0520738884806633
1772594379626020000,10.70902001953125,7.820959091186523,5.286995887756348,0.008678981103003025
1772594379646284000,10.729283935546874,7.834725856781006,5.273828029632568,0.0038905777037143707
1772594379666547000,10.749546875,7.887996673583984,5.257667064666748,0.044592007994651794
1772594379686811000,10.769810791015624,7.925107002258301,5.238214015960693,0.04279635474085808
1772594379707075000,10.790074951171874,7.959822654724121,5.222352504730225,-0.020350715145468712
1772594379727338000,10.810337890625,8.013093948364258,5.206191539764404,-0.784998893737793
1772594379747602000,10.830601806640624,8.759186744689941,5.18673849105835,-0.7730278968811035
