time,seconds_elapsed,z,y,x
1772594369392787000,0.475786865234375,5.152322292327881,-6.390722751617432,4.151246547698975
1772594369413050000,0.496050048828125,5.16429328918457,-6.465541839599609,4.158728122711182
1772594369433314000,0.51631396484375,5.146336555480957,-6.530783653259277,4.16531229019165
1772594369453578000,0.536577880859375,5.093664169311523,-6.5942301750183105,4.1844658851623535
1772594369473841000,0.5568408203125,5.044283866882324,-7.339126110076904,4.2170867919921875
1772594369494105000,0.57710498046875,4.997297286987305,-7.344213485717773,4.248810291290283
1772594369514369000,0.597369140625,4.95120906829834,-7.3472065925598145,4.279336452484131
1772594369534632000,0.6176318359375,4.142268180847168,-7.378331184387207,4.318541526794434
1772594369554896000,0.637895751953125,4.103063106536865,-7.4462666511535645,4.370914459228516
1772594369575160000,0.65816015625,4.084208965301514,-7.498340606689453,4.396951198577881
1772594369595423000,0.678423095703125,4.064157485961914,-7.549516677856445,4.412214279174805
1772594369615687000,0.69868701171875,4.020462989807129,-7.594407558441162,4.448726177215576
1772594369635951000,0.718951171875,3.993528366088867,-7.634211540222168,4.514267444610596
1772594369656214000,0.739214111328125,3.9537248611450195,-7.6782050132751465,5.279513835906982
1772594369676478000,0.75947802734375,3.8908770084381104,-7.725789546966553,5.291484832763672
1772594369696742000,0.779741943359375,3.881300210952759,-7.79372501373291,5.271134376525879
1772594369717006000,0.800006103515625,3.9082350730895996,-7.781754016876221,5.2014031410217285
1772594369737269000,0.82026904296875,3.1950621604919434,-6.977601528167725,4.396053791046143
1772594369757533000,0.840532958984375,0.6745663285255432,-6.961440563201904,4.433163642883301
1772594369777797000,0.860797119140625,-0.4058171808719635,-7.014112949371338,5.452195644378662
1772594369798060000,0.88106005859375,0.744297444820404,-8.191761016845703,5.517138481140137
1772594369818324000,0.901323974609375,0.8011597394943237,-9.125200271606445,5.550956726074219
1772594369838588000,0.921587890625,0.7583633661270142,-9.159317970275879,5.560832500457764
1772594369858851000,0.94185107421875,0.7015010714530945,-9.172186851501465,5.501875400543213
1772594369879115000,0.962114990234375,0.6760627031326294,-9.187748908996582,5.425859451293945
1772594369899379000,0.98237890625,0.6637924313545227,-9.226954460144043,4.671985149383545
1772594369919642000,1.00264208984375,0.6467337608337402,-9.235034942626953,4.673182487487793
1772594369939906000,1.022906005859375,0.613214910030365,-9.232939720153809,4.659715175628662
1772594369960170000,1.043169921875,0.5958569645881653,-9.230844497680664,4.654926776885986
1772594369980433000,1.063432861328125,0.6075286865234375,-9.200617790222168,4.610334873199463
1772594370000697000,1.083697021484375,0.5590460896492004,-9.152434349060059,3.823540210723877
1772594370020961000,1.1039609375,0.5503671169281006,-9.133580207824707,3.816956043243408
1772594370041224000,1.124223876953125,0.5431845188140869,-9.169792175292969,3.7912182807922363
1772594370061488000,1.144488037109375,0.5291185975074768,-9.182960510253906,3.820547342300415
1772594370081752000,1.164751953125,0.5548562407493591,-9.176675796508789,3.8049850463867188
1772594370102015000,1.185014892578125,0.5683236122131348,-9.211092948913574,3.769371271133423
1772594370122279000,1.20527880859375,0.5808931589126587,-9.272144317626953,3.7310640811920166
1772594370142543000,1.225543212890625,0.6042366623878479,-10.013150215148926,3.7298669815063477
1772594370162806000,1.245805908203125,0.6607996821403503,-10.024822235107422,3.7137060165405273
1772594370183070000,1.266070068359375,0.6961141228675842,-10.029909133911133,3.680785894393921
1772594370203334000,1.286333984375,0.7299322485923767,-10.008959770202637,3.65923810005188
1772594370223597000,1.30659716796875,0.7601590156555176,-9.997886657714844,3.597886562347412
1772594370243861000,1.326861083984375,0.7652466893196106,-10.004770278930664,3.5470097064971924
1772594370264125000,1.347125,0.7706336975097656,-9.992500305175781,3.5284547805786133
1772594370284388000,1.36738818359375,0.7790133953094482,-10.016741752624512,3.5113961696624756
1772594370304652000,1.387652099609375,0.7769184708595276,-9.999382972717285,3.501819372177124
1772594370324916000,1.407916015625,0.7652466893196106,-9.982025146484375,3.4739866256713867
1772594370345179000,1.428178955078125,0.7667431235313416,-9.948206901550293,3.437774419784546
1772594370365443000,1.448443115234375,0.7799112200737,-9.922768592834473,3.3982701301574707
1772594370385707000,1.46870703125,0.7978677153587341,-9.911396026611328,3.35667085647583
1772594370405970000,1.488969970703125,0.8071452379226685,-9.894936561584473,3.3429040908813477
1772594370426234000,1.509234130859375,0.8191162347793579,-9.895833969116211,3.3336265087127686
1772594370446498000,1.529498046875,0.8358756899833679,-9.885659217834473,3.310582399368286
1772594370466761000,1.549760986328125,0.8541314601898193,-9.881468772888184,3.2866404056549072
1772594370487025000,1.57002490234375,0.867598831653595,-9.884461402893066,3.257012128829956
1772594370507289000,1.5902890625,0.8825625777244568,-9.862614631652832,3.223194122314453
1772594370527552000,1.610552001953125,0.9091981053352356,-9.838972091674805,3.176506996154785
1772594370547816000,1.63081591796875,0.9193734526634216,-9.802460670471191,3.1355063915252686
1772594370568080000,1.651079833984375,0.9265560507774353,-9.777022361755371,3.0906150341033936
1772594370588343000,1.671343017578125,0.9292495250701904,-9.7512845993042,3.063081741333008
1772594370608607000,1.69160693359375,0.9406219720840454,-9.733925819396973,3.033154249191284
1772594370628871000,1.711870849609375,0.9507973790168762,-9.703998565673828,3.0166940689086914
1772594370649134000,1.732134033203125,0.9522937536239624,-9.680655479431152,2.987365245819092
1772594370669398000,1.75239794921875,0.9609727263450623,-9.660603523254395,2.972700595855713
1772594370689662000,1.772661865234375,0.9744400978088379,-9.644144058227539,2.9397804737091064
1772594370709925000,1.792925048828125,0.9828197956085205,-9.632172584533691,2.9349920749664307
1772594370730189000,1.81318896484375,0.999878466129303,-9.634567260742188,2.9700071811676025
1772594370750453000,1.833452880859375,1.038185715675354,-9.622296333312988,3.014000654220581
1772594370770716000,1.8537158203125,1.0749965906143188,-9.613617897033691,3.059490442276001
1772594370790980000,1.87397998046875,1.1195886135101318,-9.618705749511719,3.1274259090423584
1772594370811244000,1.894244140625,1.1812392473220825,-9.60763168334961,3.1860837936401367
1772594370831507000,1.9145068359375,1.2207435369491577,-9.594164848327637,3.23606276512146
1772594370851771000,1.93477099609375,1.2620435953140259,-9.559747695922852,3.286041736602783
1772594370872035000,1.95503515625,1.3075333833694458,-9.525630950927734,3.3120787143707275
1772594370892298000,1.975298095703125,1.314117431640625,-9.498396873474121,3.324049711227417
1772594370912562000,1.99556201171875,1.3147159814834595,-9.469067573547363,3.3156700134277344
1772594370932826000,2.015826171875,1.3198037147521973,-9.479841232299805,3.322254180908203
1772594370953089000,2.036089111328125,1.3218985795974731,-9.493309020996094,3.3198599815368652
1772594370973353000,2.05635302734375,1.2991536855697632,-9.495404243469238,3.3156700134277344
1772594370993617000,2.076616943359375,1.303044319152832,-9.504382133483887,3.32584547996521
1772594371013881000,2.096881103515625,1.303942084312439,-9.510666847229004,3.3249475955963135
1772594371034144000,2.11714404296875,1.3105261325836182,-9.517251014709473,3.2941222190856934
1772594371054408000,2.137407958984375,1.3207014799118042,-9.544784545898438,3.2671875953674316
1772594371074672000,2.157672119140625,1.326986312866211,-9.542389869689941,3.24953031539917
1772594371094935000,2.17793505859375,1.3335703611373901,-9.542988777160645,3.2609026432037354
1772594371115199000,2.198198974609375,1.3263877630233765,-9.542988777160645,3.2297780513763428
1772594371135463000,2.218462890625,1.3275848627090454,-9.541791915893555,3.2193033695220947
1772594371155726000,2.23872607421875,1.2919710874557495,-9.540594100952148,3.2013468742370605
1772594371175990000,2.258989990234375,1.2788029909133911,-9.542689323425293,3.1995513439178467
1772594371196271000,2.27927099609375,1.2602479457855225,-9.541193008422852,3.199850559234619
1772594371216535000,2.29953515625,1.2165536880493164,-9.533711433410645,3.1821932792663574
1772594371236799000,2.319799072265625,1.171961784362793,-9.536105155944824,3.1693243980407715
1772594371257062000,2.340061767578125,1.1405378580093384,-9.527127265930176,3.1594483852386475
1772594371277326000,2.360326171875,1.072303056716919,-9.525032043457031,3.157353401184082
1772594371297590000,2.380590087890625,0.3597288131713867,-9.535207748413086,3.1525650024414062
1772594371317853000,2.40085302734375,0.3280056416988373,-9.534010887145996,3.1435868740081787
1772594371338117000,2.4211171875,0.2759317457675934,-9.54209041595459,3.171419382095337
1772594371358381000,2.441381103515625,0.1966238170862198,-9.54209041595459,3.1872811317443848
1772594371378644000,2.46164404296875,-0.5285200476646423,-9.550769805908203,3.1977555751800537
1772594371398908000,2.481907958984375,-0.5183446407318115,-9.555258750915527,3.234865665435791
1772594371419172000,2.502172119140625,-0.5015852451324463,-9.543587684631348,3.2764649391174316
1772594371439435000,2.52243505859375,-0.5216367244720459,-9.542389869689941,3.3108816146850586
1772594371459699000,2.542698974609375,-0.5557540655136108,-9.545981407165527,3.3470940589904785
1772594371479963000,2.562962890625,-0.5695207118988037,-9.525930404663086,3.380612850189209
1772594371500226000,2.58322607421875,-0.5647323131561279,-9.495404243469238,3.3889925479888916
1772594371520490000,2.603489990234375,-0.5374982953071594,-9.462183952331543,3.375824451446533
1772594371540754000,2.62375390625,-0.4893149733543396,-9.396044731140137,3.354875087738037
1772594371561017000,2.64401708984375,-0.45669397711753845,-8.694543838500977,3.3102831840515137
1772594371581281000,2.664281005859375,-0.44083237648010254,-8.69095230102539,3.2585084438323975
1772594371601545000,2.684544921875,-0.45160630345344543,-8.691550254821777,3.1944637298583984
1772594371621808000,2.70480810546875,-0.4686649739742279,-8.690053939819336,2.461538553237915
1772594371642072000,2.725072021484375,-0.5159504413604736,-8.71878433227539,2.452261209487915
1772594371662336000,2.7453359375,-0.5808931589126587,-8.74721622467041,2.441187858581543
1772594371682599000,2.765598876953125,-0.629675030708313,-8.792107582092285,2.4322097301483154
1772594371702863000,2.785863037109375,-0.6688801050186157,-8.858246803283691,2.4489691257476807
1772594371723127000,2.806126953125,-0.7194576263427734,-9.692028045654297,2.4908676147460938
1772594371743390000,2.826389892578125,-0.7544727921485901,-9.710582733154297,2.5662848949432373
1772594371763654000,2.84665380859375,-0.7715315222740173,-9.755773544311523,3.307589530944824
1772594371783918000,2.86691796875,-0.7691373229026794,-9.805752754211426,3.3138744831085205
1772594371804182000,2.88718212890625,-0.7299322485923767,-9.841665267944336,3.325246810913086
1772594371824445000,2.90744482421875,-0.6937199234962463,-9.876680374145508,3.339312791824341
1772594371844709000,2.927709228515625,-0.6796540021896362,-9.877279281616211,3.3372178077697754
1772594371864973000,2.94797314453125,-0.6542156338691711,-9.870695114135742,3.3390135765075684
1772594371885236000,2.968236083984375,-0.6057330369949341,-9.841964721679688,3.326443910598755
1772594371905500000,2.9885,-0.5560533404350281,-9.799168586730957,3.2794578075408936
1772594371925764000,3.00876416015625,-0.5186439156532288,-9.740509986877441,3.2276830673217773
1772594371946027000,3.029027099609375,-0.47315409779548645,-9.693224906921387,3.170820951461792
1772594371966291000,3.049291015625,-0.41689038276672363,-9.677063941955566,3.1349079608917236
1772594371986555000,3.069554931640625,-0.3660135865211487,-9.656414031982422,3.0954034328460693
1772594372006818000,3.089818115234375,-0.2876034677028656,-9.647136688232422,3.0639796257019043
1772594372027082000,3.11008203125,-0.23852235078811646,-9.667187690734863,3.0313587188720703
1772594372047346000,3.130345947265625,-0.19393034279346466,-9.65222454071045,2.9984383583068848
1772594372067609000,3.150609130859375,-0.15682020783424377,-9.643245697021484,2.9445688724517822
1772594372087873000,3.170873046875,-0.12599486112594604,-9.641749382019043,2.892195701599121
1772594372108137000,3.191136962890625,-0.1008557453751564,-9.594464302062988,2.8365304470062256
1772594372128400000,3.21139990234375,-0.08230068534612656,-9.582193374633789,2.7934348583221436
1772594372148664000,3.2316640625,-0.059555768966674805,-9.5717191696167,2.7614123821258545
1772594372168928000,3.251927978515625,-0.03950432687997818,-9.559449195861816,2.7596168518066406
1772594372189191000,3.27219091796875,-0.019452888518571854,-9.5902738571167,2.7551276683807373
1772594372209455000,3.292455078125,-0.011971008032560349,-9.617507934570312,2.793135643005371
1772594372229719000,3.312718994140625,-0.01107318326830864,-9.636960983276367,2.8104934692382812
1772594372249982000,3.33298193359375,-0.005686229094862938,-9.65222454071045,2.8413188457489014
1772594372270246000,3.353245849609375,0.002992752008140087,-9.673172950744629,2.8655600547790527
1772594372290510000,3.373510009765625,0.006284779403358698,-9.665990829467773,2.8413188457489014
1772594372310773000,3.39377294921875,0.024839842692017555,-9.654019355773926,2.8446109294891357
1772594372331037000,3.414036865234375,0.034416649490594864,-9.637260437011719,2.82515811920166
1772594372351301000,3.434301025390625,0.044592007994651794,-9.630975723266602,2.8051066398620605
1772594372371564000,3.45456396484375,0.048482585698366165,-9.624092102050781,2.8051066398620605
1772594372391828000,3.474827880859375,0.06374561786651611,-9.616311073303223,2.8092963695526123
1772594372412092000,3.495091796875,0.10025719553232193,-9.634267807006836,2.804807186126709
1772594372452619000,3.535618896484375,0.10145429521799088,-9.62259578704834,2.803011655807495
1772594372472883000,3.555883056640625,0.10893617570400238,-9.619303703308105,2.7934348583221436
1772594372493146000,3.57614599609375,0.10863690078258514,-9.607931137084961,2.7799675464630127
1772594372513410000,3.59641015625,0.10893617570400238,-9.59596061706543,2.7754783630371094
1772594372533674000,3.616674072265625,0.1215057373046875,-9.592668533325195,2.7608139514923096
1772594372553937000,3.63693701171875,0.15801730751991272,-9.59715747833252,2.7638065814971924
1772594372574201000,3.657201171875,0.17507599294185638,-9.585186958312988,2.76350736618042
1772594372594465000,3.677465087890625,0.20470423996448517,-9.581595420837402,2.7778725624084473
1772594372614728000,3.69772802734375,0.233135387301445,-9.574711799621582,2.7940332889556885
1772594372634992000,3.7179921875,0.25019407272338867,-9.568726539611816,2.824559450149536
1772594372675519000,3.75851904296875,0.27892449498176575,-9.552266120910645,2.8592753410339355
1772594372695783000,3.778782958984375,0.29538464546203613,-9.5531644821167,2.8880057334899902
1772594372716047000,3.799047119140625,0.31214404106140137,-9.544784545898438,2.8942906856536865
1772594372736310000,3.81931005859375,0.3292027413845062,-9.55466079711914,2.914341926574707
1772594372756574000,3.839573974609375,0.3471592366695404,-9.545981407165527,2.922422409057617
1772594372776838000,3.859837890625,0.3513490855693817,-9.548376083374023,2.9355905055999756
1772594372797101000,3.88010107421875,0.3606266379356384,-9.545083999633789,2.9421746730804443
1772594372817365000,3.900364990234375,0.3776853084564209,-9.546878814697266,2.9514522552490234
1772594372857892000,3.94089208984375,0.40132805705070496,-9.54658031463623,2.9753942489624023
1772594372878156000,3.961156005859375,0.3935469090938568,-9.541492462158203,2.988262891769409
1772594372898420000,3.981419921875,0.380378782749176,-9.543288230895996,2.9810802936553955
1772594372918683000,4.001682861328125,0.3869628608226776,-9.535805702209473,2.98437237739563
1772594372938947000,4.021947021484375,0.3992331326007843,-9.537900924682617,2.9780876636505127
1772594372959211000,4.0422109375,0.39953240752220154,-9.542988777160645,2.9565398693084717
1772594372979474000,4.062473876953125,0.4016273319721222,-9.544485092163086,2.934692621231079
1772594372999738000,4.082738037109375,0.39474400877952576,-9.547178268432617,2.9206268787384033
1772594373020002000,4.103001953125,0.41030630469322205,-9.551667213439941,2.9047651290893555
1772594373040265000,4.123264892578125,0.41210195422172546,-9.5531644821167,2.896385431289673
1772594373060529000,4.14352880859375,0.42377370595932007,-9.556755065917969,2.8942906856536865
1772594373080793000,4.16379296875,0.419883131980896,-9.559149742126465,2.882319688796997
1772594373101057000,4.18405712890625,0.4354454278945923,-9.560945510864258,2.87992525100708
1772594373121320000,4.20431982421875,0.4282628297805786,-9.549572944641113,2.869450807571411
1772594373141584000,4.224583984375,0.4345476031303406,-9.540594100952148,2.855085611343384
1772594373161848000,4.24484814453125,0.4357447028160095,-9.539097785949707,2.844910144805908
1772594373182111000,4.265111083984375,0.4381389021873474,-9.542689323425293,2.8377275466918945
1772594373202375000,4.285375,0.44083237648010254,-9.547178268432617,2.828749418258667
1772594373222639000,4.30563916015625,0.4471171796321869,-9.560646057128906,2.820668935775757
1772594373242902000,4.325902099609375,0.4330512285232544,-9.560646057128906,2.8092963695526123
1772594373263166000,4.346166015625,0.43664252758026123,-9.560646057128906,2.8131868839263916
1772594373283430000,4.366429931640625,0.42856210470199585,-9.556157112121582,2.80899715423584
1772594373303693000,4.386693115234375,0.39534255862236023,-9.55825138092041,2.80899715423584
1772594373323957000,4.40695703125,0.3959411084651947,-9.566930770874023,2.804208755493164
1772594373344221000,4.427220947265625,0.4016273319721222,-9.573814392089844,2.790741443634033
1772594373364484000,4.447484130859375,0.395043283700943,-9.601346969604492,2.785653591156006
1772594373384748000,4.467748046875,0.3917512595653534,-9.626486778259277,2.775777578353882
1772594373405012000,4.488011962890625,0.3728969097137451,-9.655516624450684,2.782660961151123
1772594373425275000,4.50827490234375,0.35164836049079895,-9.67227554321289,2.786850690841675
1772594373445539000,4.5285390625,0.3298012912273407,-9.684844970703125,2.7766754627227783
1772594373465803000,4.548802978515625,0.3082534670829773,-9.703400611877441,2.7772738933563232
1772594373486066000,4.56906591796875,0.2968810200691223,-9.713874816894531,2.778470993041992
1772594373506330000,4.589330078125,0.2750339210033417,-9.703699111938477,2.7871501445770264
1772594373526594000,4.609593994140625,0.28371289372444153,-9.692625999450684,2.783858060836792
1772594373546857000,4.62985693359375,0.2917933464050293,-9.686041831970215,2.7835588455200195
1772594373567121000,4.650120849609375,0.29209262132644653,-9.66299819946289,2.786850690841675
1772594373587385000,4.670385009765625,0.2950853705406189,-9.644742012023926,2.780266761779785
1772594373607648000,4.69064794921875,0.2744353711605072,-9.633968353271484,2.774580478668213
1772594373627912000,4.710911865234375,0.2528875470161438,-9.636661529541016,2.7712883949279785
1772594373648176000,4.731176025390625,0.2406172752380371,-9.660005569458008,2.772784948348999
1772594373668439000,4.75143896484375,0.22744916379451752,-9.68005657196045,2.7670986652374268
1772594373688703000,4.771702880859375,0.21787235140800476,-9.691728591918945,2.7742812633514404
1772594373708967000,4.791966796875,0.2265513390302658,-9.71237850189209,2.7772738933563232
1772594373729230000,4.81222998046875,0.24510639905929565,-9.709685325622559,2.775777578353882
1772594373749494000,4.832493896484375,0.2546831965446472,-9.702502250671387,2.775179147720337
1772594373769758000,4.852758056640625,0.27084407210350037,-9.68694019317627,2.772784948348999
1772594373790021000,4.873021240234375,0.26066872477531433,-9.679159164428711,2.7676970958709717
1772594373810285000,4.89328515625,0.243011474609375,-9.690531730651855,2.7614123821258545
1772594373830549000,4.913549072265625,0.23373393714427948,-9.70429801940918,2.762310266494751
1772594373850812000,4.93381201171875,0.22954408824443817,-9.718962669372559,2.761113166809082
1772594373871076000,4.954076171875,0.21637597680091858,-9.724349021911621,2.7554268836975098
1772594373891340000,4.974340087890625,0.20440496504306793,-9.746496200561523,2.7566239833831787
1772594373911603000,4.99460302734375,0.19722236692905426,-9.76205825805664,2.753631114959717
1772594373931867000,5.014866943359375,0.1885433793067932,-9.766547203063965,2.743156671524048
1772594373952131000,5.035131103515625,0.17627310752868652,-9.780014991760254,2.744353771209717
1772594373972394000,5.05539404296875,0.1744774430990219,-9.777620315551758,2.7326819896698
1772594373992658000,5.075657958984375,0.1711854189634323,-9.790189743041992,2.730886220932007
1772594374012922000,5.095922119140625,0.1660977452993393,-9.802460670471191,2.7338790893554688
1772594374033185000,5.11618505859375,0.15502455830574036,-9.814431190490723,2.7485435009002686
1772594374053449000,5.136448974609375,0.15083470940589905,-9.813234329223633,2.7449522018432617
1772594374073713000,5.156712890625,0.15562310814857483,-9.816526412963867,2.7455508708953857
1772594374093976000,5.17697607421875,0.1529296338558197,-9.827898979187012,2.7503392696380615
1772594374114240000,5.197239990234375,0.1538274586200714,-9.832088470458984,2.7437551021575928
1772594374134504000,5.21750390625,0.16101007163524628,-9.812934875488281,2.73537540435791
1772594374154767000,5.23776708984375,0.1586158573627472,-9.782708168029785,2.7311856746673584
1772594374175031000,5.258031005859375,0.14754268527030945,-9.765050888061523,2.737769603729248
1772594374195295000,5.278294921875,0.1397615224123001,-9.746196746826172,2.7509377002716064
1772594374215558000,5.298557861328125,0.1331774741411209,-9.720458984375,2.744353771209717
1772594374235822000,5.318822021484375,0.12449848651885986,-9.706991195678711,2.747047185897827
1772594374256086000,5.3390859375,0.11641805619001389,-9.691728591918945,2.757521867752075
1772594374276349000,5.359348876953125,0.11043255031108856,-9.68005657196045,2.756923198699951
1772594374296613000,5.379613037109375,0.1173158809542656,-9.667487144470215,2.768594980239868
1772594374316877000,5.399876953125,0.14754268527030945,-9.664494514465332,2.7694928646087646
1772594374337140000,5.420139892578125,0.16729484498500824,-9.684247016906738,2.765901565551758
1772594374357404000,5.44040380859375,0.203207865357399,-9.699509620666504,2.76350736618042
1772594374377668000,5.460668212890625,0.23074118793010712,-9.711481094360352,2.7688941955566406
1772594374397932000,5.48093212890625,0.2190694510936737,-9.75936508178711,2.7970261573791504
1772594374418195000,5.50119482421875,0.21338322758674622,-9.795876502990723,2.83174204826355
1772594374438459000,5.521458984375,0.23253683745861053,-9.827300071716309,2.8209681510925293
1772594374458723000,5.54172314453125,0.24121582508087158,-9.851541519165039,2.8039095401763916
1772594374478986000,5.561986083984375,0.25677812099456787,-9.821614265441895,2.7940332889556885
1772594374499250000,5.58225,0.2762310206890106,-9.764751434326172,2.7889456748962402
1772594374519514000,5.60251416015625,0.28969839215278625,-9.706393241882324,2.7545289993286133
1772594374539777000,5.622777099609375,0.30526071786880493,-9.658807754516602,2.724302291870117
1772594374560041000,5.643041015625,0.31364041566848755,-9.617807388305664,2.6991631984710693
1772594374580305000,5.663304931640625,0.3181295394897461,-9.580398559570312,2.6973674297332764
1772594374600568000,5.683568115234375,0.34177228808403015,-9.560945510864258,2.6961703300476074
1772594374641096000,5.724095947265625,0.36661213636398315,-9.562142372131348,2.7287914752960205
1772594374661359000,5.744359130859375,0.3669114112854004,-9.571419715881348,2.7455508708953857
1772594374681623000,5.764623046875,0.34835633635520935,-9.571419715881348,2.742558002471924
1772594374701887000,5.784886962890625,0.34087446331977844,-9.57321548461914,2.745850086212158
1772594374722150000,5.80514990234375,0.34087446331977844,-9.572318077087402,2.757521867752075
1772594374742414000,5.8254140625,0.3531447649002075,-9.564536094665527,2.7835588455200195
1772594374762678000,5.845677978515625,0.3630208373069763,-9.559747695922852,2.8113913536071777
1772594374782941000,5.86594091796875,0.3456628620624542,-9.56274127960205,2.83174204826355
1772594374803205000,5.886205078125,0.32860419154167175,-9.558850288391113,2.867655038833618
1772594374823469000,5.906468994140625,0.3043628931045532,-9.552565574645996,2.8778305053710938
1772594374843732000,5.92673193359375,0.28042086958885193,-9.543886184692383,2.8954877853393555
1772594374863996000,5.946995849609375,0.23044191300868988,-9.545382499694824,2.9083564281463623
1772594374884260000,5.967260009765625,0.19273324310779572,-9.550769805908203,2.912546396255493
1772594374904523000,5.98752294921875,0.1637035459280014,-9.549872398376465,2.9287071228027344
1772594374924787000,6.007786865234375,0.14844051003456116,-9.553762435913086,2.918531894683838
1772594374945051000,6.02805078125,0.1529296338558197,-9.54777717590332,2.923021078109741
1772594374965314000,6.04831396484375,0.15921440720558167,-9.542389869689941,2.934692621231079
1772594374985578000,6.068577880859375,0.15592238306999207,-9.533112525939941,2.9550435543060303
1772594375005842000,6.088842041015625,0.14065934717655182,-9.533711433410645,2.9385833740234375
1772594375026105000,6.10910498046875,0.12928688526153564,-9.537601470947266,2.929605007171631
1772594375046369000,6.129369140625,0.11881226301193237,-9.540594100952148,2.930203676223755
1772594375066633000,6.149633056640625,0.10833762586116791,-9.5223388671875,2.958634853363037
1772594375086896000,6.169896240234375,0.08409633487462997,-9.490316390991211,2.996044158935547
1772594375107160000,6.19016015625,0.05776011571288109,-9.460687637329102,3.033752918243408
1772594375127424000,6.210424072265625,0.038307227194309235,-9.437045097351074,3.064877510070801
1772594375147687000,6.23068701171875,0.04100070521235466,-9.429563522338867,3.086425304412842
1772594375167951000,6.250951171875,0.026336219161748886,-9.44303035736084,3.1525650024414062
1772594375188215000,6.271215087890625,0.004788403399288654,-9.458293914794922,3.1977555751800537
1772594375208478000,6.29147802734375,-0.002394201699644327,-9.466673851013184,3.246537446975708
1772594375228742000,6.311741943359375,-0.01885433867573738,-9.473855972290039,3.2869396209716797
1772594375249006000,6.332006103515625,0.002394201699644327,-9.41519832611084,3.3279404640197754
1772594375269269000,6.35226904296875,0.01107318326830864,-9.363123893737793,3.3698389530181885
1772594375289533000,6.372532958984375,0.029029695317149162,-9.346065521240234,3.4287960529327393
1772594375309797000,6.392797119140625,0.01107318326830864,-9.364919662475586,3.4590229988098145
1772594375330060000,6.41306005859375,-0.005686229094862938,-9.385869026184082,3.4485483169555664
1772594375350324000,6.433323974609375,-0.013766659423708916,-9.39903736114502,3.469796895980835
1772594375370588000,6.453587890625,-0.06793547421693802,-9.413103103637695,3.4763808250427246
1772594375390851000,6.47385107421875,-0.07092822343111038,-9.382576942443848,3.4739866256713867
1772594375411115000,6.494114990234375,-0.07571662962436676,-9.371204376220703,3.469796895980835
1772594375431440000,6.51443994140625,-0.09277531504631042,-9.351153373718262,3.49314022064209
1772594375451703000,6.534703125,-0.10265139490365982,-9.338583946228027,3.4739866256713867
1772594375471967000,6.554967041015625,-0.10983400046825409,-9.362226486206055,3.480870008468628
1772594375492231000,6.57523095703125,-0.11791443079710007,-9.359233856201172,3.503016471862793
1772594375512494000,6.595494140625,-0.12000936269760132,-9.344269752502441,3.555988073348999
1772594375532758000,6.615758056640625,-0.12210428714752197,-9.36013126373291,3.5727474689483643
1772594375553022000,6.63602197265625,-0.12659341096878052,-9.397241592407227,3.5907039642333984
1772594375573286000,6.656285888671875,-0.038007952272892,-9.428366661071777,3.6152446269989014
1772594375593549000,6.676549072265625,-0.08948329091072083,-9.473855972290039,3.6837785243988037
1772594375613813000,6.69681298828125,-0.06703764945268631,-9.419986724853516,3.624821424484253
1772594375634077000,6.717076904296875,-0.02454056777060032,-9.35893440246582,3.5835213661193848
1772594375654340000,6.737340087890625,0.02274491637945175,-8.624812126159668,3.627215623855591
1772594375674604000,6.75760400390625,0.05746084079146385,-8.63319206237793,3.680187225341797
1772594375694868000,6.777867919921875,0.09068039059638977,-8.684667587280273,3.7439329624176025
1772594375715131000,6.798130859375,0.12419921159744263,-9.44752025604248,3.7894227504730225
1772594375735395000,6.81839501953125,0.13856442272663116,-9.465177536010742,3.796006679534912
1772594375755659000,6.838658935546875,0.13287819921970367,-9.500492095947266,3.786729335784912
1772594375775922000,6.858921875,0.10504560172557831,-9.51425838470459,3.763984441757202
1772594375796186000,6.87918603515625,0.0802057534456253,-9.520543098449707,3.757101058959961
1772594375816450000,6.899449951171875,0.057161565870046616,-9.50857162475586,3.7550060749053955
1772594375836713000,6.919712890625,0.030526071786880493,-9.510367393493652,3.7304654121398926
1772594375856977000,6.939976806640625,0.017956512048840523,-9.504681587219238,3.6939539909362793
1772594375877241000,6.960240966796875,0.0017956512747332454,-9.484031677246094,3.6706104278564453
1772594375897504000,6.98050390625,-0.004788403399288654,-9.464578628540039,3.6873698234558105
1772594375917768000,7.000767822265625,0.011971008032560349,-9.458293914794922,3.7038300037384033
1772594375938032000,7.0210322265625,0.02274491637945175,-9.473855972290039,3.6712090969085693
1772594375958295000,7.041294921875,0.032620999962091446,-9.492112159729004,3.6658220291137695
1772594375978559000,7.06155908203125,0.028131870552897453,-9.507973670959473,3.655048131942749
1772594375998823000,7.081822998046875,0.0032920273952186108,-9.493608474731445,3.6577415466308594
1772594376019086000,7.102086181640625,0.019153613597154617,-9.476848602294922,3.6622307300567627
1772594376039350000,7.12235009765625,0.059555768966674805,-9.450512886047363,3.6373908519744873
1772594376059614000,7.142614013671875,0.09846154600381851,-9.444228172302246,3.6373908519744873
1772594376079877000,7.162877197265625,0.13706804811954498,-9.449016571044922,3.6652235984802246
1772594376100141000,7.18314111328125,0.15352818369865417,-9.451709747314453,3.6780924797058105
1772594376120405000,7.203405029296875,0.1678933948278427,-9.446023941040039,3.6622307300567627
1772594376140668000,7.22366796875,0.2059013396501541,-9.426570892333984,3.6074633598327637
1772594376160932000,7.24393212890625,0.21607670187950134,-9.444826126098633,3.6161422729492188
1772594376181196000,7.264196044921875,0.19213469326496124,-9.49271011352539,3.6712090969085693
1772594376201459000,7.284458984375,0.16729484498500824,-9.4822359085083,3.6745009422302246
1772594376221723000,7.304722900390625,0.14425064623355865,-9.46727180480957,3.7107133865356445
1772594376241987000,7.324987060546875,0.14335282146930695,-9.474454879760742,3.7574002742767334
1772594376262250000,7.34525,0.14574703574180603,-9.448118209838867,3.779845952987671
1772594376282514000,7.365513916015625,0.14814123511314392,-9.414299964904785,3.790919065475464
1772594376302778000,7.385778076171875,0.14903905987739563,-9.400533676147461,3.777451753616333
1772594376323041000,7.406041015625,0.13527239859104156,-9.41400146484375,3.7654807567596436
1772594376343305000,7.426304931640625,0.1430535465478897,-9.428665161132812,3.7475242614746094
1772594376363569000,7.44656884765625,0.11013327538967133,-9.411906242370605,3.7726633548736572
1772594376383832000,7.46683203125,0.0802057534456253,-9.385271072387695,3.7831380367279053
1772594376404096000,7.487095947265625,0.08798690885305405,-9.3427734375,3.767575740814209
1772594376424360000,7.50735986328125,0.09906009584665298,-9.274239540100098,3.7235822677612305
1772594376444623000,7.527623046875,0.09846154600381851,-9.237129211425781,3.7340567111968994
1772594376464887000,7.547886962890625,0.10983400046825409,-9.247304916381836,3.8148610591888428
1772594376485151000,7.56815087890625,0.11222820729017258,-9.237728118896484,3.8848915100097656
1772594376505414000,7.588413818359375,0.11851298063993454,-9.239224433898926,4.611232280731201
1772594376525678000,7.608677978515625,0.11372458189725876,-9.305065155029297,4.618414878845215
1772594376545942000,7.62894189453125,0.07990647852420807,-9.336488723754883,4.598662853240967
1772594376566205000,7.649204833984375,0.06165069341659546,-9.296086311340332,4.543596267700195
1772594376586469000,7.66946923828125,0.03860650211572647,-9.322722434997559,4.524742126464844
1772594376606733000,7.689733154296875,0.013168109580874443,-9.397241592407227,4.475062370300293
1772594376626996000,7.709995849609375,-0.006883329711854458,-9.385869026184082,4.424484729766846
1772594376647260000,7.730260009765625,0.006284779403358698,-9.337387084960938,4.443638324737549
1772594376667524000,7.750524169921875,0.019452888518571854,-9.299677848815918,4.42897367477417
1772594376687787000,7.770787109375,-0.008678981103003025,-9.261370658874512,4.448726177215576
1772594376708051000,7.791051025390625,0.014365210197865963,-9.19163990020752,4.459499835968018
1772594376728315000,7.81131494140625,0.03860650211572647,-9.133280754089355,4.473865032196045
1772594376748578000,7.831578125,0.04967968538403511,-9.109638214111328,4.457704067230225
1772594376768842000,7.851842041015625,0.06494271755218506,-9.112031936645508,4.439149379730225
1772594376789106000,7.87210595703125,0.07900865375995636,-9.124302864074707,4.413112163543701
1772594376809369000,7.892369140625,0.0802057534456253,-9.145252227783203,4.385878086090088
1772594376829633000,7.912633056640625,0.09367313981056213,-9.153332710266113,4.380191802978516
1772594376849897000,7.93289697265625,0.09546878933906555,-9.1539306640625,4.3733086585998535
1772594376870161000,7.953160888671875,0.09487023949623108,-9.151237487792969,4.373907089233398
1772594376890424000,7.973424072265625,0.08828619122505188,-9.133280754089355,4.373907089233398
1772594376910688000,7.99368798828125,0.10624270141124725,-9.115324020385742,4.373907089233398
1772594376930952000,8.013951904296874,0.11252748221158981,-9.097966194152832,4.361936092376709
1772594376951215000,8.034215087890624,0.1364694982767105,-9.0767183303833,4.350862979888916
1772594376971479000,8.05447900390625,0.15143325924873352,-9.059659004211426,4.349067211151123
1772594376991743000,8.074742919921874,0.13826514780521393,-9.048286437988281,4.345176696777344
1772594377012006000,8.095005859375,0.13856442272663116,-9.051578521728516,4.343081951141357
1772594377032270000,8.11527001953125,0.13048399984836578,-9.076119422912598,4.337096214294434
1772594377052534000,8.135533935546874,0.1256955862045288,-9.082404136657715,4.323628902435303
1772594377072797000,8.155796875,0.12838906049728394,-9.090484619140625,4.324526786804199
1772594377093061000,8.17606103515625,0.13048399984836578,-9.10305404663086,4.324227333068848
1772594377113325000,8.196324951171874,0.12689268589019775,-9.1045503616333,4.327818870544434
1772594377133588000,8.216587890625,0.13676877319812775,-9.11921501159668,4.329614639282227
1772594377153852000,8.236851806640624,0.14185644686222076,-9.124003410339355,4.3266215324401855
1772594377174116000,8.2571162109375,0.13527239859104156,-9.132981300354004,4.32991361618042
1772594377194379000,8.27737890625,0.13347674906253815,-9.144952774047852,4.315847873687744
1772594377214643000,8.297642822265624,0.14425064623355865,-9.160215377807617,4.311657905578613
1772594377234907000,8.317906982421874,0.1496376097202301,-9.169194221496582,4.320336818695068
1772594377255170000,8.338170166015624,0.1553238332271576,-9.167098999023438,4.306570529937744
1772594377275434000,8.35843408203125,0.15741875767707825,-9.173683166503906,4.304774761199951
1772594377295698000,8.378697998046874,0.1445499211549759,-9.185355186462402,4.300285339355469
1772594377315961000,8.398961181640624,0.15263035893440247,-9.188647270202637,4.290110111236572
1772594377336225000,8.41922509765625,0.16190789639949799,-9.196128845214844,4.293102741241455
1772594377356489000,8.439489013671874,0.15143325924873352,-9.198822021484375,4.288913249969482
1772594377376752000,8.459752197265624,0.14933833479881287,-9.200018882751465,4.285621166229248
1772594377397016000,8.48001611328125,0.15981295704841614,-9.216778755187988,4.288314342498779
1772594377417280000,8.500280029296874,0.1553238332271576,-9.219172477722168,4.277540683746338
1772594377437543000,8.52054296875,0.15113398432731628,-9.232041358947754,4.272153854370117
1772594377457807000,8.54080712890625,0.1454477459192276,-9.23682975769043,4.269759654998779
1772594377478071000,8.561071044921874,0.1355716735124588,-9.236531257629395,4.274847030639648
1772594377498334000,8.581333984375,0.1379658728837967,-9.236531257629395,4.253299236297607
1772594377518598000,8.601597900390624,0.1445499211549759,-9.244611740112305,4.2170867919921875
1772594377538862000,8.621862060546874,0.142155721783638,-9.236531257629395,4.199429988861084
1772594377559125000,8.642125,0.17298106849193573,-9.238326072692871,4.16920280456543
1772594377579389000,8.662388916015624,0.16490064561367035,-9.234735488891602,4.178480625152588
1772594377599653000,8.682653076171874,0.1280897855758667,-9.237728118896484,4.211699962615967
1772594377619916000,8.702916015625,0.08918401598930359,-9.24491024017334,4.22277307510376
1772594377640180000,8.723179931640624,0.05835866555571556,-9.245808601379395,4.2311530113220215
1772594377660444000,8.74344384765625,0.039205051958560944,-9.232640266418457,4.231452465057373
1772594377680707000,8.76370703125,0.018555063754320145,-9.220669746398926,4.241328239440918
1772594377700971000,8.783970947265624,0.03411737456917763,-9.246406555175781,4.219780445098877
1772594377721235000,8.80423486328125,0.039803601801395416,-9.30386734008789,4.196436882019043
1772594377741498000,8.824498046875,0.07182604819536209,-9.351452827453613,4.215889930725098
1772594377761762000,8.844761962890624,0.0999579206109047,-9.424775123596191,4.250606060028076
1772594377782026000,8.86502587890625,0.142155721783638,-10.26663589477539,4.2853217124938965
1772594377802289000,8.885288818359374,0.1646013706922531,-10.318111419677734,4.3068695068359375
1772594377822553000,8.905552978515624,0.1792658567428589,-10.381856918334961,4.361936092376709
1772594377842817000,8.925817138671874,0.18704700469970703,-11.49875259399414,4.405630588531494
1772594377863080000,8.946079833984374,0.2139817774295807,-12.255021095275879,4.477157115936279
1772594377883344000,8.96634375,0.2472013235092163,-12.310087203979492,5.2480902671813965
1772594377903608000,8.986608154296874,0.2882020175457001,-12.374431610107422,5.295974254608154
1772594377923871000,9.00687109375,0.35015198588371277,-12.436381340026855,5.3220109939575195
1772594377944135000,9.027135009765624,1.1988965272903442,-12.501025199890137,5.317522048950195
1772594377964399000,9.047399169921874,1.2333132028579712,-13.25639533996582,5.309142112731934
1772594377984662000,9.067662109375,2.128145933151245,-13.274651527404785,5.28460168838501
1772594378004926000,9.087926025390624,3.002927541732788,-13.292608261108398,5.267542839050293
1772594378025190000,9.10818994140625,3.033154249191284,-13.263578414916992,5.262455463409424
1772594378045453000,9.128453125,2.1320366859436035,-12.024579048156738,5.294178485870361
1772594378065717000,9.148717041015624,0.9017162322998047,-10.768221855163574,6.8034234046936035
1772594378085981000,9.16898095703125,-0.04728548228740692,-9.357438087463379,8.239047050476074
1772594378106244000,9.189244140625,-0.12838906049728394,-8.003816604614258,9.345168113708496
1772594378126508000,9.209508056640624,-0.9675567746162415,-6.813299655914307,9.420884132385254
1772594378146772000,9.22977197265625,-0.9630676507949829,-5.711069107055664,9.471162796020508
1772594378167036000,9.250035888671874,-0.9181763529777527,-4.683657169342041,8.706214904785156
1772594378187299000,9.270299072265624,-0.024839842692017555,-3.794809579849243,6.852205276489258
1772594378227827000,9.310826904296874,1.478419542312622,-2.9325978755950928,3.7514147758483887
1772594378248090000,9.331090087890624,2.8646624088287354,-2.8763339519500732,2.9607295989990234
1772594378268354000,9.35135400390625,4.116231441497803,-2.8419175148010254,2.876034736633301
1772594378288618000,9.371617919921874,4.979640483856201,-2.8260557651519775,2.053027868270874
1772594378308881000,9.391880859375,5.976226806640625,-2.87064790725708,1.2779051065444946
1772594378329145000,9.41214501953125,6.866869926452637,-2.950554370880127,0.4554968774318695
1772594378349409000,9.432408935546874,7.788637638092041,-3.6721067428588867,0.42706573009490967
1772594378389936000,9.47293603515625,7.896376609802246,-2.841019630432129,1.6546926498413086
1772594378410200000,9.493199951171874,8.804078102111816,-2.8006174564361572,1.7307085990905762
1772594378430463000,9.513462890625,9.710882186889648,-2.7817630767822266,2.5522189140319824
1772594378450727000,9.533726806640624,9.745298385620117,-2.742558002471924,2.5755624771118164
1772594378470991000,9.5539912109375,9.757569313049316,-1.9372084140777588,2.6216509342193604
1772594378491254000,9.57425390625,9.778219223022461,-0.9247604012489319,2.670732021331787
1772594378511518000,9.59451806640625,9.702202796936035,-0.07751227915287018,2.6366145610809326
1772594378531782000,9.614781982421874,8.696338653564453,0.646434485912323,2.617161750793457
1772594378552045000,9.635045166015624,7.945756912231445,0.6994061470031738,2.607884168624878
1772594378572309000,9.65530908203125,7.910442352294922,1.488594889640808,2.614168882369995
1772594378592573000,9.675572998046874,7.924807548522949,1.5753847360610962,2.6192567348480225
1772594378612836000,9.695836181640624,7.932588577270508,2.334047317504883,2.6572647094726562
1772594378633100000,9.71610009765625,7.984961986541748,2.3511061668395996,2.728492021560669
1772594378653364000,9.736364013671874,8.066365242004395,2.3585879802703857,2.7706899642944336
1772594378673627000,9.756626953125,8.101080894470215,2.4328081607818604,2.805405855178833
1772594378693891000,9.77689111328125,8.132803916931152,3.2013468742370605,2.8296470642089844
1772594378714155000,9.797155029296874,8.131607055664062,3.237259864807129,2.848501443862915
1772594378734418000,9.81741796875,8.120234489440918,3.3028011322021484,2.836829662322998
1772594378754682000,9.83768212890625,8.174103736877441,3.3737294673919678,2.8215668201446533
1772594378774946000,9.857946044921874,8.918700218200684,3.395277261734009,2.816478967666626
1772594378795209000,9.878208984375,8.934861183166504,3.445854902267456,2.814683437347412
1772594378815473000,9.898472900390624,8.949825286865234,3.5173816680908203,2.751835584640503
1772594378835737000,9.918737060546874,8.921992301940918,3.588010549545288,1.979705572128296
1772594378856000000,9.939,8.868721961975098,4.4397478103637695,1.9297266006469727
1772594378876264000,9.959263916015624,8.794201850891113,4.511573791503906,1.8818424940109253
1772594378896528000,9.97952783203125,7.955932140350342,4.585195541381836,1.8920178413391113
1772594378916791000,9.999791015625,7.940370082855225,5.279214859008789,1.9264345169067383
1772594378937055000,10.020054931640624,7.951143741607666,5.284003257751465,1.9719244241714478
1772594378957319000,10.04031884765625,8.774150848388672,5.27532434463501,1.9850925207138062
1772594378977582000,10.06058203125,8.810961723327637,5.283105373382568,1.9375077486038208
1772594378997846000,10.080845947265624,8.778639793395996,5.298069000244141,1.193509578704834
1772594379018110000,10.10110986328125,8.004714012145996,5.306747913360596,1.1890203952789307
1772594379038373000,10.121373046875,7.9945387840271,5.324106216430664,1.2509703636169434
1772594379058637000,10.141636962890624,8.028356552124023,5.3330841064453125,1.326986312866211
1772594379078901000,10.16190087890625,8.046313285827637,5.34625244140625,2.0138227939605713
1772594379099164000,10.182163818359374,8.061875343322754,5.3779754638671875,1.9602526426315308
1772594379119428000,10.202427978515624,8.083124160766602,5.405209541320801,1.9000983238220215
1772594379139692000,10.222692138671874,8.125322341918945,5.439326763153076,0.9271546006202698
1772594379159955000,10.242954833984374,8.170811653137207,5.462371349334717,0.8732850551605225
1772594379180219000,10.263218994140624,8.17380428314209,5.484218120574951,0.8212111592292786
1772594379200483000,10.283483154296874,8.168717384338379,5.501875400543213,0.7700351476669312
1772594379220746000,10.30374609375,8.221389770507812,5.532102108001709,0.729034423828125
1772594379241010000,10.324010009765624,8.296208381652832,5.539584159851074,0.6862380504608154
1772594379261274000,10.344274169921874,8.342596054077148,5.536890506744385,0.6575076580047607
1772594379281537000,10.364537109375,8.3213472366333,5.534795761108398,0.6646902561187744
1772594379301801000,10.384801025390624,8.26239013671875,5.549160957336426,0.6542156338691711
1772594379322065000,10.40506494140625,8.21540355682373,5.548263072967529,0.6596025824546814
1772594379342328000,10.425328125,8.175899505615234,5.547664642333984,0.6377554535865784
1772594379362592000,10.445592041015624,8.158541679382324,5.541978359222412,0.6123170852661133
1772594379382856000,10.46585595703125,8.160337448120117,5.547664642333984,0.5716156363487244
1772594379403119000,10.486119140625,8.151957511901855,5.55245304107666,0.5345055460929871
1772594379423383000,10.506383056640624,8.158242225646973,5.528810501098633,0.48153382539749146
1772594379443647000,10.52664697265625,8.208520889282227,5.471349239349365,0.43694180250167847
1772594379463911000,10.546910888671874,8.288725852966309,5.413888454437256,0.39205053448677063
1772594379484174000,10.567174072265624,9.106645584106445,5.358522891998291,0.3429693877696991
1772594379504438000,10.58743798828125,9.143755912780762,5.344456672668457,0.34416648745536804
1772594379524702000,10.607701904296874,9.132981300354004,5.329792022705078,0.3489548861980438
1772594379565229000,10.64822900390625,8.111255645751953,5.3330841064453125,0.3809773325920105
1772594379585493000,10.668492919921874,8.050204277038574,5.344157695770264,0.37229835987091064
1772594379605756000,10.688755859375,7.997232437133789,5.367201805114746,0.3612251877784729
1772594379626020000,10.70902001953125,7.942464828491211,5.3704938888549805,0.31783026456832886
1772594379646284000,10.729283935546874,7.956231594085693,5.357325553894043,0.3130418658256531
1772594379666547000,10.749546875,8.009502410888672,5.340865612030029,0.353743314743042
1772594379686811000,10.769810791015624,8.046612739562988,5.321412563323975,0.3519476354122162
1772594379707075000,10.790074951171874,8.081328392028809,5.305551052093506,0.28880056738853455
1772594379727338000,10.810337890625,8.134599685668945,5.2893900871276855,-0.4761468768119812
1772594379747602000,10.830601806640624,8.880692481994629,5.270236492156982,-0.4638765752315521
