time,seconds_elapsed,z,y,x
1772594255334565000,0.335565185546875,4.512471675872803,-5.617694854736328,3.621828556060791
1772594255354828000,0.355828125,4.501099109649658,-5.648221015930176,3.651456832885742
1772594255375092000,0.376092041015625,4.471171855926514,-5.6781487464904785,3.65385103225708
1772594255395356000,0.39635595703125,4.390068054199219,-5.703587055206299,3.6197338104248047
1772594255415619000,0.416619140625,3.6454713344573975,-5.762843608856201,3.533243179321289
1772594255456147000,0.45714697265625,3.6278140544891357,-6.638822078704834,2.5830442905426025
1772594255476410000,0.47741015625,3.544914960861206,-6.652588844299316,2.578854560852051
1772594255496674000,0.497674072265625,2.372354507446289,-5.703287601470947,2.5085248947143555
1772594255516938000,0.51793798828125,1.557428240776062,-4.466084003448486,1.6714520454406738
1772594255537201000,0.538200927734375,1.4727333784103394,-3.6909611225128174,1.633743405342102
1772594255557465000,0.558465087890625,-1.8731635808944702,-3.7642836570739746,1.6190788745880127
1772594255577729000,0.57872900390625,-1.8707693815231323,-7.584531784057617,1.6687586307525635
1772594255597992000,0.598991943359375,-0.760757565498352,-14.149731636047363,3.260004997253418
1772594255618256000,0.619255859375,-0.8101379871368408,-16.724994659423828,5.184643745422363
1772594255638520000,0.63952001953125,-0.790086567401886,-15.700277328491211,5.970241069793701
1772594255658783000,0.659782958984375,-0.7445967197418213,-13.116035461425781,5.89512300491333
1772594255679047000,0.680046875,-0.756866991519928,-10.945392608642578,4.788702487945557
1772594255699311000,0.70031103515625,-0.8259995579719543,-9.825803756713867,4.740818500518799
1772594255719575000,0.720574951171875,-0.7745242714881897,-8.857648849487305,4.665401458740234
1772594255739838000,0.740837890625,-0.8131307363510132,-8.81395435333252,3.585017681121826
1772594255760102000,0.761101806640625,-0.7924807667732239,-8.046313285827637,2.8131868839263916
1772594255780366000,0.781365966796875,-0.761954665184021,-8.087912559509277,2.011129379272461
1772594255800629000,0.80162890625,-0.7128735780715942,-9.66150188446045,1.9940707683563232
1772594255820893000,0.821892822265625,1.071405291557312,-13.053486824035645,2.0581157207489014
1772594255841157000,0.8421572265625,1.1566987037658691,-15.392621994018555,3.1540615558624268
1772594255861420000,0.862419921875,1.2069768905639648,-17.825729370117188,3.9058408737182617
1772594255881684000,0.88268408203125,1.1893197298049927,-20.69428253173828,3.965097188949585
1772594255901948000,0.902947998046875,-0.333991140127182,-21.56966209411621,4.001010417938232
1772594255922211000,0.923211181640625,-1.8408418893814087,-19.680038452148438,4.010287761688232
1772594255942475000,0.94347509765625,-1.9153614044189453,-17.020679473876953,4.008791446685791
1772594255962739000,0.963739013671875,-1.9162591695785522,-14.052467346191406,3.999513864517212
1772594255983002000,0.984002197265625,-1.854009985923767,-11.083657264709473,3.9384617805480957
1772594256003266000,1.00426611328125,-1.092953085899353,-8.086116790771484,2.6506805419921875
1772594256023530000,1.024530029296875,-1.1342530250549316,-5.344756126403809,1.634641170501709
1772594256043793000,1.04479296875,-2.0359692573547363,-3.5101990699768066,1.5601216554641724
1772594256064057000,1.06505712890625,-2.021005392074585,-2.653972625732422,1.502660870552063
1772594256084321000,1.085321044921875,-0.9675567746162415,-2.59740948677063,1.4814122915267944
1772594256104584000,1.105583984375,0.10295066982507706,-1.813009262084961,1.4383167028427124
1772594256124848000,1.12584814453125,0.18495208024978638,-1.778592586517334,0.47225627303123474
1772594256145112000,1.146112060546875,0.23672668635845184,-1.7265187501907349,0.4031237065792084
1772594256165375000,1.166375,0.25348609685897827,-1.679532527923584,-0.4306570291519165
1772594256185639000,1.186638916015625,0.23762452602386475,-1.613093376159668,-0.4578910768032074
1772594256205903000,1.206903076171875,0.181959331035614,-1.5511434078216553,-0.4189853072166443
1772594256226166000,1.227166015625,-0.812831461429596,-1.4972739219665527,0.5701192617416382
1772594256246430000,1.247429931640625,-2.022801160812378,-1.4826093912124634,0.6248866319656372
1772594256266694000,1.26769384765625,-4.460996150970459,-2.8517935276031494,0.6757634282112122
1772594256286957000,1.28795703125,-3.6005799770355225,-5.726631164550781,1.931222915649414
1772594256307221000,1.308220947265625,-1.2258312702178955,-10.994174003601074,3.7723641395568848
1772594256327485000,1.32848486328125,-1.6376339197158813,-17.075746536254883,3.878307580947876
1772594256347748000,1.348748046875,-1.6540940999984741,-22.11553955078125,4.563348293304443
1772594256368012000,1.369011962890625,-1.5693992376327515,-25.07088279724121,3.7723641395568848
1772594256388276000,1.38927587890625,-1.5625158548355103,-26.06328010559082,3.6921582221984863
1772594256408539000,1.409538818359375,-1.656787633895874,-25.05202865600586,3.6879684925079346
1772594256428803000,1.429802978515625,-3.325246810913086,-22.917299270629883,3.7169981002807617
1772594256449067000,1.45006689453125,-4.356549263000488,-19.55374526977539,3.6798880100250244
1772594256469330000,1.470329833984375,-4.322132587432861,-16.246753692626953,2.7257986068725586
1772594256489594000,1.490593994140625,-3.530250310897827,-12.767080307006836,1.7651251554489136
1772594256509858000,1.510858154296875,-2.66444730758667,-9.22515869140625,1.0121487379074097
1772594256530121000,1.531120849609375,-2.5884313583374023,-6.37186861038208,1.0106524229049683
1772594256550385000,1.551385009765625,-2.5929205417633057,-5.114912509918213,1.0310031175613403
1772594256570649000,1.571649169921875,-2.5231893062591553,-4.216488361358643,1.8531121015548706
1772594256590912000,1.591912109375,-1.0322002172470093,-4.174290657043457,1.9384055137634277
1772594256611176000,1.612176025390625,0.2463034987449646,-3.1890766620635986,2.0090343952178955
1772594256631440000,1.63243994140625,0.2876034677028656,-2.364872694015503,1.9958664178848267
1772594256651703000,1.652703125,0.1942296177148819,-1.5616180896759033,0.993593692779541
1772594256671967000,1.672967041015625,-0.5021837949752808,-1.5083470344543457,0.9044097065925598
1772594256692231000,1.69323095703125,-0.44592007994651794,-0.7751228213310242,0.17567454278469086
1772594256712494000,1.713494140625,0.2917933464050293,-0.7712322473526001,0.1678933948278427
1772594256732758000,1.733758056640625,0.35733461380004883,-0.7389104962348938,0.1900397539138794
1772594256753022000,1.75402197265625,0.3869628608226776,-0.712574303150177,0.2247556895017624
1772594256773285000,1.77428515625,0.3462614119052887,-0.684442400932312,0.23074118793010712
1772594256793549000,1.794549072265625,-0.6392518281936646,-0.689530074596405,0.1726817935705185
1772594256813813000,1.81481298828125,-7.304709434509277,-3.282749891281128,-0.8786720037460327
1772594256834076000,1.835075927734375,-6.0977325439453125,-7.5581955909729,0.21667525172233582
1772594256854340000,1.855340087890625,-1.2755109071731567,-14.363414764404297,2.1921908855438232
1772594256874604000,1.87560400390625,-3.977367639541626,-20.259735107421875,6.273706436157227
1772594256894867000,1.895866943359375,-3.019986152648926,-24.62107276916504,6.316502571105957
1772594256915131000,1.916130859375,-1.865382432937622,-25.524883270263672,4.611831188201904
1772594256935395000,1.93639501953125,-1.8285715579986572,-25.437496185302734,3.700537919998169
1772594256955658000,1.956657958984375,-2.765901565551758,-23.878570556640625,3.709815502166748
1772594256975922000,1.976921875,-3.990834951400757,-21.374235153198242,3.720888614654541
1772594256996186000,1.99718603515625,-4.019266128540039,-17.966089248657227,3.669712543487549
1772594257016450000,2.017449951171875,-3.9519290924072266,-14.274529457092285,2.895188331604004
1772594257036713000,2.037712890625,-2.2589292526245117,-10.631752014160156,2.8338370323181152
1772594257056977000,2.057976806640625,-1.45537531375885,-7.407959461212158,1.6762404441833496
1772594257077241000,2.078240966796875,-1.4443022012710571,-5.237615585327148,0.5147533416748047
1772594257097504000,2.09850390625,-1.5200188159942627,-3.7609915733337402,-0.4554968774318695
1772594257117768000,2.118767822265625,-2.3915083408355713,-2.9897594451904297,-0.4854243993759155
1772594257138032000,2.1390322265625,-1.2375030517578125,-2.9553427696228027,-0.44352585077285767
1772594257158295000,2.159294921875,-0.19931729137897491,-2.9194297790527344,0.6320692300796509
1772594257178559000,2.17955908203125,-0.166995570063591,-2.1080946922302246,0.7026981711387634
1772594257198823000,2.199822998046875,-0.18584990501403809,-2.0482394695281982,0.7475894689559937
1772594257219086000,2.220086181640625,-0.23403321206569672,-1.1432312726974487,0.7523778676986694
1772594257239350000,2.24035009765625,-0.25438392162323,-1.1076176166534424,0.7323264479637146
1772594257259614000,2.260614013671875,-0.27473464608192444,-1.0594342947006226,0.7383119463920593
1772594257279877000,2.280877197265625,-0.32291796803474426,-1.0444705486297607,0.7930793166160583
1772594257300141000,2.30114111328125,-1.1746551990509033,-1.058835744857788,0.8616133332252502
1772594257320405000,2.321405029296875,-1.2333132028579712,-1.12467622756958,0.89573073387146
1772594257340668000,2.34166796875,-2.392106771469116,-2.598008155822754,0.8224082589149475
1772594257360932000,2.36193212890625,-3.6245222091674805,-5.232228755950928,-0.10624270141124725
1772594257381196000,2.382196044921875,-3.588608980178833,-10.837054252624512,1.1025298833847046
1772594257401459000,2.402458984375,-2.4477720260620117,-16.91204261779785,3.570054054260254
1772594257421723000,2.422722900390625,-3.9258923530578613,-22.017377853393555,3.597886562347412
1772594257441987000,2.442987060546875,-3.9456443786621094,-24.696489334106445,2.0632033348083496
1772594257462250000,2.46325,-2.7102363109588623,-24.73419761657715,0.9370306730270386
1772594257482514000,2.483513916015625,-2.6575639247894287,-23.137266159057617,0.052373163402080536
1772594257502778000,2.503778076171875,-2.726097822189331,-20.03019142150879,-1.1468225717544556
1772594257523041000,2.524041015625,-2.7853543758392334,-18.373104095458984,-2.0039467811584473
1772594257543305000,2.544304931640625,-3.5514988899230957,-16.02259635925293,-1.9075802564620972
1772594257563569000,2.56456884765625,-3.5721490383148193,-12.412439346313477,0.8454524874687195
1772594257583832000,2.58483203125,-3.584120035171509,-9.395146369934082,1.7414824962615967
1772594257604096000,2.605095947265625,-3.591003179550171,-6.759130477905273,1.8145055770874023
1772594257624360000,2.62535986328125,-3.6209309101104736,-5.493196487426758,1.8623896837234497
1772594257644623000,2.645623046875,-3.5760395526885986,-4.317643642425537,1.8926163911819458
1772594257664887000,2.665886962890625,-2.4450783729553223,-3.582324266433716,1.8567034006118774
1772594257685151000,2.68615087890625,-1.1198878288269043,-3.5161845684051514,1.8249802589416504
1772594257705414000,2.706413818359375,-0.19243396818637848,-2.627636432647705,1.0618284940719604
1772594257725678000,2.726677978515625,-0.16729484498500824,-1.8785505294799805,0.3007715940475464
1772594257745942000,2.74694189453125,-0.14754268527030945,-1.830666422843933,-0.43993455171585083
1772594257766205000,2.767204833984375,-0.13108254969120026,-1.7678186893463135,-0.44861355423927307
1772594257786469000,2.78746923828125,-0.1445499211549759,-1.036988615989685,-0.38157588243484497
1772594257806733000,2.807733154296875,-0.12659341096878052,-1.040579915046692,0.5410895943641663
1772594257826996000,2.827995849609375,-0.13946224749088287,-1.0444705486297607,1.3419500589370728
1772594257847260000,2.848260009765625,-1.0007762908935547,-1.062427043914795,1.3584102392196655
1772594257867524000,2.868524169921875,-4.1862616539001465,-2.30830979347229,0.44173020124435425
1772594257887787000,2.888787109375,-5.042488098144531,-6.186916351318359,0.5201402902603149
1772594257908051000,2.909051025390625,-5.894824028015137,-11.741464614868164,3.3913867473602295
1772594257928315000,2.92931494140625,-4.871302604675293,-17.952024459838867,4.429572582244873
1772594257948578000,2.949578125,-3.558980941772461,-23.17766761779785,5.324405193328857
1772594257968842000,2.969842041015625,-3.4856584072113037,-24.384944915771484,5.227440357208252
1772594257989106000,2.99010595703125,-3.4192192554473877,-24.4370174407959,3.3168671131134033
1772594258009369000,3.010369140625,-3.4087445735931396,-24.396915435791016,1.7872716188430786
1772594258029633000,3.030633056640625,-4.546289920806885,-24.357709884643555,1.7540520429611206
1772594258049897000,3.05089697265625,-4.605546474456787,-20.46114730834961,0.8571242094039917
1772594258070160000,3.071159912109375,-5.313032627105713,-16.48318099975586,0.8083423376083374
1772594258090424000,3.091424072265625,-4.181173801422119,-12.132018089294434,0.8236053586006165
1772594258110688000,3.11168798828125,-3.0517094135284424,-8.391377449035645,0.871489405632019
1772594258130951000,3.131950927734375,-2.9867665767669678,-5.957372188568115,0.9085995554924011
1772594258151215000,3.152215087890625,-2.940678119659424,-4.654627323150635,1.8956091403961182
1772594258171479000,3.17247900390625,-2.8918964862823486,-4.604947566986084,1.974617838859558
1772594258191742000,3.192741943359375,-1.7387889623641968,-3.693056106567383,2.8284499645233154
1772594258212006000,3.213005859375,-1.6516999006271362,-3.6161422729492188,2.838026762008667
1772594258232270000,3.23327001953125,-0.8152256608009338,-2.7263972759246826,2.780266761779785
1772594258252533000,3.253532958984375,-0.7903858423233032,-1.9593547582626343,1.8809447288513184
1772594258272797000,3.273796875,-0.8212111592292786,-1.8989012241363525,1.0911574363708496
1772594258293061000,3.29406103515625,-0.8661024570465088,-1.1854290962219238,1.0561422109603882
1772594258313325000,3.314324951171875,-0.8514379858970642,-1.1755530834197998,1.0513538122177124
1772594258333588000,3.334587890625,-0.7721300721168518,-1.1641805171966553,1.0528502464294434
1772594258353852000,3.354851806640625,0.07781155407428741,-1.1555016040802002,0.9828197956085205
1772594258374116000,3.3751162109375,0.10354922711849213,-1.1617863178253174,0.14814123511314392
1772594258394379000,3.39537890625,0.04728548228740692,-1.183334231376648,0.08080431073904037
1772594258414643000,3.415642822265625,-1.5289970636367798,-2.2661118507385254,-1.5029600858688354
1772594258434907000,3.435906982421875,-4.423886299133301,-4.842572212219238,-1.5050550699234009
1772594258455170000,3.456170166015625,-4.553771495819092,-9.710283279418945,-1.4598644971847534
1772594258475434000,3.47643408203125,-4.492120742797852,-15.85919189453125,-1.4329297542572021
1772594258495698000,3.496697998046875,-3.5371336936950684,-21.414039611816406,1.258452296257019
1772594258515961000,3.516961181640625,-3.447052001953125,-24.981698989868164,3.9205052852630615
1772594258536225000,3.53722509765625,-2.5755624771118164,-25.922321319580078,3.961505889892578
1772594258556511000,3.557510986328125,-2.530371904373169,-25.857378005981445,2.3639748096466064
1772594258576775000,3.57777490234375,-2.536058187484741,-23.070528030395508,0.38995561003685
1772594258597038000,3.5980380859375,-2.6162638664245605,-20.46354103088379,-0.7260416746139526
1772594258617302000,3.618302001953125,-3.602674961090088,-16.795024871826172,-0.6536170840263367
1772594258637566000,3.63856591796875,-3.6361937522888184,-12.961609840393066,0.44352585077285767
1772594258657829000,3.6588291015625,-3.690661907196045,-9.570821762084961,0.5276222229003906
1772594258678093000,3.679093017578125,-4.7818193435668945,-7.056610107421875,1.3006501197814941
1772594258698357000,3.69935693359375,-4.799177169799805,-6.027402877807617,2.1814169883728027
1772594258718620000,3.719619873046875,-3.4449570178985596,-5.287295341491699,2.2409727573394775
1772594258738884000,3.739884033203125,-1.415871024131775,-4.335300922393799,3.200449228286743
1772594258759148000,3.76014794921875,-0.42108023166656494,-3.401561975479126,3.222595453262329
1772594258779411000,3.780410888671875,-0.47135844826698303,-3.3255462646484375,3.1441853046417236
1772594258799675000,3.8006748046875,-1.3135188817977905,-2.3813328742980957,1.853710651397705
1772594258819939000,3.82093896484375,-1.2731167078018188,-1.5224130153656006,0.9017162322998047
1772594258840202000,3.841201904296875,-1.1884218454360962,-1.458966612815857,0.8185176849365234
1772594258860466000,3.8614658203125,-0.1562216579914093,-1.3949217796325684,0.7670423984527588
1772594258880730000,3.881730224609375,-0.08409633487462997,-1.3311761617660522,0.6910264492034912
1772594258900993000,3.901992919921875,-0.02454056777060032,-1.293766736984253,-0.09217676520347595
1772594258921257000,3.922257080078125,0.005087678786367178,-1.2602479457855225,-0.17507599294185638
1772594258941521000,3.94252099609375,-0.032022446393966675,-1.27191960811615,-1.058536410331726
1772594258961784000,3.9627841796875,-1.3299790620803833,-2.0994155406951904,-1.0974421501159668
1772594258982048000,3.983048095703125,-5.70388650894165,-5.389946460723877,-1.0286089181900024
1772594259002312000,4.00331201171875,-4.460996150970459,-11.594820022583008,-0.961870551109314
1772594259022575000,4.0235751953125,-5.3342814445495605,-17.87241554260254,2.5632922649383545
1772594259042839000,4.043839111328125,-4.423287868499756,-23.148040771484375,6.186018466949463
1772594259063103000,4.06410302734375,-4.347870349884033,-25.55870246887207,5.434837818145752
1772594259083366000,4.084365966796875,-4.336497783660889,-25.530269622802734,4.214393615722656
1772594259103630000,4.104630126953125,-4.34876823425293,-24.674942016601562,3.202244758605957
1772594259123894000,4.12489404296875,-4.431966781616211,-23.13517189025879,3.1863832473754883
1772594259144158000,4.145157958984375,-4.444236755371094,-20.68949317932129,3.1390976905822754
1772594259164421000,4.165421142578125,-4.377199172973633,-18.07741928100586,3.063680410385132
1772594259184685000,4.18568505859375,-3.5520975589752197,-15.193005561828613,2.990058660507202
1772594259204949000,4.205948974609375,-2.7287914752960205,-10.51174259185791,2.153285264968872
1772594259225212000,4.2262119140625,-2.667739152908325,-7.430704116821289,2.085649013519287
1772594259245476000,4.24647607421875,-2.628833532333374,-5.286397457122803,0.7918822169303894
1772594259265740000,4.266739990234375,-2.6653449535369873,-3.8115692138671875,0.7478887438774109
1772594259286003000,4.2870029296875,-2.728492021560669,-3.7253777980804443,0.7032967209815979
1772594259306267000,4.307266845703125,-2.684798002243042,-2.956839084625244,0.6889315247535706
1772594259326531000,4.327531005859375,-1.8477251529693604,-2.9023709297180176,0.7044938206672668
1772594259346794000,4.3477939453125,-1.0016741752624512,-2.83443546295166,0.6643909811973572
1772594259367058000,4.368057861328125,-0.9717466235160828,-1.9506758451461792,-0.13257892429828644
1772594259387322000,4.388322021484375,-0.9091981053352356,-1.9168577194213867,-0.16998831927776337
1772594259407585000,4.4085849609375,-0.8541314601898193,-1.8567034006118774,-0.1496376097202301
1772594259427849000,4.428848876953125,-0.8140285611152649,-1.802534580230713,-0.08319851011037827
1772594259448113000,4.44911279296875,-0.7930793166160583,-1.7408839464187622,-0.03381809964776039
1772594259468376000,4.4693759765625,-0.8298901915550232,-1.6938977241516113,0.005985504016280174
1772594259488640000,4.489639892578125,-2.618957281112671,-1.690904974937439,0.01825578883290291
1772594259508904000,4.509904052734375,-5.960365295410156,-2.6267385482788086,0.004788403399288654
1772594259529167000,4.5301669921875,-4.1285014152526855,-5.8523268699646,1.25725519657135
1772594259549431000,4.55043115234375,-2.571671962738037,-10.75265884399414,2.02848744392395
1772594259569695000,4.570695068359375,-4.0563764572143555,-16.622642517089844,4.640860557556152
1772594259589958000,4.5909580078125,-4.026448726654053,-21.901857376098633,5.944802761077881
1772594259610222000,4.61122216796875,-2.8745384216308594,-24.581567764282227,3.5760395526885986
1772594259630486000,4.631486083984375,-2.0114285945892334,-24.668657302856445,2.0287866592407227
1772594259650749000,4.6517490234375,-2.0497360229492188,-24.659080505371094,1.1680711507797241
1772594259671013000,4.67201318359375,-2.965517997741699,-22.85684585571289,1.095347285270691
1772594259691277000,4.692277099609375,-3.034950017929077,-20.611083984375,0.3172317147254944
1772594259711540000,4.7125400390625,-3.8343141078948975,-17.72247886657715,0.32202014327049255
1772594259731804000,4.732803955078125,-4.874594688415527,-14.381072044372559,1.2216414213180542
1772594259752068000,4.753068115234375,-4.892850399017334,-10.916961669921875,1.3045406341552734
1772594259772331000,4.7733310546875,-4.93115758895874,-9.691129684448242,1.3192051649093628
1772594259792595000,4.793594970703125,-4.867711544036865,-6.120776653289795,1.4027029275894165
1772594259812859000,4.81385888671875,-3.08343243598938,-5.046079158782959,2.24127197265625
1772594259833122000,4.8341220703125,-1.5086463689804077,-3.844489336013794,2.283170700073242
1772594259853386000,4.854385986328125,-0.623390257358551,-2.973299264907837,2.3050177097320557
1772594259873650000,4.87464990234375,-0.5943605899810791,-2.169146776199341,2.233191728591919
1772594259893913000,4.8949130859375,-0.6054337620735168,-2.0808606147766113,0.9558850526809692
1772594259914177000,4.915177001953125,-0.5976526141166687,-1.3057377338409424,0.1379658728837967
1772594259934441000,4.93544091796875,-0.5719149112701416,-1.2434885501861572,0.076015904545784
1772594259954704000,4.955703857421875,-0.5216367244720459,-1.1979986429214478,0.01735796220600605
1772594259974968000,4.975968017578125,-0.4818331003189087,-1.1953052282333374,0.01646013744175434
1772594259995232000,4.99623193359375,-0.4704606235027313,-1.1740566492080688,0.017058687284588814
1772594260015495000,5.016494873046875,-0.4572925269603729,-1.169567584991455,0.0011971008498221636
1772594260035759000,5.036759033203125,-0.4396352767944336,-1.192013144493103,0.010773907415568829
1772594260056023000,5.05702294921875,-0.45669397711753845,-2.094926595687866,-0.055665191262960434
1772594260076286000,5.077285888671875,-3.822343111038208,-3.2216975688934326,-0.937629222869873
1772594260096550000,5.0975498046875,-3.8355112075805664,-8.422203063964844,0.2205658257007599
1772594260116814000,5.11781396484375,-3.0517094135284424,-13.387178421020508,0.29239189624786377
1772594260137077000,5.138076904296875,-1.867477297782898,-19.26374626159668,1.8731635808944702
1772594260157341000,5.1583408203125,-1.8546085357666016,-23.989004135131836,5.7993550300598145
1772594260177605000,5.178605224609375,-1.8857331275939941,-26.947038650512695,6.664559841156006
1772594260197868000,5.198867919921875,-2.6228480339050293,-27.01467514038086,6.552031993865967
1772594260218132000,5.219132080078125,-2.691082715988159,-26.075550079345703,3.0974984169006348
1772594260238396000,5.23939599609375,-4.049492835998535,-23.063045501708984,-0.39893385767936707
1772594260258659000,5.2596591796875,-5.309441566467285,-19.451393127441406,-1.6900070905685425
1772594260278923000,5.279923095703125,-5.327697277069092,-16.03426742553711,-1.6642694473266602
1772594260299187000,5.30018701171875,-4.334403038024902,-12.608763694763184,-0.8589198589324951
1772594260319450000,5.3204501953125,-3.081636905670166,-9.396344184875488,0.21278467774391174
1772594260339714000,5.340714111328125,-1.3063362836837769,-6.089053630828857,0.9956886172294617
1772594260359978000,5.36097802734375,-0.37409400939941406,-4.390666484832764,1.0633248090744019
1772594260380241000,5.381240966796875,-0.3594295382499695,-3.4584243297576904,1.7932571172714233
1772594260400505000,5.401505126953125,-0.3265092670917511,-3.400364875793457,1.79146146774292
1772594260420769000,5.42176904296875,-0.2935889959335327,-2.6758196353912354,1.7818846702575684
1772594260441033000,5.442032958984375,-0.2941875457763672,-2.6396074295043945,1.7259202003479004
1772594260461296000,5.462296142578125,-0.35673606395721436,-1.70975923538208,0.5033808946609497
1772594260481560000,5.48256005859375,-1.0980406999588013,-1.6651673316955566,0.44592007994651794
1772594260501824000,5.502823974609375,-1.0669161081314087,-1.5873557329177856,0.39294835925102234
1772594260522087000,5.5230869140625,-1.006462574005127,-0.768538773059845,0.3444657623767853
1772594260542351000,5.54335107421875,-0.93254154920578,-0.7511807680130005,0.31274259090423584
1772594260562615000,5.563614990234375,-0.8702923059463501,-0.7365162968635559,0.2861070930957794
1772594260582878000,5.5838779296875,-0.8568249344825745,-0.7463923692703247,0.2645592987537384
1772594260603142000,5.604141845703125,-1.968033790588379,-1.5083470344543457,0.2876034677028656
1772594260623406000,5.624406005859375,-5.457582950592041,-3.1064767837524414,1.1982979774475098
1772594260643669000,5.6446689453125,-4.692336082458496,-6.024709224700928,2.7895443439483643
1772594260663933000,5.664932861328125,-3.620033025741577,-9.948206901550293,2.7760767936706543
1772594260684197000,5.685197021484375,-3.6227264404296875,-15.229217529296875,1.9725229740142822
1772594260704460000,5.7054599609375,-2.8203697204589844,-20.50005340576172,3.4910452365875244
1772594260724724000,5.725723876953125,-1.8543092012405396,-24.32209587097168,3.5924997329711914
1772594260744988000,5.74598779296875,-1.8671780824661255,-25.421335220336914,2.243666172027588
1772594260765251000,5.7662509765625,-2.665644407272339,-25.472511291503906,1.2360066175460815
1772594260785515000,5.786514892578125,-2.720411777496338,-25.4096622467041,1.1495161056518555
1772594260805779000,5.806779052734375,-2.7847559452056885,-23.382671356201172,0.4034229815006256
1772594260826042000,5.8270419921875,-3.5975873470306396,-21.178508758544922,0.36661213636398315
1772594260846306000,5.84730615234375,-3.6086604595184326,-18.410213470458984,0.33339259028434753
1772594260866570000,5.867570068359375,-3.678990125656128,-15.055937767028809,0.2744353711605072
1772594260886833000,5.8878330078125,-3.708618402481079,-11.679215431213379,0.21308395266532898
1772594260907097000,5.90809716796875,-3.643975019454956,-8.776246070861816,0.15592238306999207
1772594260927361000,5.928361083984375,-3.5838205814361572,-5.9193644523620605,0.1711854189634323
1772594260947624000,5.9486240234375,-2.8826189041137695,-4.6734819412231445,0.24690204858779907
1772594260967888000,5.968887939453125,-1.856404185295105,-3.3827078342437744,1.0244190692901611
1772594260988152000,5.989152099609375,-0.19692309200763702,-2.5091233253479004,1.015440821647644
1772594261008415000,6.0094150390625,-2.6327240467071533,-1.4619593620300293,1.0127472877502441
1772594261028679000,6.029678955078125,-1.7881693840026855,-0.2944868206977844,0.937629222869873
1772594261048943000,6.049943115234375,-0.6760627031326294,0.7841010689735413,0.17148469388484955
1772594261069206000,6.0702060546875,0.21128830313682556,0.8445546627044678,0.18166005611419678
1772594261089470000,6.090469970703125,0.21936872601509094,0.8403648138046265,0.21637597680091858
1772594261109734000,6.11073388671875,0.19123685359954834,-0.15831658244132996,0.28221651911735535
1772594261129997000,6.1309970703125,0.19782091677188873,-1.1153987646102905,0.3462614119052887
1772594261150261000,6.151260986328125,0.19063830375671387,-1.1728595495224,0.40282443165779114
1772594261170525000,6.17152490234375,-0.9208698272705078,-1.1584943532943726,0.4728548228740692
1772594261190788000,6.1917880859375,-5.756259441375732,-2.5189995765686035,1.670554280281067
1772594261211052000,6.212052001953125,-4.40353536605835,-5.869086265563965,2.568679094314575
1772594261231316000,6.23231591796875,-3.5745432376861572,-10.570100784301758,3.7612907886505127
1772594261251579000,6.252578857421875,-3.4922423362731934,-15.878046035766602,5.707178115844727
1772594261271843000,6.272843017578125,-0.2801215946674347,-18.58409309387207,3.1920695304870605
1772594261292107000,6.29310693359375,-0.3669114112854004,-19.365798950195312,2.402282238006592
1772594261312370000,6.313369873046875,-0.3124433159828186,-20.85499382019043,3.3414077758789062
1772594261332634000,6.333634033203125,-0.22595278918743134,-20.834043502807617,4.071040630340576
1772594261352898000,6.35389794921875,0.5638344883918762,-19.838056564331055,3.9713821411132812
1772594261373161000,6.374160888671875,-0.7065888047218323,-20.849605560302734,2.9643208980560303
1772594261393425000,6.3944248046875,-2.3032219409942627,-20.8615779876709,2.913144826889038
1772594261413689000,6.414689208984375,-2.3756465911865234,-19.716550827026367,3.808875560760498
1772594261433952000,6.434951904296875,-2.398092269897461,-16.462230682373047,3.8774096965789795
1772594261454216000,6.4552158203125,-2.375347375869751,-14.166491508483887,3.7924153804779053
1772594261474480000,6.475480224609375,-1.482310175895691,-13.263578414916992,2.5195980072021484
1772594261494743000,6.495742919921875,-1.4814122915267944,-10.0673189163208,1.5643115043640137
1772594261515007000,6.516007080078125,-2.581547975540161,-8.057086944580078,1.5041571855545044
1772594261535271000,6.53627099609375,-2.6611552238464355,-6.4053874015808105,0.7410054206848145
1772594261555534000,6.5565341796875,-2.6955718994140625,-4.235043525695801,0.6913257241249084
1772594261575798000,6.576798095703125,-1.2542624473571777,-2.1793220043182373,0.6664859056472778
1772594261596062000,6.59706201171875,0.38067805767059326,-0.9995791912078857,0.6865373253822327
1772594261616325000,6.6173251953125,0.375291109085083,-0.020051438361406326,0.7206547260284424
1772594261636589000,6.637589111328125,-0.8538321852684021,-0.002394201699644327,0.6955155730247498
1772594261656853000,6.65785302734375,-0.938826322555542,-0.07571662962436676,0.6676830053329468
1772594261677116000,6.678115966796875,-1.721730351448059,-0.8044517636299133,0.5973533391952515
1772594261697380000,6.698380126953125,-1.7968484163284302,-0.8708908557891846,-0.1496376097202301
1772594261717644000,6.71864404296875,-1.5885528326034546,-2.642899513244629,-0.08708908408880234
1772594261737908000,6.738907958984375,-4.400243282318115,-6.445190906524658,4.454412460327148
1772594261758171000,6.7591708984375,-7.593210697174072,-12.500426292419434,8.071452140808105
1772594261778435000,6.77943505859375,-6.916549205780029,-16.829742431640625,7.572560787200928
1772594261798699000,6.799698974609375,-3.816956043243408,-18.01307487487793,5.609015941619873
1772594261818962000,6.8199619140625,-1.8977041244506836,-17.99901008605957,5.582679748535156
1772594261839226000,6.84022607421875,-1.8384475708007812,-17.175106048583984,5.57370138168335
1772594261859490000,6.860489990234375,-1.7929577827453613,-15.762227058410645,4.821622848510742
1772594261879753000,6.8807529296875,-1.821987509727478,-14.049175262451172,5.653907299041748
1772594261900017000,6.901016845703125,-1.8375498056411743,-12.088324546813965,6.398204803466797
1772594261920281000,6.921281005859375,-0.49380409717559814,-10.195408821105957,6.4386067390441895
1772594261940544000,6.9415439453125,1.212663173675537,-10.14213752746582,6.4502787590026855
1772594261960808000,6.961807861328125,2.2807765007019043,-10.150816917419434,5.256170749664307
1772594261981072000,6.98207177734375,0.9292495250701904,-8.995614051818848,4.024353981018066
1772594262001335000,7.0023349609375,-1.8555063009262085,-7.932888031005859,2.0165164470672607
1772594262021599000,7.022598876953125,-2.9355905055999756,-7.862857818603516,1.116895079612732
1772594262041863000,7.04286279296875,-3.785532236099243,-7.094917297363281,0.3471592366695404
1772594262062126000,7.0631259765625,-3.794809579849243,-5.198709487915039,0.3471592366695404
1772594262082390000,7.08339013671875,-3.7328596115112305,-5.122992992401123,-0.4572925269603729
1772594262102654000,7.103654052734375,-3.696348190307617,-8.934561729431152,-1.316810965538025
1772594262122917000,7.123917236328125,-1.2219406366348267,-11.949460983276367,-2.3145945072174072
1772594262143181000,7.14418115234375,-0.28700491786003113,-14.44152545928955,-1.3305776119232178
1772594262163445000,7.164445068359375,0.44442370533943176,-16.903364181518555,2.487874746322632
1772594262183708000,7.1847080078125,1.5918447971343994,-16.821361541748047,4.936245441436768
1772594262203972000,7.20497216796875,3.021482467651367,-15.634137153625488,5.889736175537109
1772594262224236000,7.225236083984375,-0.3438672125339508,-15.583858489990234,4.7725419998168945
1772594262244499000,7.2454990234375,-4.252102375030518,-16.70254898071289,3.6634278297424316
1772594262264763000,7.265762939453125,-2.7853543758392334,-16.793230056762695,2.62015438079834
1772594262285027000,7.286027099609375,-0.2717418968677521,-17.91820526123047,2.6617536544799805
1772594262305290000,7.3062900390625,-0.21458032727241516,-18.900127410888672,3.658041000366211
1772594262325554000,7.326553955078125,0.6838438510894775,-18.95309829711914,3.696946620941162
1772594262345818000,7.346818115234375,0.6910264492034912,-18.916587829589844,3.6062662601470947
1772594262366081000,7.3670810546875,0.6206967830657959,-18.054973602294922,2.426523447036743
1772594262386345000,7.387344970703125,0.557250440120697,-15.042769432067871,1.0310031175613403
1772594262406609000,7.40760888671875,0.5084685683250427,-12.092813491821289,-0.13048399984836578
1772594262426872000,7.4278720703125,0.5111620426177979,-8.82203483581543,-0.11971008777618408
1772594262447136000,7.448135986328125,0.5015852451324463,-7.57016658782959,0.6910264492034912
1772594262467400000,7.46839990234375,0.4869207739830017,-3.6472671031951904,0.74040687084198
1772594262487663000,7.4886630859375,0.5291185975074768,-3.6035728454589844,1.9716250896453857
1772594262507927000,7.508927001953125,1.337161660194397,-2.6357169151306152,4.970961093902588
1772594262528191000,7.52919091796875,2.4106619358062744,-2.563591480255127,7.218817234039307
1772594262548454000,7.549453857421875,2.4211363792419434,-1.8213889598846436,8.318354606628418
1772594262568718000,7.569718017578125,2.4624364376068115,-1.8381483554840088,9.45679759979248
1772594262588982000,7.58998193359375,2.521692991256714,-1.842637538909912,9.52353572845459
1772594262629509000,7.630509033203125,4.450222492218018,-1.9219454526901245,8.029852867126465
1772594262649773000,7.65077294921875,5.810129165649414,-2.679410934448242,6.9060750007629395
1772594262670036000,7.671035888671875,7.059902191162109,-2.749441385269165,5.882853031158447
1772594262690300000,7.6912998046875,7.1134724617004395,-3.4386723041534424,4.420594215393066
1772594262710564000,7.711564208984375,7.1454949378967285,-3.420117139816284,3.0684688091278076
1772594262730827000,7.731826904296875,7.174225330352783,-3.361459255218506,2.1891982555389404
1772594262751091000,7.752091064453125,7.222707748413086,-2.341529369354248,2.108992338180542
1772594262771355000,7.77235498046875,8.114249229431152,-1.5382746458053589,1.3263877630233765
1772594262791618000,7.7926181640625,8.107665061950684,-0.6575076580047607,1.3177087306976318
1772594262811882000,7.812882080078125,6.928520679473877,0.40551790595054626,1.3189058303833008
1772594262832146000,7.83314599609375,6.848015308380127,0.47554832696914673,1.3296797275543213
1772594262852409000,7.8534091796875,6.8465189933776855,1.2309190034866333,1.3452420234680176
1772594262872673000,7.873673095703125,7.81257963180542,1.1827356815338135,1.3443442583084106
1772594262892937000,7.89393701171875,8.72417163848877,0.3660135865211487,1.3590087890625
1772594262913200000,7.9142001953125,8.7977933883667,0.3411737382411957,1.3844470977783203
1772594262933464000,7.934464111328125,9.57201862335205,0.30526071786880493,1.3946224451065063
1772594262953728000,7.95472802734375,9.501090049743652,0.3124433159828186,1.3925275802612305
1772594262973991000,7.974990966796875,8.573038101196289,1.3697826862335205,1.3709797859191895
1772594262994255000,7.995255126953125,8.493729591369629,1.4386159181594849,1.3296797275543213
1772594263014519000,8.01551904296875,8.450334548950195,1.4793174266815186,1.2943652868270874
1772594263034783000,8.035782958984376,8.439560890197754,1.5071499347686768,1.2602479457855225
1772594263055046000,8.0560458984375,8.423699378967285,1.5553332567214966,1.2294225692749023
1772594263075310000,8.07631005859375,8.431480407714844,1.6271593570709229,1.161187767982483
1772594263095574000,8.096573974609376,8.468890190124512,1.6801310777664185,1.0899603366851807
1772594263115837000,8.1168369140625,8.444648742675781,1.742978811264038,1.0247182846069336
1772594263136101000,8.13710107421875,8.419210433959961,2.5429415702819824,0.9573814272880554
1772594263156365000,8.157364990234376,8.446444511413574,2.571073293685913,0.8984242081642151
1772594263176628000,8.1776279296875,8.51258373260498,2.614168882369995,0.8424597382545471
1772594263196892000,8.197891845703126,8.572439193725586,2.693476915359497,-0.07631517946720123
1772594263217156000,8.218156005859376,8.628403663635254,3.4940381050109863,-0.06883329898118973
1772594263237419000,8.2384189453125,8.674192428588867,3.5410242080688477,-0.05835866555571556
1772594263257683000,8.258682861328126,9.58668327331543,3.5778350830078125,-0.028730420395731926
1772594263277947000,8.27894677734375,10.325592994689941,3.5230677127838135,0.03082534670829773
1772594263298210000,8.2992099609375,10.36569595336914,3.464409828186035,0.050876785069704056
1772594263318474000,8.319473876953126,10.346542358398438,3.437175750732422,0.0694318488240242
1772594263338738000,8.339738037109376,10.278008460998535,3.438372850418091,0.06344634294509888
1772594263359001000,8.3600009765625,9.112630844116211,3.472191095352173,0.08409633487462997
1772594263379265000,8.38026513671875,9.069235801696777,3.5359365940093994,0.09906009584665298
1772594263399529000,8.400529052734376,9.043797492980957,3.5760395526885986,0.12779051065444946
1772594263419792000,8.4207919921875,9.055768966674805,3.6314053535461426,0.1777694821357727
1772594263440056000,8.44105615234375,9.07222843170166,3.685275077819824,0.22864626348018646
1772594263460320000,8.461320068359376,9.064447402954102,3.7274727821350098,0.23762452602386475
1772594263480583000,8.4815830078125,9.048885345458984,3.7672762870788574,0.24121582508087158
1772594263500847000,8.50184716796875,9.035717010498047,3.7783496379852295,0.27473464608192444
1772594263521111000,8.522111083984376,9.051279067993164,3.79840087890625,0.27982231974601746
1772594263541374000,8.5423740234375,9.09766674041748,3.8049850463867188,0.28730419278144836
1772594263561638000,8.562637939453126,9.111733436584473,3.8016929626464844,0.29478609561920166
1772594263581902000,8.582902099609376,9.126397132873535,3.828029155731201,0.3124433159828186
1772594263602165000,8.6031650390625,9.106645584106445,3.8552632331848145,0.3034650683403015
1772594263622429000,8.623428955078126,9.091083526611328,3.8821980953216553,0.29897594451904297
1772594263642693000,8.643693115234376,9.066542625427246,3.9118263721466064,0.2810194194316864
1772594263662956000,8.6639560546875,9.092878341674805,3.8860886096954346,0.29209262132644653
1772594263683220000,8.684219970703126,9.158719062805176,3.858555316925049,0.3082534670829773
1772594263703484000,8.70448388671875,9.228450775146484,3.8373067378997803,0.3663128614425659
1772594263723747000,8.7247470703125,9.286211013793945,3.7816414833068848,0.39234980940818787
1772594263744011000,8.745010986328126,9.280524253845215,3.737947463989258,0.3965396583080292
1772594263764275000,8.76527490234375,9.263465881347656,3.7053263187408447,0.39145198464393616
1772594263784538000,8.7855380859375,9.214683532714844,3.6951510906219482,0.39294835925102234
1772594263804802000,8.805802001953126,9.190143585205078,3.6774938106536865,0.4207809567451477
1772594263825066000,8.82606591796875,9.151237487792969,3.646369218826294,0.44352585077285767
1772594263845329000,8.846328857421875,9.138368606567383,3.60836124420166,0.44322657585144043
1772594263865593000,8.866593017578126,9.164705276489258,3.578732967376709,0.4165911078453064
1772594263885857000,8.88685693359375,9.206005096435547,3.547309160232544,0.41030630469322205
1772594263906120000,8.907119873046875,9.236531257629395,3.522768497467041,0.39294835925102234
1772594263926384000,8.927384033203126,9.230545043945312,3.4910452365875244,0.37319618463516235
1772594263946648000,8.94764794921875,9.201814651489258,3.4683003425598145,0.37229835987091064
1772594263966911000,8.967910888671875,9.181164741516113,3.44765043258667,0.35913026332855225
1772594263987175000,8.9881748046875,9.154529571533203,3.434781551361084,0.35254621505737305
1772594264007439000,9.008439208984376,9.138368606567383,3.421314239501953,0.36002808809280396
1772594264027702000,9.028701904296875,9.141660690307617,3.406949043273926,0.35344403982162476
1772594264047966000,9.048966064453126,9.131784439086914,3.39677357673645,0.36002808809280396
1772594264068230000,9.06922998046875,9.102156639099121,3.3698389530181885,0.353743314743042
1772594264088493000,9.0894931640625,9.079411506652832,3.350385904312134,0.33099839091300964
1772594264108757000,9.109757080078126,9.067440032958984,3.339911460876465,0.29299044609069824
1772594264129021000,9.13002099609375,9.088688850402832,3.3336265087127686,0.2654571235179901
1772594264149284000,9.1502841796875,9.147346496582031,3.3201591968536377,0.23074118793010712
1772594264189812000,9.19081201171875,9.217676162719727,3.306093215942383,0.13706804811954498
