time,seconds_elapsed,z,y,x
1772594255294007000,0.295007080078125,-0.8458971977233887,0.8929271697998047,-0.7400355339050293
1772594255314301000,0.315301025390625,-0.908729076385498,1.0868573188781738,-0.7648735046386719
1772594255334565000,0.335565185546875,-0.8912849426269531,1.064429759979248,-0.7560262680053711
1772594255354828000,0.355828125,-0.8700876235961914,1.047447681427002,-0.7454698085784912
1772594255375092000,0.376092041015625,-0.8613243103027344,1.0492587089538574,-0.7432198524475098
1772594255395356000,0.39635595703125,-0.874793529510498,1.0897350311279297,-0.7618155479431152
1772594255435883000,0.436883056640625,-0.8091084957122803,1.393627643585205,-0.6337687969207764
1772594255456147000,0.45714697265625,-0.7942006587982178,1.388674259185791,-0.6126646995544434
1772594255476410000,0.47741015625,-0.792339563369751,1.4197125434875488,-0.6241233348846436
1772594255496674000,0.497674072265625,-0.9420256614685059,1.3691411018371582,-0.8170723915100098
1772594255516938000,0.51793798828125,-1.0651130676269531,1.6370396614074707,-0.9421036243438721
1772594255537201000,0.538200927734375,-1.2102267742156982,1.9565305709838867,-1.0950798988342285
1772594255557465000,0.558465087890625,-1.279376745223999,2.452108383178711,-1.3278923034667969
1772594255577729000,0.57872900390625,-1.0696017742156982,2.742175579071045,-1.3364460468292236
1772594255597992000,0.598991943359375,-0.615243673324585,2.3808250427246094,-0.9942226409912109
1772594255618256000,0.619255859375,-0.2502293586730957,1.5504627227783203,-0.5870640277862549
1772594255638520000,0.63952001953125,-0.06496316194534302,0.7121467590332031,-0.26856160163879395
1772594255658783000,0.659782958984375,-0.0023050904273986816,0.06313800811767578,-0.024415254592895508
1772594255679047000,0.680046875,-0.003945693373680115,-0.3791389465332031,0.1488056182861328
1772594255699311000,0.70031103515625,-0.03451806306838989,-0.8172569274902344,0.3258249759674072
1772594255719575000,0.720574951171875,-0.08203041553497314,-1.302687644958496,0.5349979400634766
1772594255739838000,0.740837890625,-0.1475372314453125,-1.820591926574707,0.7451367378234863
1772594255760102000,0.761101806640625,-0.15224725008010864,-2.2259397506713867,0.900029182434082
1772594255780366000,0.781365966796875,-0.1326841115951538,-2.2751855850219727,0.9227252006530762
1772594255800629000,0.80162890625,-0.11111658811569214,-1.8433218002319336,0.756955623626709
1772594255820893000,0.821892822265625,-0.06326684355735779,-1.4214582443237305,0.561863899230957
1772594255841157000,0.8421572265625,-0.03411322832107544,-1.307267189025879,0.4831695556640625
1772594255861420000,0.862419921875,-0.012042120099067688,-1.6771736145019531,0.5628499984741211
1772594255881684000,0.88268408203125,0.024829700589179993,-2.5597057342529297,0.7712488174438477
1772594255901948000,0.902947998046875,0.045969098806381226,-3.6534042358398438,0.9816279411315918
1772594255922211000,0.923211181640625,0.01923999935388565,-4.677766799926758,1.1394844055175781
1772594255942475000,0.94347509765625,-0.018895994871854782,-5.475854873657227,1.2764616012573242
1772594255962739000,0.963739013671875,-0.06384894251823425,-6.074031829833984,1.4075918197631836
1772594255983002000,0.984002197265625,-0.10975176095962524,-6.390928268432617,1.530536413192749
1772594256003266000,1.00426611328125,-0.12343636155128479,-6.248140335083008,1.5373265743255615
1772594256023530000,1.024530029296875,-0.19527125358581543,-5.503175735473633,1.408111333847046
1772594256043793000,1.04479296875,-0.2682698369026184,-4.350380897521973,1.1587316989898682
1772594256064057000,1.06505712890625,-0.27597737312316895,-2.8881731033325195,0.8077733516693115
1772594256084321000,1.085321044921875,-0.15594255924224854,-1.1756248474121094,0.3577282428741455
1772594256104584000,1.105583984375,0.10474693775177002,0.6615514755249023,-0.22814416885375977
1772594256124848000,1.12584814453125,0.39596009254455566,2.3239011764526367,-0.892695426940918
1772594256145112000,1.146112060546875,0.6643695831298828,3.708559513092041,-1.5870122909545898
1772594256165375000,1.166375,0.8790633082389832,4.874763488769531,-2.1929566860198975
1772594256185639000,1.186638916015625,0.9804238080978394,5.852400779724121,-2.60619854927063
1772594256205903000,1.206903076171875,1.0448747873306274,6.536845684051514,-2.866499423980713
1772594256226166000,1.227166015625,1.1889663934707642,6.800517559051514,-3.198270320892334
1772594256246430000,1.247429931640625,1.3550540208816528,6.9748640060424805,-3.287536144256592
1772594256266694000,1.26769384765625,2.2640461921691895,6.870841979980469,-2.8824329376220703
1772594256286957000,1.28795703125,2.632205009460449,6.480041027069092,-2.450706720352173
1772594256307221000,1.308220947265625,1.9115352630615234,5.857186317443848,-1.9934375286102295
1772594256327485000,1.32848486328125,1.1740834712982178,4.577570915222168,-1.3762562274932861
1772594256347748000,1.348748046875,0.5560271739959717,2.702953338623047,-0.731674075126648
1772594256368012000,1.369011962890625,0.0808713436126709,0.4696836471557617,-0.11592411994934082
1772594256388276000,1.38927587890625,-0.28852808475494385,-1.9111566543579102,0.43999147415161133
1772594256408539000,1.409538818359375,-0.5853657722473145,-4.226390838623047,0.9328317642211914
1772594256428803000,1.429802978515625,-0.860715389251709,-6.345737457275391,1.3373188972473145
1772594256449067000,1.45006689453125,-1.0992250442504883,-8.14406967163086,1.6815484762191772
1772594256469330000,1.470329833984375,-1.1804747581481934,-9.464653968811035,1.9185675382614136
1772594256489594000,1.490593994140625,-1.21696138381958,-10.148850440979004,1.9751887321472168
1772594256509858000,1.510858154296875,-1.2785584926605225,-9.960294723510742,1.8152488470077515
1772594256530121000,1.531120849609375,-1.2541720867156982,-8.897201538085938,1.577306866645813
1772594256550385000,1.551385009765625,-1.1613779067993164,-7.219414710998535,1.257531762123108
1772594256570649000,1.571649169921875,-0.9890320301055908,-5.198846817016602,0.9662914276123047
1772594256590912000,1.591912109375,-0.6785907745361328,-3.093578338623047,0.6323643922805786
1772594256611176000,1.612176025390625,-0.25063061714172363,-1.0128326416015625,0.23448586463928223
1772594256631440000,1.63243994140625,0.24666142463684082,0.9296245574951172,-0.24948954582214355
1772594256651703000,1.652703125,0.7113566398620605,2.646423816680908,-0.7982847690582275
1772594256671967000,1.672967041015625,1.0817444324493408,3.982048988342285,-1.4115982055664062
1772594256692231000,1.69323095703125,1.3740311861038208,4.973799705505371,-2.1146228313446045
1772594256712494000,1.713494140625,1.418177843093872,5.561264991760254,-2.887843132019043
1772594256732758000,1.733758056640625,1.1277519464492798,5.904343128204346,-3.592867374420166
1772594256753022000,1.75402197265625,0.482471764087677,6.070459365844727,-4.286649227142334
1772594256773285000,1.77428515625,-0.5340287685394287,6.212440490722656,-4.7329864501953125
1772594256793549000,1.794549072265625,-0.8947417736053467,6.26132869720459,-5.228046417236328
1772594256813813000,1.81481298828125,3.1202034950256348,6.579267501831055,-3.9015493392944336
1772594256834076000,1.835075927734375,4.217100143432617,6.032840728759766,-1.8976877927780151
1772594256854340000,1.855340087890625,2.5886571407318115,5.729782581329346,-1.266648769378662
1772594256874604000,1.87560400390625,1.4378504753112793,4.110205173492432,-1.0112829208374023
1772594256894867000,1.895866943359375,0.517263650894165,1.911198616027832,-0.4774136543273926
1772594256915131000,1.916130859375,-0.09713387489318848,-0.43342113494873047,0.10054349899291992
1772594256935395000,1.93639501953125,-0.5546298027038574,-2.819319725036621,0.6028652191162109
1772594256955658000,1.956657958984375,-0.9543056488037109,-5.101343154907227,1.039330005645752
1772594256975922000,1.976921875,-1.360900640487671,-7.167238235473633,1.4289546012878418
1772594256996186000,1.99718603515625,-1.6940491199493408,-8.896309852600098,1.7762329578399658
1772594257016450000,2.017449951171875,-1.6186776161193848,-9.966501235961914,2.070857048034668
1772594257036713000,2.037712890625,-1.4414441585540771,-10.263256072998047,2.2353310585021973
1772594257056977000,2.057976806640625,-1.4044771194458008,-9.585673332214355,2.138003349304199
1772594257077241000,2.078240966796875,-1.1649222373962402,-8.054671287536621,1.6860134601593018
1772594257097504000,2.09850390625,-0.9194772243499756,-5.953751564025879,1.1536431312561035
1772594257117768000,2.118767822265625,-0.6903815269470215,-3.7366628646850586,0.7033755779266357
1772594257138032000,2.1390322265625,-0.33611559867858887,-1.5471086502075195,0.292464017868042
1772594257158295000,2.159294921875,0.11696767807006836,0.48805999755859375,-0.0971304178237915
1772594257178559000,2.17955908203125,0.595207929611206,2.3705286979675293,-0.49962306022644043
1772594257198823000,2.199822998046875,1.001631498336792,3.9412918090820312,-0.8625599145889282
1772594257219086000,2.220086181640625,1.2821629047393799,5.2396159172058105,-1.2415846586227417
1772594257239350000,2.24035009765625,1.5725667476654053,6.160165309906006,-1.490757703781128
1772594257259614000,2.260614013671875,1.8324308395385742,6.706186294555664,-1.7867021560668945
1772594257279877000,2.280877197265625,1.910719394683838,6.9621453285217285,-2.333345413208008
1772594257300141000,2.30114111328125,2.0285708904266357,6.831377029418945,-3.1521804332733154
1772594257320405000,2.321405029296875,1.710763931274414,6.617201805114746,-3.995960235595703
1772594257340668000,2.34166796875,2.104287624359131,6.1960368156433105,-4.338547706604004
1772594257360932000,2.36193212890625,2.9701662063598633,6.076164245605469,-3.444814682006836
1772594257381196000,2.382196044921875,2.625582218170166,5.747354030609131,-2.2688748836517334
1772594257401459000,2.402458984375,1.6423914432525635,4.7311320304870605,-1.5187392234802246
1772594257421723000,2.422722900390625,0.8461472988128662,2.918107032775879,-0.7557532787322998
1772594257441987000,2.442987060546875,0.18895483016967773,0.7461395263671875,-0.15166115760803223
1772594257462250000,2.46325,-0.32858800888061523,-1.4887819290161133,0.23984503746032715
1772594257482514000,2.483513916015625,-0.7289352416992188,-3.6195907592773438,0.464780330657959
1772594257502778000,2.503778076171875,-1.017167091369629,-5.459591865539551,0.539804220199585
1772594257523041000,2.524041015625,-1.2606308460235596,-7.146258354187012,0.5103791356086731
1772594257543305000,2.544304931640625,-1.436992883682251,-8.466307640075684,0.43226638436317444
1772594257563569000,2.56456884765625,-1.4954254627227783,-9.175344467163086,0.49698638916015625
1772594257583832000,2.58483203125,-1.4837055206298828,-9.035057067871094,0.5240546464920044
1772594257604096000,2.605095947265625,-1.4485113620758057,-8.04195499420166,0.4133602976799011
1772594257624360000,2.62535986328125,-1.2626442909240723,-6.416172027587891,0.2943054437637329
1772594257644623000,2.645623046875,-0.9872803688049316,-4.430716514587402,0.2274480164051056
1772594257664887000,2.665886962890625,-0.6261847019195557,-2.4056100845336914,0.16413408517837524
1772594257685151000,2.68615087890625,-0.16396856307983398,-0.5533246994018555,0.05513107776641846
1772594257705414000,2.706413818359375,0.34600305557250977,1.0534296035766602,-0.15581727027893066
1772594257725678000,2.726677978515625,0.9207723140716553,2.479128360748291,-0.5471814870834351
1772594257745942000,2.74694189453125,1.47772216796875,3.6215829849243164,-1.1261160373687744
1772594257766205000,2.767204833984375,1.9414448738098145,4.510851860046387,-1.6280512809753418
1772594257786469000,2.78746923828125,2.2923994064331055,5.2659149169921875,-2.047746181488037
1772594257806733000,2.807733154296875,2.32639741897583,5.842473030090332,-2.483431100845337
1772594257826996000,2.827995849609375,2.009465456008911,6.283956527709961,-3.0659337043762207
1772594257847260000,2.848260009765625,1.5576770305633545,6.569901466369629,-3.5787458419799805
1772594257867524000,2.868524169921875,2.3510775566101074,6.616452693939209,-3.328062057495117
1772594257887787000,2.888787109375,3.184032917022705,6.3126220703125,-2.33732271194458
1772594257908051000,2.909051025390625,2.9064948558807373,5.358314514160156,-1.7913501262664795
1772594257928315000,2.92931494140625,1.851189136505127,4.082150936126709,-1.2521378993988037
1772594257948578000,2.949578125,0.8040304183959961,2.238434314727783,-0.6602275371551514
1772594257968842000,2.969842041015625,0.0411069393157959,0.13448333740234375,-0.03816413879394531
1772594257989106000,2.99010595703125,-0.5617759227752686,-2.071469306945801,0.533672571182251
1772594258009369000,3.010369140625,-1.06705904006958,-4.289992332458496,0.9545755386352539
1772594258029633000,3.030633056640625,-1.57206130027771,-6.550556182861328,1.261061191558838
1772594258049897000,3.05089697265625,-1.9761788845062256,-8.441459655761719,1.424842119216919
1772594258070160000,3.071159912109375,-2.1874985694885254,-9.82119369506836,1.5545017719268799
1772594258090424000,3.091424072265625,-2.1999258995056152,-10.39013957977295,1.6112279891967773
1772594258110688000,3.11168798828125,-2.0123636722564697,-10.021343231201172,1.4513986110687256
1772594258130951000,3.131950927734375,-1.7952852249145508,-8.81483268737793,1.1908906698226929
1772594258151215000,3.152215087890625,-1.5579264163970947,-6.992373466491699,0.9053765535354614
1772594258171479000,3.17247900390625,-1.2613658905029297,-5.063778877258301,0.6315178871154785
1772594258191742000,3.192741943359375,-0.8515684604644775,-3.0726242065429688,0.43507134914398193
1772594258212006000,3.213005859375,-0.36056995391845703,-1.1417322158813477,0.2057051658630371
1772594258232270000,3.23327001953125,0.2907681465148926,0.8221511840820312,-0.19755816459655762
1772594258252533000,3.253532958984375,0.9434037208557129,2.3780412673950195,-0.7766368389129639
1772594258272797000,3.273796875,1.4859492778778076,3.5109758377075195,-1.5096592903137207
1772594258293061000,3.29406103515625,1.9023540019989014,4.15316104888916,-2.327694892883301
1772594258313325000,3.314324951171875,2.1657204627990723,4.383017539978027,-3.0608201026916504
1772594258333588000,3.334587890625,2.2217934131622314,4.442970275878906,-3.7029166221618652
1772594258353852000,3.354851806640625,2.0445868968963623,4.612316131591797,-4.257568359375
1772594258374116000,3.3751162109375,1.7678160667419434,4.8357625007629395,-4.809656143188477
1772594258394379000,3.39537890625,1.623677134513855,5.194127082824707,-5.086409091949463
1772594258414643000,3.415642822265625,1.9867737293243408,5.975127220153809,-4.652142524719238
1772594258434907000,3.435906982421875,3.2381298542022705,6.453107833862305,-2.7931056022644043
1772594258455170000,3.456170166015625,3.076005458831787,6.19253396987915,-1.0158628225326538
1772594258475434000,3.47643408203125,2.1320645809173584,5.165266036987305,-0.20759114623069763
1772594258495698000,3.496697998046875,1.0858757495880127,3.4289278984069824,-0.10238738358020782
1772594258515961000,3.516961181640625,0.30511045455932617,1.1869516372680664,-0.06634002923965454
1772594258536225000,3.53722509765625,-0.25916433334350586,-1.2071533203125,0.08456659317016602
1772594258556511000,3.557510986328125,-0.7068948745727539,-3.6375694274902344,0.24522548913955688
1772594258576775000,3.57777490234375,-1.0672872066497803,-5.8054094314575195,0.34488213062286377
1772594258597038000,3.5980380859375,-1.379936695098877,-7.719232559204102,0.37174510955810547
1772594258617302000,3.618302001953125,-1.6133861541748047,-9.167886734008789,0.4487995505332947
1772594258637566000,3.63856591796875,-1.6412055492401123,-9.965712547302246,0.5666542053222656
1772594258657829000,3.6588291015625,-1.5961713790893555,-9.951152801513672,0.6670979261398315
1772594258678093000,3.679093017578125,-1.54191255569458,-9.097458839416504,0.771349310874939
1772594258698357000,3.69935693359375,-1.460618019104004,-7.607224464416504,0.7435779571533203
1772594258718620000,3.719619873046875,-1.2328104972839355,-5.6853790283203125,0.5649060010910034
1772594258738884000,3.739884033203125,-0.8757379055023193,-3.5919971466064453,0.39496493339538574
1772594258759148000,3.76014794921875,-0.39865899085998535,-1.4500713348388672,0.2040715217590332
1772594258779411000,3.780410888671875,0.10710358619689941,0.3422098159790039,-0.06958043575286865
1772594258799675000,3.8006748046875,0.6822834014892578,1.819711685180664,-0.5319280624389648
1772594258819939000,3.82093896484375,1.2770023345947266,2.9244956970214844,-1.1747424602508545
1772594258840202000,3.841201904296875,1.7923619747161865,3.6150388717651367,-1.866952896118164
1772594258860466000,3.8614658203125,2.062157392501831,4.039551734924316,-2.5959365367889404
1772594258880730000,3.881730224609375,1.9934313297271729,4.424003601074219,-3.3013103008270264
1772594258900993000,3.901992919921875,1.6917078495025635,4.910731315612793,-3.912771701812744
1772594258921257000,3.922257080078125,1.3034862279891968,5.305788516998291,-4.429022789001465
1772594258941521000,3.94252099609375,1.2592027187347412,5.989561080932617,-4.4274749755859375
1772594258961784000,3.9627841796875,1.8978177309036255,6.732706546783447,-3.6073105335235596
1772594258982048000,3.983048095703125,3.506868600845337,6.587967395782471,-1.6571511030197144
1772594259002312000,4.00331201171875,2.8509645462036133,6.077784538269043,-0.4059402346611023
1772594259022575000,4.0235751953125,1.8203742504119873,4.6999311447143555,-0.37459224462509155
1772594259042839000,4.043839111328125,0.8352181911468506,2.7043557167053223,-0.3650394082069397
1772594259063103000,4.06410302734375,0.0976264476776123,0.3582744598388672,-0.05395936965942383
1772594259083366000,4.084365966796875,-0.5075087547302246,-2.0140514373779297,0.30119049549102783
1772594259103630000,4.104630126953125,-1.0407629013061523,-4.325849533081055,0.640552282333374
1772594259123894000,4.12489404296875,-1.5310137271881104,-6.503572463989258,0.9680030345916748
1772594259144158000,4.145157958984375,-1.9824812412261963,-8.453269958496094,1.3199940919876099
1772594259164421000,4.165421142578125,-2.322171688079834,-10.055755615234375,1.6562068462371826
1772594259184685000,4.18568505859375,-2.3053834438323975,-11.01199722290039,1.9430584907531738
1772594259204949000,4.205948974609375,-2.2046852111816406,-10.91663932800293,2.1035423278808594
1772594259225212000,4.2262119140625,-1.9670143127441406,-9.881082534790039,1.9824955463409424
1772594259245476000,4.24647607421875,-1.6928505897521973,-8.095186233520508,1.540555477142334
1772594259265740000,4.266739990234375,-1.3553240299224854,-5.950057029724121,1.111079454421997
1772594259286003000,4.2870029296875,-0.9698374271392822,-3.8290185928344727,0.7313122749328613
1772594259306267000,4.307266845703125,-0.5073695182800293,-1.7606563568115234,0.3624379634857178
1772594259326531000,4.327531005859375,0.04573941230773926,0.1410236358642578,-0.031674861907958984
1772594259346794000,4.3477939453125,0.6432294845581055,1.8017158508300781,-0.44316530227661133
1772594259367058000,4.368057861328125,1.3056378364562988,3.2707772254943848,-0.8497003316879272
1772594259387322000,4.388322021484375,2.0307397842407227,4.398388862609863,-1.172560214996338
1772594259407585000,4.4085849609375,2.654855251312256,5.0627641677856445,-1.350348711013794
1772594259427849000,4.428848876953125,3.116281747817993,5.532233715057373,-1.3446744680404663
1772594259448113000,4.44911279296875,3.3405027389526367,5.862203121185303,-1.4334925413131714
1772594259468376000,4.4693759765625,3.35129976272583,6.183664321899414,-1.4506165981292725
1772594259488640000,4.489639892578125,3.6806130409240723,6.23445463180542,-1.3992946147918701
1772594259508904000,4.509904052734375,4.333073616027832,5.6840434074401855,-1.1039552688598633
1772594259529167000,4.5301669921875,4.112429141998291,5.384848594665527,-1.041161298751831
1772594259549431000,4.55043115234375,3.1727490425109863,5.121407508850098,-0.9627021551132202
1772594259569695000,4.570695068359375,1.9765737056732178,4.048847675323486,-0.9395473003387451
1772594259589958000,4.5909580078125,0.8986122608184814,2.321141242980957,-0.5908036231994629
1772594259610222000,4.61122216796875,0.09180617332458496,0.29566383361816406,-0.0683739185333252
1772594259630486000,4.631486083984375,-0.46788597106933594,-1.8172178268432617,0.3683844804763794
1772594259650749000,4.6517490234375,-0.8906300067901611,-3.9961490631103516,0.7075495719909668
1772594259671013000,4.67201318359375,-1.2490568161010742,-6.055737495422363,0.9686394929885864
1772594259691277000,4.692277099609375,-1.4698047637939453,-7.8912763595581055,1.138771653175354
1772594259711540000,4.7125400390625,-1.4972875118255615,-9.3472261428833,1.2570288181304932
1772594259731804000,4.732803955078125,-1.600095272064209,-10.188310623168945,1.309266209602356
1772594259752068000,4.753068115234375,-1.7231218814849854,-10.2177152633667,1.2746150493621826
1772594259772331000,4.7733310546875,-1.7086098194122314,-9.52765941619873,1.0660734176635742
1772594259792595000,4.793594970703125,-1.5962836742401123,-7.970847129821777,0.7656965255737305
1772594259812859000,4.81385888671875,-1.3764386177062988,-6.071393966674805,0.6043421626091003
1772594259833122000,4.8341220703125,-1.0504863262176514,-4.072422027587891,0.4755582809448242
1772594259853386000,4.854385986328125,-0.5975914001464844,-2.027632713317871,0.30242836475372314
1772594259873650000,4.87464990234375,-0.042279958724975586,-0.12623023986816406,0.0245819091796875
1772594259893913000,4.8949130859375,0.5745327472686768,1.4887819290161133,-0.3752472400665283
1772594259914177000,4.915177001953125,1.2479548454284668,2.838719367980957,-0.9100255966186523
1772594259934441000,4.93544091796875,1.844146490097046,3.9015274047851562,-1.519173264503479
1772594259954704000,4.955703857421875,2.2404918670654297,4.676872253417969,-2.1562721729278564
1772594259974968000,4.975968017578125,2.4575467109680176,5.288873672485352,-2.963327646255493
1772594259995232000,4.99623193359375,2.124654531478882,5.795870780944824,-3.6228318214416504
1772594260015495000,5.016494873046875,1.8670506477355957,6.269533157348633,-3.984344482421875
1772594260035759000,5.036759033203125,1.8692245483398438,6.6994805335998535,-3.993119239807129
1772594260056023000,5.05702294921875,2.051043748855591,7.206298828125,-3.3486838340759277
1772594260076286000,5.077285888671875,3.4327220916748047,7.162106037139893,-1.5854867696762085
1772594260096550000,5.0975498046875,3.230053663253784,6.616244316101074,-0.8028167486190796
1772594260116814000,5.11781396484375,2.2236146926879883,5.771412372589111,-0.4741184413433075
1772594260137077000,5.138076904296875,1.1754552125930786,4.265111923217773,-0.3766283392906189
1772594260157341000,5.1583408203125,0.4341386556625366,2.0774106979370117,-0.2888742685317993
1772594260177605000,5.178605224609375,-0.07999491691589355,-0.47275352478027344,0.08023416996002197
1772594260197868000,5.198867919921875,-0.46362948417663574,-3.0587377548217773,0.5713496208190918
1772594260218132000,5.219132080078125,-0.7801012992858887,-5.518813133239746,0.9739141464233398
1772594260238396000,5.23939599609375,-1.1076104640960693,-7.672767639160156,1.1642968654632568
1772594260258659000,5.2596591796875,-1.4725205898284912,-9.396459579467773,1.2147836685180664
1772594260278923000,5.279923095703125,-1.6442298889160156,-10.660745620727539,1.2529592514038086
1772594260299187000,5.30018701171875,-1.6995601654052734,-11.070367813110352,1.2170629501342773
1772594260319450000,5.3204501953125,-1.6730751991271973,-10.677665710449219,1.1927889585494995
1772594260339714000,5.340714111328125,-1.543224573135376,-9.375234603881836,1.0766404867172241
1772594260359978000,5.36097802734375,-1.2969226837158203,-7.4169511795043945,0.7434720993041992
1772594260380241000,5.381240966796875,-0.9782798290252686,-5.083361625671387,0.42237842082977295
1772594260400505000,5.401505126953125,-0.5774827003479004,-2.7407236099243164,0.16544413566589355
1772594260420769000,5.42176904296875,-0.10687947273254395,-0.45269012451171875,0.02776658535003662
1772594260441033000,5.442032958984375,0.38163673877716064,1.5292935371398926,-0.15892618894577026
1772594260461296000,5.462296142578125,0.7817316055297852,3.2434515953063965,-0.549752950668335
1772594260481560000,5.48256005859375,1.0194391012191772,4.535215854644775,-1.2054803371429443
1772594260501824000,5.502823974609375,1.0915364027023315,5.378464221954346,-2.051236629486084
1772594260522087000,5.5230869140625,1.1214863061904907,5.866064548492432,-2.965794801712036
1772594260542351000,5.54335107421875,1.3325700759887695,6.048940658569336,-3.607151985168457
1772594260562615000,5.563614990234375,1.7576103210449219,6.052102565765381,-4.066108703613281
1772594260582878000,5.5838779296875,2.276419162750244,6.127716064453125,-4.2302937507629395
1772594260603142000,5.604141845703125,3.245664358139038,6.016257286071777,-4.068007469177246
1772594260623406000,5.624406005859375,4.617796897888184,5.233913421630859,-3.2207605838775635
1772594260643669000,5.6446689453125,4.5933613777160645,4.776242256164551,-2.6650891304016113
1772594260663933000,5.664932861328125,3.630570411682129,4.639423370361328,-2.174100875854492
1772594260684197000,5.685197021484375,2.4101223945617676,4.168857574462891,-1.4448037147521973
1772594260704460000,5.7054599609375,1.2136847972869873,2.8817601203918457,-0.828423023223877
1772594260724724000,5.725723876953125,0.28254008293151855,0.9097185134887695,-0.2224559783935547
1772594260744988000,5.74598779296875,-0.33245253562927246,-1.3430395126342773,0.27679407596588135
1772594260765251000,5.7662509765625,-0.793952226638794,-3.699427604675293,0.645696759223938
1772594260785515000,5.786514892578125,-1.1740269660949707,-6.0942487716674805,0.9301891326904297
1772594260805779000,5.806779052734375,-1.4277687072753906,-8.22649097442627,1.1066782474517822
1772594260826042000,5.8270419921875,-1.4772560596466064,-9.976567268371582,1.1760735511779785
1772594260846306000,5.84730615234375,-1.498636245727539,-11.177592277526855,1.1076505184173584
1772594260866570000,5.867570068359375,-1.5307762622833252,-11.672456741333008,0.9922926425933838
1772594260886833000,5.8878330078125,-1.513658046722412,-11.315400123596191,0.8834075927734375
1772594260907097000,5.90809716796875,-1.480299472808838,-10.150650024414062,0.6685881018638611
1772594260927361000,5.928361083984375,-1.4208524227142334,-8.339930534362793,0.44689083099365234
1772594260947624000,5.9486240234375,-1.2557520866394043,-6.311526298522949,0.3030953109264374
1772594260967888000,5.968887939453125,-0.9356622695922852,-4.156124114990234,0.22534459829330444
1772594260988152000,5.989152099609375,-0.4765918254852295,-1.9202642440795898,0.12274998426437378
1772594261008415000,6.0094150390625,0.0365290641784668,0.11955928802490234,-0.010249555110931396
1772594261028679000,6.029678955078125,0.7402095794677734,2.0025787353515625,-0.23797136545181274
1772594261048943000,6.049943115234375,1.6324281692504883,3.6319708824157715,-0.5792075395584106
1772594261069206000,6.0702060546875,2.6076273918151855,4.834928035736084,-1.0970323085784912
1772594261089470000,6.090469970703125,3.6149868965148926,5.49032735824585,-1.9041342735290527
1772594261109734000,6.11073388671875,4.347771644592285,5.572486877441406,-3.0824429988861084
1772594261129997000,6.1309970703125,4.232222080230713,5.446906089782715,-4.511723041534424
1772594261150261000,6.151260986328125,3.5047945976257324,4.834379196166992,-6.17881441116333
1772594261170525000,6.17152490234375,3.455112934112549,3.9573099613189697,-7.041944980621338
1772594261190788000,6.1917880859375,5.845894813537598,2.80330753326416,-5.378805160522461
1772594261211052000,6.212052001953125,5.11009407043457,4.05677604675293,-4.668605804443359
1772594261231316000,6.23231591796875,3.48896861076355,5.127832412719727,-3.504830837249756
1772594261251579000,6.252578857421875,1.9933886528015137,4.497583866119385,-2.3413453102111816
1772594261271843000,6.272843017578125,0.9664021730422974,3.259141445159912,-1.278367519378662
1772594261292107000,6.29310693359375,0.35550475120544434,1.5801453590393066,-0.4997565746307373
1772594261312370000,6.313369873046875,-0.06000542640686035,-0.32999420166015625,0.09241557121276855
1772594261332634000,6.333634033203125,-0.34429192543029785,-2.2273168563842773,0.5892372131347656
1772594261352898000,6.35389794921875,-0.5268796682357788,-4.041233062744141,1.0280072689056396
1772594261373161000,6.374160888671875,-0.6691548824310303,-5.955837249755859,1.4178905487060547
1772594261393425000,6.3944248046875,-0.6212843656539917,-7.725432395935059,1.6994037628173828
1772594261413689000,6.414689208984375,-0.5773037672042847,-9.080217361450195,1.909510850906372
1772594261433952000,6.434951904296875,-0.5359483957290649,-9.653947830200195,1.9738117456436157
1772594261454216000,6.4552158203125,-0.47473955154418945,-9.465079307556152,1.8575160503387451
1772594261474480000,6.475480224609375,-0.519288182258606,-8.940628051757812,1.7725160121917725
1772594261494743000,6.495742919921875,-0.5416393280029297,-8.02674388885498,1.637169361114502
1772594261515007000,6.516007080078125,-0.5866658687591553,-6.769372940063477,1.41275954246521
1772594261535271000,6.53627099609375,-0.5955355167388916,-5.344722747802734,1.1039930582046509
1772594261555534000,6.5565341796875,-0.5700445175170898,-3.827495574951172,0.788964033126831
1772594261575798000,6.576798095703125,-0.36090946197509766,-2.02779483795166,0.4454329013824463
1772594261596062000,6.59706201171875,-0.018856406211853027,-0.10085868835449219,0.0244295597076416
1772594261616325000,6.6173251953125,0.3589506149291992,1.8002829551696777,-0.4764385223388672
1772594261636589000,6.637589111328125,0.7669684886932373,3.348391532897949,-0.9532673358917236
1772594261656853000,6.65785302734375,1.247249960899353,4.630904197692871,-1.4107534885406494
1772594261677116000,6.678115966796875,2.0871622562408447,5.469079971313477,-1.9861412048339844
1772594261697380000,6.698380126953125,3.1558918952941895,5.745645523071289,-2.4959716796875
1772594261717644000,6.71864404296875,3.8771555423736572,5.847001075744629,-2.7956044673919678
1772594261737908000,6.738907958984375,3.8757598400115967,5.0910539627075195,-3.5124545097351074
1772594261758171000,6.7591708984375,2.9980742931365967,4.240323066711426,-3.202173948287964
1772594261778435000,6.77943505859375,1.9619510173797607,3.3214988708496094,-2.166128396987915
1772594261798699000,6.799698974609375,1.0613079071044922,2.171759605407715,-1.1826558113098145
1772594261818962000,6.8199619140625,0.3109242916107178,0.7729692459106445,-0.37037062644958496
1772594261839226000,6.84022607421875,-0.23407292366027832,-0.6920490264892578,0.30653953552246094
1772594261859490000,6.860489990234375,-0.6233887672424316,-2.098295211791992,0.8752436637878418
1772594261879753000,6.8807529296875,-0.889338493347168,-3.3494129180908203,1.3842015266418457
1772594261900017000,6.901016845703125,-1.0889058113098145,-4.474173545837402,1.9135165214538574
1772594261920281000,6.921281005859375,-1.171867847442627,-5.267779350280762,2.3767402172088623
1772594261940544000,6.9415439453125,-0.9921083450317383,-5.581624984741211,2.531053066253662
1772594261960808000,6.961807861328125,-0.5809991359710693,-5.2366180419921875,2.309889316558838
1772594261981072000,6.98207177734375,-0.259699285030365,-4.418017387390137,1.9457478523254395
1772594262001335000,7.0023349609375,-0.1635648012161255,-3.428257942199707,1.5333282947540283
1772594262021599000,7.022598876953125,-0.14802145957946777,-2.4220142364501953,1.0847175121307373
1772594262041863000,7.04286279296875,-0.12066525220870972,-1.404801368713379,0.6194825172424316
1772594262062126000,7.0631259765625,-0.04436230659484863,-0.3784503936767578,0.16763758659362793
1772594262082390000,7.08339013671875,0.0855112075805664,0.5609321594238281,-0.23405170440673828
1772594262102654000,7.103654052734375,0.19409894943237305,1.0699882507324219,-0.36171936988830566
1772594262122917000,7.123917236328125,0.21467852592468262,1.1518878936767578,-0.25899243354797363
1772594262143181000,7.14418115234375,0.16800212860107422,0.8641738891601562,-0.10726487636566162
1772594262163445000,7.164445068359375,0.043135762214660645,0.21567535400390625,-0.018460392951965332
1772594262183708000,7.1847080078125,-0.0944756269454956,-0.5306415557861328,0.04668688774108887
1772594262203972000,7.20497216796875,-0.15086853504180908,-1.2490367889404297,0.14646458625793457
1772594262224236000,7.225236083984375,-0.18304264545440674,-2.0197410583496094,0.2843811511993408
1772594262244499000,7.2454990234375,-0.26224303245544434,-2.999479293823242,0.46889567375183105
1772594262264763000,7.265762939453125,-0.3022240400314331,-4.15287971496582,0.6630510091781616
1772594262285027000,7.286027099609375,-0.23694348335266113,-5.427414894104004,0.9052654504776001
1772594262305290000,7.3062900390625,-0.12450498342514038,-6.450868606567383,1.2088451385498047
1772594262325554000,7.326553955078125,-0.051407136023044586,-7.2017669677734375,1.5512182712554932
1772594262345818000,7.346818115234375,-0.009830724447965622,-7.696606636047363,1.8352837562561035
1772594262366081000,7.3670810546875,-0.0019728122279047966,-7.807628631591797,1.8466341495513916
1772594262386345000,7.387344970703125,-0.04766692966222763,-7.588170051574707,1.640688419342041
1772594262406609000,7.40760888671875,-0.15333524346351624,-7.178079605102539,1.3276755809783936
1772594262426872000,7.4278720703125,-0.10962727665901184,-6.464383125305176,1.0497798919677734
1772594262447136000,7.448135986328125,0.07334890961647034,-5.5360612869262695,0.8448693752288818
1772594262467400000,7.46839990234375,0.1608215570449829,-4.228788375854492,0.64920973777771
1772594262487663000,7.4886630859375,0.13764208555221558,-2.819891929626465,0.4669840335845947
1772594262507927000,7.508927001953125,0.08932888507843018,-1.2683753967285156,0.2568800449371338
1772594262528191000,7.52919091796875,-0.019141197204589844,0.18820476531982422,-0.0520932674407959
1772594262548454000,7.549453857421875,-0.222525954246521,1.504140853881836,-0.6056814193725586
1772594262568718000,7.569718017578125,-0.49723517894744873,2.259532928466797,-1.4309172630310059
1772594262609245000,7.610244873046875,-0.7544358968734741,1.5722556114196777,-2.4605984687805176
1772594262629509000,7.630509033203125,-0.7291622161865234,0.9926865100860596,-2.2143349647521973
1772594262649773000,7.65077294921875,-0.667060136795044,0.5998268127441406,-1.7737059593200684
1772594262670036000,7.671035888671875,-0.5098903179168701,0.35263729095458984,-1.1639976501464844
1772594262690300000,7.6912998046875,-0.36774134635925293,0.21025776863098145,-0.7219839096069336
1772594262710564000,7.711564208984375,-0.35081005096435547,0.18088221549987793,-0.5854291915893555
1772594262730827000,7.731826904296875,-0.4683818817138672,0.2259535789489746,-0.6599225997924805
1772594262751091000,7.752091064453125,-0.6314597129821777,0.2839071750640869,-0.7400460243225098
1772594262771355000,7.77235498046875,-0.8505959510803223,0.3424239158630371,-0.789090633392334
1772594262791618000,7.7926181640625,-1.034742832183838,0.36270856857299805,-0.7499871253967285
1772594262811882000,7.812882080078125,-1.2309379577636719,0.3652055263519287,-0.6940248012542725
1772594262832146000,7.83314599609375,-1.422837257385254,0.36132919788360596,-0.6447172164916992
1772594262852409000,7.8534091796875,-1.6560044288635254,0.32686376571655273,-0.615006685256958
1772594262872673000,7.873673095703125,-1.830409049987793,0.261061429977417,-0.5614442825317383
1772594262892937000,7.89393701171875,-1.8351812362670898,0.16450059413909912,-0.47720980644226074
1772594262913200000,7.9142001953125,-1.7584962844848633,0.06925177574157715,-0.40949034690856934
1772594262933464000,7.934464111328125,-1.5599384307861328,-0.01173333078622818,-0.3369346857070923
1772594262953728000,7.95472802734375,-1.3532752990722656,-0.053447216749191284,-0.27246689796447754
1772594262973991000,7.974990966796875,-1.2902154922485352,-0.09591799974441528,-0.25902700424194336
1772594262994255000,7.995255126953125,-1.233358383178711,-0.12229782342910767,-0.24664270877838135
1772594263014519000,8.01551904296875,-1.077789306640625,-0.1185988187789917,-0.21135413646697998
1772594263034783000,8.035782958984376,-0.9160375595092773,-0.10987591743469238,-0.17558979988098145
1772594263055046000,8.0560458984375,-0.7648210525512695,-0.09291350841522217,-0.14296936988830566
1772594263075310000,8.07631005859375,-0.7039470672607422,-0.08845126628875732,-0.12921559810638428
1772594263095574000,8.096573974609376,-0.7151651382446289,-0.10075521469116211,-0.12947583198547363
1772594263115837000,8.1168369140625,-0.7336769104003906,-0.11546099185943604,-0.1303614377975464
1772594263136101000,8.13710107421875,-0.8103933334350586,-0.15010285377502441,-0.14182257652282715
1772594263156365000,8.157364990234376,-0.8708724975585938,-0.18621230125427246,-0.14926445484161377
1772594263176628000,8.1776279296875,-0.857421875,-0.19591140747070312,-0.14177775382995605
1772594263196892000,8.197891845703126,-0.8425912857055664,-0.2046666145324707,-0.12539374828338623
1772594263217156000,8.218156005859376,-0.7939462661743164,-0.21105074882507324,-0.10532546043395996
1772594263237419000,8.2384189453125,-0.7328739166259766,-0.21157193183898926,-0.0857536792755127
1772594263257683000,8.258682861328126,-0.5824995040893555,-0.17940163612365723,-0.05886662006378174
1772594263277947000,8.27894677734375,-0.36580371856689453,-0.11803936958312988,-0.03155386447906494
1772594263298210000,8.2992099609375,-0.14966869354248047,-0.05021953582763672,-0.010936617851257324
1772594263318474000,8.319473876953126,0.06596660614013672,0.022882461547851562,0.004045069217681885
1772594263338738000,8.339738037109376,0.25450611114501953,0.08895683288574219,0.012904196977615356
1772594263359001000,8.3600009765625,0.33799266815185547,0.1204991340637207,0.014139324426651001
1772594263379265000,8.38026513671875,0.4132680892944336,0.15044403076171875,0.01399412751197815
1772594263399529000,8.400529052734376,0.48284339904785156,0.17932367324829102,0.01729002594947815
1772594263419792000,8.4207919921875,0.5256423950195312,0.19510293006896973,0.02007436752319336
1772594263440056000,8.44105615234375,0.5662326812744141,0.21014833450317383,0.02320331335067749
1772594263460320000,8.461320068359376,0.5256376266479492,0.1969447135925293,0.023100078105926514
1772594263480583000,8.4815830078125,0.4218330383300781,0.16123723983764648,0.019713252782821655
1772594263500847000,8.50184716796875,0.3167133331298828,0.12381720542907715,0.015760362148284912
1772594263521111000,8.522111083984376,0.21733570098876953,0.08699274063110352,0.011456787586212158
1772594263541374000,8.5423740234375,0.12937545776367188,0.05296659469604492,0.00722271203994751
1772594263561638000,8.562637939453126,0.14169692993164062,0.058519601821899414,0.008235514163970947
1772594263581902000,8.582902099609376,0.15777206420898438,0.06561970710754395,0.009530365467071533
1772594263602165000,8.6031650390625,0.17373371124267578,0.07273602485656738,0.010819733142852783
1772594263622429000,8.623428955078126,0.18609333038330078,0.07838773727416992,0.011830151081085205
1772594263642693000,8.643693115234376,0.19382381439208984,0.08212685585021973,0.012432634830474854
1772594263662956000,8.6639560546875,0.20210552215576172,0.08595728874206543,0.013079166412353516
1772594263683220000,8.684219970703126,0.21496963500976562,0.09153246879577637,0.014051437377929688
1772594263703484000,8.70448388671875,0.23386859893798828,0.09952068328857422,0.015487074851989746
1772594263723747000,8.7247470703125,0.25382232666015625,0.10769319534301758,0.017074525356292725
1772594263744011000,8.745010986328126,0.2676067352294922,0.11312437057495117,0.018281221389770508
1772594263764275000,8.76527490234375,0.2776947021484375,0.11690783500671387,0.019228637218475342
1772594263784538000,8.7855380859375,0.28105831146240234,0.11781048774719238,0.019685983657836914
1772594263804802000,8.805802001953126,0.2827625274658203,0.11787676811218262,0.02014380693435669
1772594263825066000,8.82606591796875,0.28071022033691406,0.11623477935791016,0.020420193672180176
1772594263845329000,8.846328857421875,0.2775106430053711,0.11391925811767578,0.020654261112213135
1772594263865593000,8.866593017578126,0.2740468978881836,0.11150693893432617,0.02074718475341797
1772594263885857000,8.88685693359375,0.26828956604003906,0.1082150936126709,0.020594239234924316
1772594263906120000,8.907119873046875,0.2586250305175781,0.10343647003173828,0.019924521446228027
1772594263926384000,8.927384033203126,0.2440328598022461,0.09689855575561523,0.01876157522201538
1772594263946648000,8.94764794921875,0.22813034057617188,0.09000039100646973,0.0174943208694458
1772594263966911000,8.967910888671875,0.2122964859008789,0.08324027061462402,0.016221165657043457
1772594263987175000,8.9881748046875,0.19823837280273438,0.0772244930267334,0.01507037878036499
1772594264007439000,9.008439208984376,0.1849079132080078,0.07156205177307129,0.013944387435913086
1772594264027702000,9.028701904296875,0.17563724517822266,0.06752920150756836,0.0130767822265625
1772594264047966000,9.048966064453126,0.16761493682861328,0.06406784057617188,0.012330472469329834
1772594264068230000,9.06922998046875,0.1549692153930664,0.05892610549926758,0.011303305625915527
1772594264088493000,9.0894931640625,0.13705921173095703,0.0518956184387207,0.009892940521240234
1772594264108757000,9.109757080078126,0.11577033996582031,0.0436863899230957,0.008246898651123047
1772594264129021000,9.13002099609375,0.09760379791259766,0.036721229553222656,0.006849408149719238
1772594264169548000,9.170548095703126,0.08377838134765625,0.031281232833862305,0.005587875843048096
