time,seconds_elapsed,z,y,x
1772593836668271000,0.27327099609375,8.1417818069458,-3.149273157119751,0.628477931022644
1772593836688534000,0.293533935546875,8.120234489440918,-3.059490442276001,2.1320366859436035
1772593836708798000,0.3137978515625,8.18757152557373,-2.2143373489379883,4.028543472290039
1772593836729062000,0.334061767578125,9.045293807983398,-1.3332710266113281,5.512050628662109
1772593836749325000,0.354324951171875,6.346729278564453,-0.5907692909240723,8.52365779876709
1772593836769589000,0.374589111328125,0.8349778652191162,2.5189995765686035,8.592789649963379
1772593836789853000,0.39485302734375,-2.990058660507202,3.565265655517578,10.017339706420898
1772593836810116000,0.4151162109375,-3.0541036128997803,3.5296518802642822,10.088567733764648
1772593836830380000,0.435380126953125,-3.001730442047119,2.6572647094726562,9.280524253845215
1772593836850644000,0.45564404296875,-2.055422067642212,1.3626000881195068,8.371625900268555
1772593836870907000,0.475906982421875,-2.126051187515259,0.12000936269760132,7.590517044067383
1772593836891171000,0.496171142578125,-3.1187469959259033,-0.9005191326141357,6.222230911254883
1772593836911435000,0.51643505859375,-3.1349079608917236,-1.657685399055481,4.806359767913818
1772593836931698000,0.536697998046875,-3.0690672397613525,-3.224391222000122,4.774936199188232
1772593836951962000,0.556962158203125,-2.0808606147766113,-4.929062843322754,5.6542067527771
1772593836972226000,0.57722607421875,-1.169268250465393,-6.343138217926025,7.32505989074707
1772593836992489000,0.597489013671875,-1.173158884048462,-7.773972988128662,8.382399559020996
1772593837012753000,0.6177529296875,-1.9500772953033447,-9.470563888549805,9.303269386291504
1772593837033017000,0.63801708984375,-2.0299837589263916,-10.653299331665039,9.328707695007324
1772593837053280000,0.658280029296875,-2.0766706466674805,-10.639832496643066,8.52605152130127
1772593837073544000,0.6785439453125,-2.879326820373535,-11.694478034973145,8.616133689880371
1772593837093808000,0.69880810546875,-2.9319992065429688,-12.467206954956055,8.619425773620605
1772593837114071000,0.719071044921875,-1.8444331884384155,-13.866019248962402,6.10401725769043
1772593837134335000,0.7393349609375,-1.8519150018692017,-13.88277816772461,4.5283331871032715
1772593837154599000,0.759598876953125,-1.8189947605133057,-12.616844177246094,4.434959411621094
1772593837174862000,0.779862060546875,-0.0002992752124555409,-11.060014724731445,3.5476083755493164
1772593837195126000,0.8001259765625,1.1683704853057861,-9.238924980163574,3.54671049118042
1772593837215390000,0.820389892578125,1.2201449871063232,-7.31847620010376,4.689343452453613
1772593837235653000,0.840653076171875,1.2294225692749023,-5.502473831176758,6.674435615539551
1772593837255917000,0.8609169921875,1.1782464981079102,-4.574421405792236,8.008605003356934
1772593837276181000,0.881180908203125,1.139639973640442,-4.5480852127075195,7.999327182769775
1772593837296444000,0.90144384765625,1.1112089157104492,-4.567837715148926,6.901585578918457
1772593837316708000,0.9217080078125,0.2974795699119568,-4.642356872558594,6.8243727684021
1772593837336972000,0.941971923828125,0.2735375463962555,-5.509955883026123,6.781277179718018
1772593837357235000,0.96223486328125,0.30555999279022217,-6.509235858917236,6.756137847900391
1772593837377499000,0.982498779296875,1.4039000272750854,-7.273883819580078,6.736086368560791
1772593837397763000,1.00276318359375,1.4817116260528564,-8.077438354492188,6.681319236755371
1772593837418026000,1.02302587890625,2.3546974658966064,-9.123106002807617,5.751171588897705
1772593837438290000,1.0432900390625,2.3807342052459717,-9.16889476776123,5.7089738845825195
1772593837458554000,1.06355419921875,2.3831284046173096,-9.220070838928223,4.9479169845581055
1772593837478817000,1.083817138671875,2.3651719093322754,-9.980828285217285,4.196436882019043
1772593837499081000,1.1040810546875,2.31758713722229,-10.008062362670898,3.376422882080078
1772593837519345000,1.124344970703125,2.236483573913574,-10.052953720092773,3.2866404056549072
1772593837539608000,1.144608154296875,1.1435306072235107,-10.10173511505127,2.419041633605957
1772593837559872000,1.1648720703125,1.114800214767456,-10.108319282531738,2.480692148208618
1772593837580136000,1.185135986328125,1.0923545360565186,-10.021230697631836,3.261800527572632
1772593837600399000,1.205399169921875,1.0830769538879395,-9.208698272705078,4.606144905090332
1772593837620663000,1.2256630859375,1.0989385843276978,-9.140463829040527,4.68874454498291
1772593837640927000,1.245927001953125,1.114800214767456,-8.1139497756958,5.577592372894287
1772593837661190000,1.26618994140625,1.0983400344848633,-8.101978302001953,5.638943672180176
1772593837681454000,1.2864541015625,0.17328034341335297,-8.144475936889648,6.652289390563965
1772593837701718000,1.306718017578125,-0.5982511639595032,-9.511265754699707,6.711246490478516
1772593837721981000,1.32698095703125,-0.6159083843231201,-10.647613525390625,7.572261333465576
1772593837742245000,1.3472451171875,-0.5629366636276245,-10.73141098022461,7.55011510848999
1772593837762509000,1.367509033203125,-0.4982932209968567,-11.59631633758545,6.674435615539551
1772593837782772000,1.38777197265625,-0.4315548539161682,-11.569380760192871,5.571307182312012
1772593837803036000,1.408035888671875,0.383670836687088,-11.591826438903809,4.746205806732178
1772593837823300000,1.428300048828125,0.38905778527259827,-11.561599731445312,4.765957832336426
1772593837843563000,1.44856298828125,0.31453824043273926,-10.656292915344238,5.765836238861084
1772593837863827000,1.468826904296875,0.2552817463874817,-9.82759952545166,5.828384876251221
1772593837884091000,1.4890908203125,0.2041056901216507,-9.770736694335938,5.772719383239746
1772593837904354000,1.50935400390625,0.21966800093650818,-9.734824180603027,4.872499942779541
1772593837924618000,1.529617919921875,0.2570773959159851,-9.69502067565918,3.8325183391571045
1772593837944882000,1.5498818359375,0.2495955228805542,-8.926780700683594,2.5115175247192383
1772593837965146000,1.57014599609375,0.23074118793010712,-8.144774436950684,1.6328455209732056
1772593837985409000,1.590408935546875,0.15981295704841614,-6.949769020080566,0.7649474143981934
1772593838005673000,1.6106728515625,0.09457096457481384,-5.946000099182129,0.7197569012641907
1772593838025937000,1.63093701171875,0.026336219161748886,-5.1256866455078125,0.6467337608337402
1772593838046200000,1.651199951171875,0.005386953707784414,-5.09575891494751,0.5764040350914001
1772593838066464000,1.671464111328125,-0.04369417950510979,-5.08648157119751,0.5422866940498352
1772593838086728000,1.69172802734375,-0.9968857169151306,-5.851428985595703,1.4209587574005127
1772593838106991000,1.7119912109375,-2.638111114501953,-8.741230010986328,6.4846954345703125
1772593838127255000,1.732255126953125,-3.645172119140625,-11.398494720458984,13.28602409362793
1772593838147519000,1.75251904296875,-3.6706104278564453,-11.412261962890625,14.391845703125
1772593838167782000,1.772781982421875,-2.586935043334961,-10.478523254394531,13.44404125213623
1772593838188046000,1.793046142578125,-1.5999252796173096,-9.679757118225098,9.61571216583252
1772593838208310000,1.81331005859375,-1.5568296909332275,-9.732131004333496,5.368099689483643
1772593838228573000,1.833572998046875,-0.06374561786651611,-10.473135948181152,2.6827030181884766
1772593838248837000,1.853837158203125,0.8670002818107605,-10.415675163269043,1.7357962131500244
1772593838269101000,1.87410107421875,0.9020155072212219,-10.367791175842285,0.9597756266593933
1772593838289364000,1.894364013671875,0.8637082576751709,-10.47822380065918,0.9418190717697144
1772593838309628000,1.9146279296875,3.688267707824707,-10.514735221862793,-1.6615760326385498
1772593838329892000,1.93489208984375,4.537311553955078,-10.467150688171387,-3.0930092334747314
1772593838350155000,1.955155029296875,4.538508415222168,-9.570821762084961,-3.931877851486206
1772593838370419000,1.9754189453125,3.726275682449341,-8.526650428771973,-3.9013516902923584
1772593838390683000,1.995682861328125,1.9396026134490967,-8.46859073638916,-3.8289270401000977
1772593838410946000,2.015946044921875,0.20141221582889557,-8.517073631286621,-2.2631192207336426
1772593838431210000,2.0362099609375,-0.6009446382522583,-9.922470092773438,-0.17058686912059784
1772593838451474000,2.056473876953125,-0.5674257874488831,-11.050737380981445,1.7462708950042725
1772593838471737000,2.076737060546875,-0.5060743689537048,-11.008539199829102,2.663848638534546
1772593838492001000,2.0970009765625,0.4016273319721222,-10.029610633850098,1.7525556087493896
1772593838512265000,2.117264892578125,0.44023382663726807,-10.012850761413574,1.6720505952835083
1772593838532528000,2.137528076171875,0.4626794755458832,-10.005967140197754,1.625662922859192
1772593838552792000,2.1577919921875,0.43335050344467163,-10.004470825195312,1.6214730739593506
1772593838573056000,2.178055908203125,0.375291109085083,-10.014646530151367,1.6169840097427368
1772593838593319000,2.19831884765625,0.3354875147342682,-10.064326286315918,1.6211738586425781
1772593838613583000,2.2185830078125,0.333991140127182,-10.887931823730469,1.6929998397827148
1772593838633847000,2.238846923828125,0.3531447649002075,-10.906486511230469,2.576460361480713
1772593838654110000,2.25910986328125,0.3833715617656708,-10.876259803771973,3.402759075164795
1772593838674374000,2.279373779296875,0.3669114112854004,-10.926239013671875,4.440047264099121
1772593838694638000,2.29963818359375,-0.4770447015762329,-11.839925765991211,5.441720962524414
1772593838714908000,2.319907958984375,-0.50876784324646,-12.801796913146973,6.211457252502441
1772593838735172000,2.340172119140625,-0.5153518915176392,-12.835614204406738,6.291064262390137
1772593838755436000,2.36043603515625,-0.4471171796321869,-12.901155471801758,6.303633689880371
1772593838775699000,2.380698974609375,1.5454572439193726,-12.960113525390625,4.962581634521484
1772593838795963000,2.400962890625,2.464531421661377,-12.993332862854004,3.362057685852051
1772593838816227000,2.42122705078125,2.4893712997436523,-12.95233154296875,2.454056739807129
1772593838836490000,2.441489990234375,2.4169466495513916,-11.903372764587402,2.4334068298339844
1772593838856754000,2.46175390625,1.4730325937271118,-11.845911026000977,2.4187421798706055
1772593838877018000,2.48201806640625,1.4888942241668701,-11.792341232299805,2.4328081607818604
1772593838897281000,2.502281005859375,1.5248072147369385,-11.80251693725586,2.4914660453796387
1772593838917545000,2.522544921875,1.559523105621338,-11.879429817199707,2.5115175247192383
1772593838937809000,2.542808837890625,2.485480546951294,-11.92013168334961,1.4000093936920166
1772593838958072000,2.563072021484375,2.5393502712249756,-11.877933502197266,-0.004489128012210131
1772593838978336000,2.5833359375,2.5552117824554443,-10.243891716003418,-1.0450690984725952
1772593838998600000,2.603599853515625,2.5300726890563965,-8.723872184753418,-1.1195886135101318
1772593839018863000,2.623863037109375,2.495356798171997,-7.38132381439209,-2.018611192703247
1772593839039127000,2.644126953125,2.445377826690674,-6.054337501525879,-2.098517894744873
1772593839059391000,2.664390869140625,2.3953988552093506,-4.951807498931885,-2.8110921382904053
1772593839079654000,2.68465380859375,1.4392144680023193,-4.1063551902771,-2.8098950386047363
1772593839099918000,2.70491796875,-1.182137131690979,-4.117129325866699,-2.7997195720672607
1772593839120182000,2.72518212890625,-4.50947904586792,-5.783792972564697,-0.93254154920578
1772593839140445000,2.74544482421875,-4.599860191345215,-8.65743350982666,2.5393502712249756
1772593839160709000,2.765709228515625,-2.2834699153900146,-10.16488265991211,2.5848400592803955
1772593839180973000,2.78597314453125,0.3678092360496521,-11.629236221313477,1.1563993692398071
1772593839201236000,2.806236083984375,-2.685396432876587,-11.703755378723145,-4.405331134796143
1772593839221500000,2.8265,-1.6585832834243774,-17.435474395751953,-4.484339714050293
1772593839241764000,2.84676416015625,-2.8541877269744873,-19.672555923461914,-1.8782511949539185
1772593839262027000,2.867027099609375,-1.414973258972168,-18.318635940551758,0.267851322889328
1772593839282291000,2.887291015625,0.24480712413787842,-14.214674949645996,1.3407529592514038
1772593839302555000,2.907554931640625,1.3721768856048584,-11.18660831451416,1.4089876413345337
1772593839322818000,2.927818115234375,2.275688648223877,-8.935460090637207,2.3382372856140137
1772593839343082000,2.94808203125,2.30022931098938,-7.988852500915527,3.1552586555480957
1772593839363346000,2.968345947265625,2.257133722305298,-7.209839344024658,4.0545806884765625
1772593839383609000,2.988609130859375,1.479616641998291,-7.273584842681885,4.126107215881348
1772593839403873000,3.008873046875,1.423951506614685,-8.20612621307373,4.143764495849609
1772593839424137000,3.029136962890625,1.437418818473816,-8.28782844543457,4.1087493896484375
1772593839444400000,3.049400146484375,1.5053542852401733,-9.06055736541748,4.039317607879639
1772593839464664000,3.0696640625,2.291550397872925,-9.042001724243164,3.9695863723754883
1772593839484928000,3.089927978515625,2.3708581924438477,-9.034819602966309,3.9049429893493652
1772593839505192000,3.11019189453125,3.288435935974121,-9.015067100524902,3.8594532012939453
1772593839525455000,3.130455078125,4.119523525238037,-8.255805969238281,2.686593532562256
1772593839545719000,3.150718994140625,4.084807395935059,-8.210914611816406,1.423951506614685
1772593839565983000,3.17098291015625,3.3303346633911133,-8.167220115661621,0.10265139490365982
1772593839586246000,3.191245849609375,3.244741916656494,-8.253412246704102,0.0347159244120121
1772593839606510000,3.211510009765625,2.233191728591919,-9.478344917297363,0.05925649031996727
1772593839626774000,3.23177392578125,2.2170307636260986,-10.374674797058105,0.14425064623355865
1772593839647037000,3.252036865234375,2.2631192207336426,-10.45547866821289,0.19273324310779572
1772593839667301000,3.272301025390625,2.308908224105835,-11.319786071777344,0.20679916441440582
1772593839687565000,3.29256494140625,3.0340521335601807,-11.34582233428955,0.2124854028224945
1772593839707828000,3.312827880859375,3.06876802444458,-11.349114418029785,0.2504933476448059
1772593839728092000,3.333091796875,3.0615854263305664,-11.361085891723633,1.0118495225906372
1772593839748356000,3.353356201171875,3.0235774517059326,-11.371859550476074,1.09385085105896
1772593839768619000,3.373618896484375,2.9409775733947754,-11.339837074279785,1.9126678705215454
1772593839788883000,3.393883056640625,1.7540520429611206,-11.371560096740723,1.9039889574050903
1772593839809147000,3.41414697265625,-0.4240729808807373,-12.470499038696289,0.7463923692703247
1772593839829410000,3.43441015625,-1.66696298122406,-12.547711372375488,0.6581062078475952
1772593839849674000,3.454674072265625,-2.528576374053955,-13.381492614746094,-0.18465280532836914
1772593839869938000,3.47493798828125,-2.5785553455352783,-13.423989295959473,-0.18136078119277954
1772593839890201000,3.495201171875,-2.631826162338257,-13.43715763092041,-0.16519992053508759
1772593839910465000,3.515465087890625,-2.6231472492218018,-12.649765014648438,-0.15891513228416443
1772593839930729000,3.53572900390625,-0.7975684404373169,-11.915942192077637,-0.19812019169330597
1772593839950992000,3.555991943359375,1.3281834125518799,-11.066598892211914,-0.24271219968795776
1772593839971256000,3.576256103515625,2.783858060836792,-9.935039520263672,-0.26994624733924866
1772593839991520000,3.59652001953125,3.626616954803467,-8.708909034729004,-0.25917232036590576
1772593840011783000,3.616782958984375,3.6840779781341553,-7.760505676269531,-0.20051439106464386
1772593840032047000,3.637047119140625,2.4112603664398193,-7.748534679412842,1.6531962156295776
1772593840052311000,3.65731103515625,1.4523825645446777,-8.7977933883667,2.836231231689453
1772593840072574000,3.677573974609375,0.6859387755393982,-9.818022727966309,2.8320412635803223
1772593840092838000,3.697837890625,0.661697506904602,-9.902118682861328,1.844732403755188
1772593840113102000,3.71810205078125,0.6269815564155579,-10.677840232849121,1.7585411071777344
1772593840133365000,3.738364990234375,0.6156091094017029,-9.792584419250488,0.8286930918693542
1772593840153629000,3.75862890625,0.6015431880950928,-8.850465774536133,-0.8200140595436096
1772593840173893000,3.77889306640625,0.5380968451499939,-7.65725564956665,-1.9000983238220215
1772593840194156000,3.799156005859375,-0.21039047837257385,-6.482600212097168,-2.7638065814971924
1772593840214420000,3.819419921875,-0.2795230448246002,-5.360318183898926,-2.826953649520874
1772593840234684000,3.839683837890625,-1.8698714971542358,-5.343259811401367,-2.797924041748047
1772593840254947000,3.859947021484375,-2.9478609561920166,-6.916848659515381,-0.6715735793113708
1772593840275211000,3.8802109375,-3.897461175918579,-10.626364707946777,2.6237456798553467
1772593840295475000,3.900474853515625,-3.9495348930358887,-14.014759063720703,5.74129581451416
1772593840315738000,3.920738037109375,-2.5312697887420654,-14.788984298706055,6.747159481048584
1772593840336002000,3.941001953125,-0.5994482636451721,-13.184868812561035,6.019920825958252
1772593840356266000,3.961265869140625,-1.3661913871765137,-13.11693286895752,4.449923038482666
1772593840376529000,3.98152880859375,-1.4098855257034302,-12.185888290405273,2.75003981590271
1772593840396793000,4.00179296875,-0.6634931564331055,-11.00015926361084,1.2141594886779785
1772593840417057000,4.02205712890625,-0.6009446382522583,-9.58788013458252,0.12629413604736328
1772593840437320000,4.04231982421875,-0.5315127968788147,-9.517550468444824,0.08110358566045761
1772593840457584000,4.062584228515625,0.21936872601509094,-9.567828178405762,0.013766659423708916
1772593840477848000,4.08284814453125,1.548449993133545,-10.490793228149414,-1.613093376159668
1772593840498111000,4.103111083984375,1.5945383310317993,-10.46475601196289,-2.3995885848999023
1772593840518375000,4.123375,1.5837644338607788,-9.528923034667969,-2.4019827842712402
1772593840538639000,4.14363916015625,1.5592238903045654,-8.640673637390137,-2.383427858352661
1772593840558902000,4.163902099609375,1.5978304147720337,-8.646958351135254,-2.305915594100952
1772593840579166000,4.184166015625,1.6594810485839844,-8.737040519714355,-1.3416507244110107
1772593840599430000,4.204429931640625,1.7357962131500244,-9.72734260559082,-0.30855274200439453
1772593840619693000,4.224693115234375,1.755847692489624,-9.757569313049316,-0.23193828761577606
1772593840639957000,4.24495703125,1.7322049140930176,-9.751882553100586,0.9534908533096313
1772593840660221000,4.265220947265625,0.7975684404373169,-9.71357536315918,1.8465280532836914
1772593840680484000,4.285484130859375,0.7212532758712769,-9.706692695617676,1.8644845485687256
1772593840700748000,4.305748046875,0.730231523513794,-9.762357711791992,1.8288707733154297
1772593840721012000,4.326011962890625,0.6551134586334229,-9.83687686920166,1.7851766347885132
1772593840741275000,4.34627490234375,0.6200982332229614,-10.614094734191895,1.787570834159851
1772593840761539000,4.3665390625,0.6886322498321533,-10.699986457824707,1.8824410438537598
1772593840781803000,4.386802978515625,0.7706336975097656,-10.768819808959961,3.1181483268737793
1772593840802067000,4.40706689453125,1.6157869100570679,-10.799345970153809,3.9309799671173096
1772593840822330000,4.427330078125,1.6364368200302124,-10.768819808959961,4.710891246795654
1772593840842594000,4.447593994140625,1.623568058013916,-10.807426452636719,5.638644218444824
1772593840862858000,4.46785791015625,0.5201402902603149,-10.888230323791504,5.6554036140441895
1772593840883121000,4.488120849609375,0.44442370533943176,-11.811494827270508,5.670966148376465
1772593840903385000,4.508385009765625,-0.34027591347694397,-11.839925765991211,5.673360347747803
1772593840923649000,4.52864892578125,-0.33039984107017517,-11.867758750915527,5.59794282913208
1772593840943912000,4.548911865234375,-0.30376434326171875,-11.882423400878906,4.441842555999756
1772593840964176000,4.56917578125,-0.2472013235092163,-11.961431503295898,3.3587656021118164
1772593840984440000,4.589440185546875,-0.3163338899612427,-13.080720901489258,2.075174331665039
1772593841004703000,4.609702880859375,-0.3621230125427246,-13.081917762756348,1.1192892789840698
1772593841024967000,4.629966796875,-0.3510498106479645,-12.057199478149414,0.3705027103424072
1772593841045231000,4.650231201171875,-0.36810851097106934,-11.116578102111816,0.3926490843296051
1772593841065494000,4.670493896484375,-0.38815996050834656,-11.031583786010742,0.4438251256942749
1772593841085758000,4.690758056640625,-0.38875851035118103,-10.128969192504883,0.48632222414016724
1772593841106022000,4.71102197265625,-0.3705027103424072,-10.075399398803711,0.4629787504673004
1772593841126285000,4.73128515625,-0.3672106862068176,-9.169792175292969,0.3992331326007843
1772593841146549000,4.751549072265625,-0.36990416049957275,-7.500734806060791,0.3250128924846649
1772593841166813000,4.77181298828125,-0.4076128304004669,-6.357203960418701,-0.49978959560394287
1772593841187076000,4.792076171875,-0.456095427274704,-5.463269233703613,-0.5377975702285767
1772593841207340000,4.812340087890625,-0.472555547952652,-5.395034313201904,-0.6039373874664307
1772593841227604000,4.83260400390625,-0.4174889326095581,-5.3330841064453125,-0.669179379940033
1772593841247867000,4.852866943359375,-0.38397011160850525,-5.308244228363037,-0.7023988962173462
1772593841268131000,4.873131103515625,-0.42347443103790283,-6.159981727600098,0.3693056106567383
1772593841288395000,4.89339501953125,-2.9212253093719482,-9.402628898620605,3.7268741130828857
1772593841308658000,4.913657958984375,-5.2124762535095215,-13.895647048950195,8.191162109375
1772593841328922000,4.933922119140625,-5.930737018585205,-15.487791061401367,10.489895820617676
1772593841349186000,4.95418603515625,-4.358943462371826,-14.453495979309082,9.560945510864258
1772593841369449000,4.974448974609375,-2.9427731037139893,-12.71141529083252,7.231387138366699
1772593841389713000,4.994712890625,-2.9146413803100586,-11.816283226013184,4.771943092346191
1772593841409977000,5.01497705078125,-2.8535890579223633,-11.735179901123047,3.007715940475464
1772593841430240000,5.035239990234375,-1.0639233589172363,-9.880870819091797,1.9922751188278198
1772593841450504000,5.05550390625,-0.22774843871593475,-8.752602577209473,1.9446903467178345
1772593841470768000,5.07576806640625,0.6709750294685364,-8.67718505859375,1.8833389282226562
1772593841491031000,5.096031005859375,1.7289129495620728,-8.673893928527832,0.823006808757782
1772593841511295000,5.116294921875,3.022679567337036,-9.838672637939453,0.7628524899482727
1772593841531559000,5.136558837890625,4.629488468170166,-9.868001937866211,-0.005985504016280174
1772593841551822000,5.156822021484375,4.709993362426758,-9.829694747924805,-0.011671733111143112
1772593841572086000,5.1770859375,4.701014995574951,-9.78480339050293,-0.015263035893440247
1772593841592350000,5.197349853515625,1.482310175895691,-9.788095474243164,-0.005985504016280174
1772593841612613000,5.217613037109375,-0.5871779918670654,-9.843461036682129,0.008978256024420261
1772593841632877000,5.237876953125,-0.5461772680282593,-9.879075050354004,0.01975216343998909
1772593841653141000,5.25814111328125,0.30705636739730835,-9.836277961730957,0.08619125932455063
1772593841673404000,5.27840380859375,1.2527660131454468,-9.07911205291748,0.9463081955909729
1772593841693668000,5.298668212890625,1.2635399103164673,-9.067440032958984,1.015440821647644
1772593841713932000,5.31893212890625,1.246780514717102,-9.084798812866211,1.0732009410858154
1772593841734195000,5.33919482421875,1.226729154586792,-9.112930297851562,1.082777738571167
1772593841754459000,5.359458984375,1.1979986429214478,-9.943120002746582,1.0591349601745605
1772593841774723000,5.37972314453125,1.1662755012512207,-9.992500305175781,1.0181342363357544
1772593841794986000,5.399986083984375,1.1324573755264282,-10.05774211883545,1.0124480724334717
1772593841815250000,5.42025,1.0854711532592773,-10.769119262695312,1.0630255937576294
1772593841835514000,5.44051416015625,1.127070426940918,-10.765827178955078,2.503437042236328
1772593841855777000,5.460777099609375,1.9826983213424683,-10.74068832397461,3.633500337600708
1772593841876041000,5.481041015625,1.975814938545227,-10.715250015258789,3.700537919998169
1772593841896305000,5.501304931640625,1.225232720375061,-11.68879222869873,3.7113118171691895
1772593841916568000,5.521568115234375,0.08738835901021957,-12.456133842468262,3.649960517883301
1772593841936832000,5.54183203125,-1.069908857345581,-12.538434028625488,3.612550973892212
1772593841957096000,5.562095947265625,-1.115997314453125,-12.606369972229004,3.558980941772461
1772593841977359000,5.582359130859375,-1.1333552598953247,-12.583624839782715,2.278082847595215
1772593841997623000,5.602623046875,-1.1162965297698975,-12.5964937210083,1.1528080701828003
1772593842017887000,5.622886962890625,-1.0794856548309326,-13.43476390838623,-0.011671733111143112
1772593842038150000,5.64314990234375,-1.0669161081314087,-14.215572357177734,-1.3796586990356445
1772593842058414000,5.6634140625,-1.0271124839782715,-14.134169578552246,-2.313098192214966
1772593842078678000,5.683677978515625,-0.950498104095459,-12.773664474487305,-2.275090217590332
1772593842098942000,5.70394189453125,-0.009576806798577309,-11.698668479919434,-1.1851298809051514
1772593842119205000,5.724205078125,0.024241292849183083,-10.786776542663574,0.2064998894929886
1772593842139469000,5.744468994140625,0.010773907415568829,-9.763554573059082,1.1878232955932617
1772593842159733000,5.76473291015625,0.01227028388530016,-9.69502067565918,1.1381436586380005
1772593842179996000,5.784995849609375,-0.01646013744175434,-9.620800018310547,-0.14065934717655182
1772593842200260000,5.805260009765625,-0.014065935276448727,-8.669404029846191,-0.9475052952766418
1772593842220524000,5.82552392578125,-0.019153613597154617,-7.479785442352295,-0.8903437852859497
1772593842240787000,5.845786865234375,-0.07990647852420807,-5.765836238861084,-0.10923545062541962
1772593842261051000,5.86605078125,-0.090979665517807,-4.985925197601318,-0.09516951441764832
1772593842281315000,5.886315185546875,-0.17058686912059784,-5.972934722900391,-0.054767362773418427
1772593842301578000,5.906577880859375,-0.15771803259849548,-6.0303955078125,-0.04578910768032074
1772593842321842000,5.926842041015625,-0.14903905987739563,-6.084564208984375,0.7131728529930115
1772593842342106000,5.947106201171875,-0.18584990501403809,-7.200860977172852,4.2963948249816895
1772593842362369000,5.967369140625,-1.6912041902542114,-8.189067840576172,11.623250961303711
1772593842382633000,5.987633056640625,-2.52109432220459,-8.137592315673828,15.700575828552246
1772593842402897000,6.00789697265625,-2.4833858013153076,-8.07235050201416,15.606005668640137
1772593842423160000,6.02816015625,-4.545092582702637,-8.842984199523926,11.93509578704834
1772593842443424000,6.048424072265625,-3.4844613075256348,-11.275193214416504,10.47253704071045
1772593842463688000,6.06868798828125,0.45819035172462463,-13.51646614074707,6.186916351318359
1772593842483951000,6.088951171875,0.44023382663726807,-13.548787117004395,2.9448680877685547
1772593842504215000,6.109215087890625,-0.545877993106842,-11.294346809387207,1.780089020729065
1772593842524479000,6.12947900390625,-0.5078700184822083,-8.612841606140137,1.7277158498764038
1772593842544742000,6.149741943359375,2.3038206100463867,-8.58620548248291,1.6786346435546875
1772593842565006000,6.170006103515625,3.354875087738037,-9.677063941955566,0.7814075946807861
1772593842585270000,6.19027001953125,3.3617584705352783,-10.746374130249023,0.7110779285430908
1772593842605533000,6.210532958984375,3.2881367206573486,-10.824186325073242,-0.04249707981944084
1772593842625797000,6.230797119140625,1.1010334491729736,-11.638214111328125,-0.01586158573627472
1772593842646061000,6.25106103515625,-0.38546648621559143,-11.652280807495117,0.7293336987495422
1772593842666324000,6.271323974609375,-0.4129997789859772,-11.596016883850098,1.4751275777816772
1772593842686588000,6.291587890625,-0.3606266379356384,-11.520898818969727,1.5589245557785034
1772593842706852000,6.31185205078125,0.9903016686439514,-10.706870079040527,2.3936030864715576
1772593842727115000,6.332114990234375,1.0630255937576294,-10.634145736694336,2.428917646408081
1772593842747379000,6.35237890625,1.1366472244262695,-10.56680965423584,2.4723124504089355
1772593842767643000,6.372642822265625,1.1905168294906616,-10.494384765625,2.5115175247192383
1772593842787906000,6.392906005859375,1.2270283699035645,-9.7605619430542,2.5707740783691406
1772593842808170000,6.413169921875,1.247079849243164,-9.730035781860352,3.314772367477417
1772593842828434000,6.433433837890625,1.2413935661315918,-9.6896333694458,3.364751100540161
1772593842848697000,6.453697021484375,1.2189478874206543,-9.646238327026367,3.440168619155884
1772593842868961000,6.4739609375,1.1869255304336548,-9.600449562072754,4.243722438812256
1772593842889225000,6.494224853515625,1.1662755012512207,-8.828319549560547,4.278139114379883
1772593842909488000,6.514488037109375,1.136048674583435,-8.810662269592285,4.298789024353027
1772593842929752000,6.534751953125,1.0746972560882568,-8.81275749206543,4.294300079345703
1772593842950016000,6.55501611328125,0.2795230448246002,-8.852860450744629,4.278438568115234
1772593842970279000,6.57527880859375,0.24331074953079224,-9.76325511932373,4.232349872589111
1772593842990543000,6.595543212890625,0.18225860595703125,-10.90678596496582,4.166210174560547
1772593843010807000,6.61580712890625,-0.6509236097335815,-12.39957046508789,3.434781551361084
1772593843031070000,6.636070068359375,-1.7764976024627686,-13.337798118591309,3.3593642711639404
1772593843051334000,6.656333984375,-1.8297686576843262,-13.408427238464355,2.6476879119873047
1772593843071598000,6.67659814453125,-1.7702128887176514,-13.456311225891113,2.665644407272339
1772593843091861000,6.696861083984375,-0.9436147212982178,-13.431771278381348,2.6641478538513184
1772593843112125000,6.717125,-0.9804255962371826,-12.236166000366211,2.6437971591949463
1772593843132389000,6.73738916015625,-0.9723451733589172,-11.314398765563965,2.6665420532226562
1772593843152652000,6.757652099609375,-0.9280524253845215,-10.471040725708008,2.7012581825256348
1772593843172916000,6.777916015625,-0.9259575009346008,-9.446023941040039,2.70993709564209
1772593843193180000,6.798179931640625,-0.9310451745986938,-8.643965721130371,2.717418909072876
1772593843213443000,6.818443115234375,-0.912190854549408,-7.725191116333008,2.7207109928131104
1772593843233707000,6.83870703125,-0.8831611275672913,-7.67042350769043,2.718017578125
1772593843253971000,6.858970947265625,-0.8607155084609985,-6.900089263916016,2.714426279067993
1772593843274234000,6.879234130859375,-0.8412626385688782,-6.864475727081299,2.7222073078155518
1772593843294498000,6.899498046875,-0.778714120388031,-6.795642375946045,2.722506523132324
1772593843314762000,6.919761962890625,-0.0071826050989329815,-6.734290599822998,2.7608139514923096
1772593843335025000,6.94002490234375,0.02454056777060032,-6.662464618682861,3.5389294624328613
1772593843355289000,6.9602890625,0.021847089752554893,-6.62355899810791,3.620631456375122
1772593843375553000,6.980552978515625,-0.008978256024420261,-6.597821235656738,4.5639472007751465
1772593843395817000,7.00081689453125,-0.7829039692878723,-6.625055313110352,5.355230808258057
1772593843416080000,7.021079833984375,-0.8197147846221924,-6.679224014282227,6.174346923828125
1772593843436344000,7.041343994140625,-0.8780734539031982,-7.641394138336182,7.637503623962402
1772593843456608000,7.06160791015625,-0.943913996219635,-7.687182903289795,8.944737434387207
1772593843476871000,7.081870849609375,-1.8082208633422852,-8.492233276367188,9.754576683044434
1772593843497135000,7.102135009765625,-1.886930227279663,-8.57453441619873,9.732728958129883
1772593843517399000,7.12239892578125,-2.955641984939575,-9.479243278503418,8.74033260345459
1772593843537662000,7.142661865234375,-2.971503496170044,-9.556157112121582,8.661323547363281
1772593843557926000,7.16292578125,-2.9828760623931885,-9.616311073303223,7.542334079742432
1772593843578190000,7.183190185546875,-2.9981391429901123,-10.607810020446777,6.723816394805908
1772593843598453000,7.203452880859375,-1.84503173828125,-10.68442440032959,5.976226806640625
1772593843618717000,7.223717041015625,-0.10025719553232193,-11.668440818786621,5.96874475479126
1772593843638981000,7.243981201171875,1.1635819673538208,-12.67699909210205,5.9846062660217285
1772593843659244000,7.264244140625,2.229600429534912,-13.615824699401855,6.058228015899658
1772593843679508000,7.284508056640625,1.2282254695892334,-14.4133939743042,6.115389823913574
1772593843699772000,7.30477197265625,1.136348009109497,-14.421175003051758,6.112995624542236
1772593843720035000,7.32503515625,1.0908581018447876,-14.43224811553955,6.0184245109558105
1772593843740299000,7.345299072265625,0.31693243980407715,-14.413692474365234,4.936544418334961
1772593843760563000,7.36556298828125,0.2585737705230713,-13.339893341064453,4.100668907165527
1772593843780826000,7.385826171875,-0.7161656022071838,-11.279683113098145,4.108150959014893
1772593843801090000,7.406090087890625,-0.7407061457633972,-9.532513618469238,4.979041576385498
1772593843821354000,7.42635400390625,2.400486469268799,-7.4549455642700195,9.208099365234375
1772593843841617000,7.446616943359375,4.564844608306885,-6.49906063079834,10.086472511291504
1772593843861881000,7.466881103515625,5.58986234664917,-5.532102108001709,9.336189270019531
1772593843882145000,7.48714501953125,5.61799430847168,-4.371213912963867,8.05618953704834
1772593843902408000,7.507407958984375,5.616796970367432,-3.3291375637054443,7.243058681488037
1772593843922672000,7.527672119140625,5.552752494812012,-2.5178024768829346,6.153995990753174
1772593843942936000,7.54793603515625,4.802469253540039,-2.439990758895874,4.708497047424316
1772593843963199000,7.568198974609375,4.733635902404785,-2.3837270736694336,3.3557729721069336
1772593843983463000,7.588462890625,4.6612114906311035,-2.3505074977874756,2.1844098567962646
1772593844003727000,7.60872705078125,4.6471452713012695,-2.3469161987304688,2.1045033931732178
1772593844023990000,7.628989990234375,4.722562789916992,-2.3481132984161377,1.2102689743041992
1772593844044254000,7.64925390625,5.677849292755127,-2.3325510025024414,1.159092903137207
1772593844064518000,7.669517822265625,6.586448669433594,-2.2667105197906494,1.081580638885498
1772593844084781000,7.689781005859375,6.666954040527344,-1.493682622909546,1.040579915046692
1772593844105045000,7.710044921875,8.269572257995605,-1.4535796642303467,1.006462574005127
1772593844125309000,7.730308837890625,8.324040412902832,-1.4056956768035889,0.970848798751831
1772593844145572000,7.750572021484375,8.282441139221191,-1.3311761617660522,0.9867103695869446
1772593844165836000,7.7708359375,7.061099529266357,-0.4049193561077118,1.0477625131607056
1772593844186100000,7.791099853515625,6.976404666900635,-0.34685996174812317,1.9261353015899658
1772593844206363000,7.81136279296875,6.220734596252441,0.4258686304092407,1.9473837614059448
1772593844226627000,7.831626953125,6.291962146759033,0.41539400815963745,1.9868881702423096
1772593844246891000,7.85189111328125,7.173028469085693,0.3687070608139038,2.029085874557495
1772593844267154000,7.87215380859375,8.364742279052734,0.40132805705070496,2.0236990451812744
1772593844287418000,7.892418212890625,8.429984092712402,1.2752116918563843,1.0956465005874634
1772593844307682000,7.91268212890625,9.203012466430664,1.3284826278686523,1.0618284940719604
1772593844327945000,7.932945068359375,9.166799545288086,1.367687702178955,1.0402805805206299
1772593844348209000,7.953208984375,9.080907821655273,1.4170681238174438,1.0274118185043335
1772593844368473000,7.97347314453125,8.343493461608887,1.468244194984436,1.0295066833496094
1772593844388736000,7.993736083984375,9.240720748901367,1.4981716871261597,1.062427043914795
1772593844409000000,8.014,10.330381393432617,1.5619173049926758,1.0992377996444702
1772593844429264000,8.034263916015625,10.333673477172852,2.3178865909576416,1.0908581018447876
1772593844449527000,8.054527099609375,9.49121379852295,2.34841251373291,1.0411784648895264
1772593844469791000,8.074791015625,9.437943458557129,2.4286184310913086,1.0079588890075684
1772593844490055000,8.095054931640625,9.364620208740234,2.498948097229004,0.9971849918365479
1772593844510318000,8.115318115234375,9.353547096252441,2.5701754093170166,1.0513538122177124
1772593844530582000,8.13558203125,9.341876029968262,2.598008155822754,1.127070426940918
1772593844550846000,8.155845947265625,9.367613792419434,2.6500821113586426,1.1569979190826416
1772593844571109000,8.176109130859375,9.346963882446289,3.423109769821167,1.193509578704834
1772593844591373000,8.196373046875,9.33588981628418,3.4757823944091797,1.2087725400924683
1772593844611637000,8.216636962890625,9.264063835144043,3.5395278930664062,1.1785458326339722
1772593844631900000,8.23689990234375,8.504802703857422,4.2957963943481445,1.0965443849563599
1772593844652164000,8.2571640625,8.510788917541504,4.35415506362915,0.23942017555236816
1772593844672428000,8.277427978515625,8.514678955078125,4.362534999847412,0.20859482884407043
1772593844692692000,8.29769189453125,8.564358711242676,4.350862979888916,0.19213469326496124
1772593844712955000,8.317954833984375,9.362825393676758,4.367921829223633,0.14185644686222076
1772593844733219000,8.338218994140625,9.438541412353516,4.3406877517700195,0.0661398246884346
1772593844753483000,8.35848291015625,10.196006774902344,4.260781288146973,0.002693476853892207
1772593844773746000,8.378745849609375,10.21695613861084,4.196436882019043,-0.028730420395731926
1772593844794010000,8.399010009765625,10.215459823608398,3.5051112174987793,-0.09487023949623108
1772593844814274000,8.419274169921875,10.174758911132812,3.5057098865509033,-0.8391677141189575
1772593844834537000,8.439536865234375,9.394248962402344,3.4769794940948486,-0.8843582272529602
1772593844854801000,8.45980078125,9.371803283691406,3.463212728500366,-0.9457096457481384
1772593844875065000,8.480065185546875,9.32421875,3.4392707347869873,-0.978330671787262
1772593844895328000,8.500327880859375,9.244312286376953,3.4234092235565186,-0.9723451733589172
1772593844915592000,8.520592041015625,8.523358345031738,3.39677357673645,-0.9391255974769592
1772593844935856000,8.540856201171875,8.494627952575684,3.38749623298645,-0.8876502513885498
1772593844956119000,8.561119140625,8.447940826416016,3.386897563934326,-0.8729857802391052
1772593844976383000,8.581383056640625,8.391676902770996,3.378817081451416,-0.8478466868400574
1772593844996647000,8.60164697265625,8.340201377868652,3.3650505542755127,-0.8239046335220337
1772593845016910000,8.62191015625,8.311470985412598,3.3599627017974854,-0.7694365978240967
1772593845037174000,8.642174072265625,8.302193641662598,3.378817081451416,-0.7287351489067078
1772593845057438000,8.66243798828125,8.249521255493164,3.4042556285858154,-0.7023988962173462
1772593845077701000,8.682701171875,8.170811653137207,3.4368765354156494,-0.6874351501464844
1772593845097965000,8.702965087890625,8.155549049377441,3.476081609725952,-0.6619967818260193
