time,seconds_elapsed,z,y,x
1772593836627713000,0.232713134765625,-0.003325703786686063,-0.004123872611671686,-0.004389929119497538
1772593836648007000,0.2530068359375,0.0006651407456956804,0.004922041669487953,0.0005321126081980765
1772593836668271000,0.27327099609375,0.0023945067077875137,-0.004655985161662102,0.0009311970788985491
1772593836688534000,0.293533935546875,0.9733669757843018,0.04922041669487953,0.8351507186889648
1772593836708798000,0.3137978515625,1.7233797311782837,-1.3042080402374268,1.0235185623168945
1772593836729062000,0.334061767578125,1.9485963582992554,-3.3233091831207275,1.6821409463882446
1772593836749325000,0.354324951171875,1.7904258966445923,-4.859917640686035,2.8205959796905518
1772593836769589000,0.374589111328125,1.3793689012527466,-6.506007671356201,3.5896315574645996
1772593836789853000,0.39485302734375,0.14806033670902252,-8.992303848266602,4.378222465515137
1772593836810116000,0.4151162109375,-2.1192715167999268,-12.464471817016602,5.107748985290527
1772593836830380000,0.435380126953125,-3.596282958984375,-13.92099666595459,5.004918098449707
1772593836850644000,0.45564404296875,-2.9937984943389893,-11.167048454284668,3.751260757446289
1772593836870907000,0.475906982421875,-1.2601757049560547,-7.267593860626221,2.3265292644500732
1772593836891171000,0.496171142578125,0.5097638964653015,-4.652393341064453,1.3693917989730835
1772593836911435000,0.51643505859375,1.9025685787200928,-4.028624534606934,0.892751932144165
1772593836931698000,0.536697998046875,3.019473075866699,-4.106844902038574,0.5278556942939758
1772593836951962000,0.556962158203125,4.795531749725342,-3.671177864074707,-0.20898722112178802
1772593836972226000,0.57722607421875,6.895913124084473,-1.8831465244293213,-0.5064381957054138
1772593836992489000,0.597489013671875,7.36018180847168,0.344808965921402,0.3434786796569824
1772593837012753000,0.6177529296875,6.272676467895508,1.6035213470458984,1.3421210050582886
1772593837033017000,0.63801708984375,5.095776557922363,1.4220709800720215,1.271483063697815
1772593837053280000,0.658280029296875,4.177350044250488,0.6471819877624512,0.47397929430007935
1772593837073544000,0.6785439453125,3.280208110809326,0.31846940517425537,-0.04296809434890747
1772593837093808000,0.69880810546875,2.739581823348999,0.4258231222629547,-0.6917464137077332
1772593837114071000,0.719071044921875,2.7249486446380615,0.7216777205467224,-1.2076295614242554
1772593837134335000,0.7393349609375,3.3061487674713135,1.450538992881775,-1.3940019607543945
1772593837154599000,0.759598876953125,3.9009175300598145,1.8879355192184448,-1.0114130973815918
1772593837174862000,0.779862060546875,3.7070956230163574,0.7494806051254272,-0.36582741141319275
1772593837195126000,0.8001259765625,2.7773618698120117,0.10136745125055313,-0.159101665019989
1772593837215390000,0.820389892578125,1.843770146369934,-0.091656394302845,1.0055598020553589
1772593837235653000,0.840653076171875,0.5890486836433411,-0.13302814960479736,2.1365652084350586
1772593837255917000,0.8609169921875,-1.4187452793121338,-0.5834614634513855,2.5686404705047607
1772593837276181000,0.881180908203125,-3.7886416912078857,-0.34387776255607605,1.272813320159912
1772593837296444000,0.90144384765625,-5.1036248207092285,-0.16655124723911285,1.3845570087432861
1772593837316708000,0.9217080078125,-4.611021995544434,-0.019954223185777664,1.3430522680282593
1772593837336972000,0.941971923828125,-3.2320520877838135,0.3453410863876343,0.4918050765991211
1772593837357235000,0.96223486328125,-1.8731694221496582,0.4483048617839813,-0.7030537724494934
1772593837377499000,0.982498779296875,-0.5375667810440063,0.819586455821991,-1.6193517446517944
1772593837397763000,1.00276318359375,0.5073693990707397,1.3149832487106323,-1.6866639852523804
1772593837418026000,1.02302587890625,1.15774405002594,1.8125085830688477,-1.0215232372283936
1772593837438290000,1.0432900390625,1.6240077018737793,2.1142163276672363,-0.3780660033226013
1772593837458554000,1.06355419921875,2.1045053005218506,2.1550559997558594,-0.09125731140375137
1772593837478817000,1.083817138671875,2.082289695739746,1.806522250175476,-0.025009293109178543
1772593837499081000,1.1040810546875,2.175675392150879,1.635581135749817,-0.1569732129573822
1772593837519345000,1.124344970703125,2.4831035137176514,1.6620537042617798,-0.40852946043014526
1772593837539608000,1.144608154296875,2.5686404705047607,1.6293288469314575,-0.536901593208313
1772593837559872000,1.1648720703125,2.534585475921631,1.160936713218689,-0.7957744002342224
1772593837580136000,1.185135986328125,2.262941837310791,0.8754582405090332,-1.2765381336212158
1772593837600399000,1.205399169921875,1.426859974861145,0.5613787770271301,-1.2211984395980835
1772593837620663000,1.2256630859375,0.2776297628879547,0.020619364455342293,-0.8040221333503723
1772593837640927000,1.245927001953125,-0.8431324362754822,-0.4960619807243347,-0.3936302959918976
1772593837661190000,1.26618994140625,-1.5763835906982422,-0.859627902507782,-0.04589471220970154
1772593837681454000,1.2864541015625,-1.9668211936950684,-1.0666197538375854,0.2575424909591675
1772593837701718000,1.306718017578125,-2.0059316158294678,-1.0879042148590088,0.10801886022090912
1772593837721981000,1.32698095703125,-1.950990915298462,-0.9933212399482727,-0.7685036063194275
1772593837742245000,1.3472451171875,-0.9402430057525635,-0.42954790592193604,-1.7420036792755127
1772593837762509000,1.367509033203125,-0.49858951568603516,0.3283134698867798,-2.055817127227783
1772593837782772000,1.38777197265625,-0.03698182478547096,1.2591114044189453,-2.169157028198242
1772593837803036000,1.408035888671875,0.7863293886184692,2.095592498779297,-2.203744411468506
1772593837823300000,1.428300048828125,1.5572274923324585,2.159712076187134,-1.4821996688842773
1772593837843563000,1.44856298828125,1.6925171613693237,1.6064479351043701,-0.5970303416252136
1772593837863827000,1.468826904296875,1.0062249898910522,0.830095648765564,-0.09245456755161285
1772593837884091000,1.4890908203125,-0.036582741886377335,0.0784866064786911,0.21829919517040253
1772593837904354000,1.50935400390625,-0.45908015966415405,-0.34946495294570923,0.3491989076137543
1772593837924618000,1.529617919921875,-0.10296379029750824,-0.40746521949768066,0.322061151266098
1772593837944882000,1.5498818359375,0.6944069266319275,-0.2921298146247864,0.25448286533355713
1772593837965146000,1.57014599609375,1.546053171157837,-0.23612496256828308,0.23851947486400604
1772593837985409000,1.590408935546875,1.9931608438491821,-0.30875834822654724,0.2772306799888611
1772593838005673000,1.6106728515625,2.0024728775024414,-0.45415809750556946,0.31208404898643494
1772593838025937000,1.63093701171875,1.9560459852218628,-0.43872684240341187,0.28614354133605957
1772593838046200000,1.651199951171875,1.711806297302246,-0.552731990814209,0.20459729433059692
1772593838066464000,1.671464111328125,1.389612078666687,-0.5768100619316101,0.12145470082759857
1772593838086728000,1.69172802734375,1.1294089555740356,-0.7070446014404297,-0.005454154219478369
1772593838106991000,1.7119912109375,0.12078956514596939,-1.1530879735946655,-0.8894262313842773
1772593838127255000,1.732255126953125,-3.3437955379486084,-1.864256501197815,-2.4630162715911865
1772593838147519000,1.75251904296875,-7.648453712463379,-2.6008334159851074,-2.2666666507720947
1772593838167782000,1.772781982421875,-7.876996040344238,-2.625842809677124,-0.4584150016307831
1772593838188046000,1.793046142578125,-5.285075664520264,-1.5323512554168701,0.759989857673645
1772593838208310000,1.81331005859375,-2.6267738342285156,-0.41730931401252747,1.344116449356079
1772593838228573000,1.833572998046875,0.2151065170764923,-0.1531154066324234,1.042807698249817
1772593838248837000,1.853837158203125,2.9212982654571533,0.2052624374628067,1.1194318532943726
1772593838269101000,1.87410107421875,4.563264846801758,0.30037757754325867,1.9430091381072998
1772593838289364000,1.894364013671875,4.980441093444824,-0.06052780896425247,2.419649124145508
1772593838309628000,1.9146279296875,4.704806804656982,-0.1497897058725357,2.22489595413208
1772593838329892000,1.93489208984375,4.963413238525391,0.5568558573722839,2.6861045360565186
1772593838350155000,1.955155029296875,5.919619560241699,0.7944441437721252,2.123129367828369
1772593838370419000,1.9754189453125,6.018060684204102,1.5260989665985107,3.2059783935546875
1772593838390683000,1.995682861328125,5.2522172927856445,1.1002758741378784,2.7029991149902344
1772593838410946000,2.015946044921875,4.270336627960205,0.2624645531177521,0.971371591091156
1772593838431210000,2.0362099609375,2.5488193035125732,-0.33296945691108704,-1.231042504310608
1772593838451474000,2.056473876953125,-0.15165209770202637,-0.8645499348640442,-2.8558483123779297
1772593838471737000,2.076737060546875,-2.709118366241455,-1.54884672164917,-3.1876206398010254
1772593838492001000,2.0970009765625,-3.9198074340820312,-1.834990382194519,-0.8281002640724182
1772593838512265000,2.117264892578125,-3.470571517944336,-1.2370288372039795,-0.3194005787372589
1772593838532528000,2.137528076171875,-2.18684983253479,-0.7340493202209473,-0.1097482219338417
1772593838552792000,2.1577919921875,-1.3211026191711426,-0.5353052616119385,0.13928046822547913
1772593838573056000,2.178055908203125,-0.8624215126037598,-0.4648003578186035,0.17466595768928528
1772593838593319000,2.19831884765625,-0.6027505397796631,-0.27696460485458374,0.09923899918794632
1772593838613583000,2.2185830078125,-0.3545200228691101,-0.08154625445604324,0.012770703062415123
1772593838633847000,2.238846923828125,-0.4187726080417633,0.2580746114253998,-0.1257116049528122
1772593838654110000,2.25910986328125,-0.6765812039375305,0.09405090659856796,-0.10163351148366928
1772593838674374000,2.279373779296875,-1.2891758680343628,-0.5370346307754517,0.05560576915740967
1772593838694638000,2.29963818359375,-1.9081557989120483,-1.2130837440490723,0.2567443251609802
1772593838714908000,2.319907958984375,-2.2670657634735107,-1.5241035223007202,0.16774849593639374
1772593838735172000,2.340172119140625,-2.131243944168091,-1.3058043718338013,-0.24982686340808868
1772593838755436000,2.36043603515625,-1.793352484703064,-1.0962849855422974,-0.344808965921402
1772593838775699000,2.380698974609375,-1.3590155839920044,-0.7007923126220703,-0.2463681399822235
1772593838795963000,2.400962890625,-0.7127648591995239,0.45083239674568176,0.06784436106681824
1772593838816227000,2.42122705078125,0.3434786796569824,2.2147858142852783,0.24982686340808868
1772593838836490000,2.441489990234375,1.2992860078811646,3.262648344039917,0.4024101495742798
1772593838856754000,2.46175390625,1.6140305995941162,3.010293960571289,0.5315805077552795
1772593838877018000,2.48201806640625,1.3700569868087769,1.77007257938385,0.5407594442367554
1772593838897281000,2.502281005859375,1.1282117366790771,0.32458868622779846,0.31647396087646484
1772593838917545000,2.522544921875,0.9371833205223083,-0.6723242998123169,0.3052996098995209
1772593838937809000,2.542808837890625,0.7430952787399292,-1.0558444261550903,0.3480016589164734
1772593838958072000,2.563072021484375,0.811870813369751,-0.9894633889198303,0.5196079611778259
1772593838978336000,2.5833359375,1.522773265838623,-0.921885073184967,0.9499540328979492
1772593838998600000,2.603599853515625,2.4286949634552,-1.2215975522994995,1.1560146808624268
1772593839018863000,2.623863037109375,2.9135825634002686,-1.6196177005767822,1.2475379705429077
1772593839039127000,2.644126953125,3.2047812938690186,-1.9278439283370972,1.3080657720565796
1772593839059391000,2.664390869140625,3.422415256500244,-2.0689868927001953,1.346909999847412
1772593839079654000,2.68465380859375,3.8100593090057373,-2.225294828414917,1.393602967262268
1772593839099918000,2.70491796875,4.252777099609375,-2.35672664642334,1.1286108493804932
1772593839120182000,2.72518212890625,4.583086013793945,-2.9332706928253174,-0.8242424130439758
1772593839140445000,2.74544482421875,3.3994014263153076,-3.683948516845703,-6.113175868988037
1772593839160709000,2.765709228515625,-2.569837808609009,-6.68825626373291,-10.783394813537598
1772593839180973000,2.78597314453125,-7.084148406982422,-9.041524887084961,-7.302979469299316
1772593839201236000,2.806236083984375,-4.8470139503479,-6.327617168426514,-1.3268227577209473
1772593839221500000,2.8265,0.46506643295288086,-3.338740587234497,0.48116281628608704
1772593839241764000,2.84676416015625,3.3994014263153076,-2.576090097427368,0.3678228259086609
1772593839262027000,2.867027099609375,1.583301067352295,-3.649627447128296,0.2266799658536911
1772593839282291000,2.887291015625,-0.8924858570098877,-4.264084339141846,0.13954652845859528
1772593839302555000,2.907554931640625,-1.9905002117156982,-4.2032904624938965,0.6433241367340088
1772593839322818000,2.927818115234375,-2.2327444553375244,-3.8367979526519775,1.4128919839859009
1772593839343082000,2.94808203125,-2.3804056644439697,-3.548259973526001,1.9936928749084473
1772593839363346000,2.968345947265625,-2.6376821994781494,-3.2303225994110107,2.5214157104492188
1772593839383609000,2.988609130859375,-3.0694916248321533,-3.0101609230041504,2.7044622898101807
1772593839403873000,3.008873046875,-3.418424367904663,-2.8787291049957275,2.440401554107666
1772593839424137000,3.029136962890625,-2.9980554580688477,-2.877798080444336,1.7534440755844116
1772593839444400000,3.049400146484375,-2.198423147201538,-2.769247055053711,1.3342723846435547
1772593839464664000,3.0696640625,-1.1270145177841187,-2.8530547618865967,1.3548917770385742
1772593839484928000,3.089927978515625,-0.17054209113121033,-3.0249271392822266,1.8391141891479492
1772593839505192000,3.11019189453125,0.12823913991451263,-2.9681241512298584,2.238065719604492
1772593839525455000,3.130455078125,0.441387414932251,-2.6592328548431396,2.6225168704986572
1772593839545719000,3.150718994140625,1.101073980331421,-1.9525872468948364,3.061243772506714
1772593839565983000,3.17098291015625,2.166762590408325,-1.5391356945037842,3.182166337966919
1772593839586246000,3.191245849609375,3.4194886684417725,-1.6156269311904907,2.6877007484436035
1772593839606510000,3.211510009765625,4.178813457489014,-2.453172206878662,1.8004029989242554
1772593839626774000,3.23177392578125,4.226836681365967,-3.5011680126190186,0.5126904845237732
1772593839647037000,3.252036865234375,3.710820198059082,-3.8945322036743164,-0.5692274570465088
1772593839667301000,3.272301025390625,2.8155407905578613,-3.462589740753174,-0.8448618054389954
1772593839687565000,3.29256494140625,2.0608720779418945,-2.9056007862091064,-0.7772834897041321
1772593839707828000,3.312827880859375,1.4836629629135132,-2.277042865753174,-0.3292446732521057
1772593839728092000,3.333091796875,1.031899333000183,-1.8258113861083984,0.09804175049066544
1772593839748356000,3.353356201171875,0.4675939679145813,-1.7570358514785767,0.20206975936889648
1772593839768619000,3.373618896484375,0.0172936599701643,-1.7618248462677002,0.1936889886856079
1772593839788883000,3.393883056640625,-0.38378623127937317,-1.7844396829605103,0.07130309194326401
1772593839809147000,3.41414697265625,-0.5784063935279846,-1.8685134649276733,-0.4560205042362213
1772593839829410000,3.43441015625,-0.1487254798412323,-1.8200911283493042,-1.5391356945037842
1772593839849674000,3.454674072265625,0.6944069266319275,-0.8629536032676697,-2.678654909133911
1772593839869938000,3.47493798828125,1.2676252126693726,-0.9265410900115967,-3.2844650745391846
1772593839890201000,3.495201171875,1.3261576890945435,-1.4188783168792725,-3.24788236618042
1772593839910465000,3.515465087890625,1.0022341012954712,-1.2392902374267578,-2.6629574298858643
1772593839930729000,3.53572900390625,0.6824344396591187,-0.9121740460395813,-2.0060644149780273
1772593839950992000,3.555991943359375,0.48502063751220703,-0.39163488149642944,-1.1540192365646362
1772593839971256000,3.576256103515625,0.43939200043678284,0.5210712552070618,0.4238276779651642
1772593839991520000,3.59652001953125,0.3848504424095154,1.2088267803192139,2.162771701812744
1772593840011783000,3.616782958984375,0.2475653886795044,1.4808694124221802,3.3850343227386475
1772593840032047000,3.637047119140625,0.06305534392595291,1.4111626148223877,3.909963369369507
1772593840052311000,3.65731103515625,-0.570956826210022,1.0965510606765747,3.377185583114624
1772593840072574000,3.677573974609375,-2.1178081035614014,0.8068157434463501,1.5050804615020752
1772593840092838000,3.697837890625,-2.9926013946533203,0.39655691385269165,-0.17772561311721802
1772593840113102000,3.71810205078125,-2.188446044921875,-0.6132597923278809,-0.9878670573234558
1772593840133365000,3.738364990234375,-0.6228377819061279,-1.8634583950042725,-0.9023299813270569
1772593840153629000,3.75862890625,0.6188469529151917,-2.7253477573394775,-0.514153778553009
1772593840173893000,3.77889306640625,1.7201870679855347,-3.419621706008911,-0.1037619560956955
1772593840194156000,3.799156005859375,2.7798893451690674,-4.13504695892334,0.09285365045070648
1772593840214420000,3.819419921875,3.693659782409668,-4.87601375579834,-0.31155192852020264
1772593840234684000,3.839683837890625,4.277653217315674,-5.38032341003418,-0.929600715637207
1772593840254947000,3.859947021484375,4.151941776275635,-4.8317155838012695,0.5918422341346741
1772593840275211000,3.8802109375,2.5683746337890625,-1.3634055852890015,-2.2908778190612793
1772593840295475000,3.900474853515625,-1.7527788877487183,1.2178727388381958,-3.8712522983551025
1772593840315738000,3.920738037109375,-5.843394756317139,3.3278322219848633,-3.2659740447998047
1772593840336002000,3.941001953125,-6.469824314117432,3.440507173538208,-1.530621886253357
1772593840356266000,3.961265869140625,-4.762540817260742,2.6249115467071533,0.36902010440826416
1772593840376529000,3.98152880859375,-2.716701030731201,1.6104388236999512,1.25139582157135
1772593840396793000,4.00179296875,-0.7768844366073608,0.5398282408714294,0.9496879577636719
1772593840417057000,4.02205712890625,0.7111685276031494,-0.08300956338644028,0.7085079550743103
1772593840437320000,4.04231982421875,1.6829391717910767,-0.39602482318878174,0.8235772848129272
1772593840457584000,4.062584228515625,2.1377623081207275,-0.47770410776138306,0.8130680918693542
1772593840477848000,4.08284814453125,2.180464506149292,-0.30968955159187317,1.0980143547058105
1772593840498111000,4.103111083984375,2.7508890628814697,-0.5323786735534668,1.9642937183380127
1772593840518375000,4.123375,3.443699836730957,-1.3446485996246338,2.3800065517425537
1772593840538639000,4.14363916015625,3.3302266597747803,-1.2209323644638062,1.6929162740707397
1772593840558902000,4.163902099609375,2.7778937816619873,-0.16389068961143494,0.16641822457313538
1772593840579166000,4.184166015625,2.1570515632629395,-0.8738619089126587,0.5808008909225464
1772593840599430000,4.204429931640625,1.0720739364624023,-0.35864388942718506,0.8733298182487488
1772593840619693000,4.224693115234375,-0.2008725106716156,0.35478606820106506,0.8364810347557068
1772593840639957000,4.24495703125,-1.278666615486145,0.9220181107521057,0.6969344615936279
1772593840660221000,4.265220947265625,-2.168757915496826,1.5581587553024292,0.4977913498878479
1772593840680484000,4.285484130859375,-2.7474303245544434,1.890064001083374,-0.16282646358013153
1772593840700748000,4.305748046875,-2.906132936477661,1.9435412883758545,-0.7591916918754578
1772593840721012000,4.326011962890625,-2.498002529144287,1.8812841176986694,-0.8783848881721497
1772593840741275000,4.34627490234375,-1.8794217109680176,1.7369486093521118,-0.8415361046791077
1772593840761539000,4.3665390625,-1.3103272914886475,1.6785491704940796,-0.8221139907836914
1772593840781803000,4.386802978515625,-0.9802844524383545,1.5707963705062866,-0.7307236194610596
1772593840802067000,4.40706689453125,-1.3869515657424927,1.5952736139297485,-0.559117317199707
1772593840822330000,4.427330078125,-2.058610677719116,1.603255271911621,-0.09857386350631714
1772593840842594000,4.447593994140625,-2.460355758666992,1.3462449312210083,0.2080560326576233
1772593840862858000,4.46785791015625,-2.6884989738464355,1.062761902809143,0.07103703171014786
1772593840883121000,4.488120849609375,-2.4430620670318604,0.8150634765625,-0.5130895972251892
1772593840903385000,4.508385009765625,-1.7092787027359009,0.4659976065158844,-1.0066239833831787
1772593840923649000,4.52864892578125,-1.0388168096542358,0.01556429360061884,-1.1925973892211914
1772593840943912000,4.548911865234375,-0.5829293727874756,-0.3579787611961365,-1.1087896823883057
1772593840964176000,4.56917578125,0.1223858967423439,-0.4056028425693512,-0.8207836747169495
1772593840984440000,4.589440185546875,1.043738842010498,-0.1306336522102356,-0.6526361107826233
1772593841004703000,4.609702880859375,2.0421152114868164,0.09538118541240692,-0.5478099584579468
1772593841024967000,4.629966796875,2.7068567276000977,0.08553709834814072,-0.429813951253891
1772593841045231000,4.650231201171875,2.7033979892730713,-0.07595907151699066,-0.2975839674472809
1772593841065494000,4.670493896484375,2.372690200805664,-0.2387855350971222,-0.11174365133047104
1772593841085758000,4.690758056640625,1.8288710117340088,-0.6926776170730591,-0.0526791475713253
1772593841106022000,4.71102197265625,1.2898409366607666,-0.8964767456054688,-0.02514232136309147
1772593841126285000,4.73128515625,0.9002014994621277,-1.0601013898849487,0.00864682998508215
1772593841146549000,4.751549072265625,0.6426590085029602,-1.0557113885879517,0.021284503862261772
1772593841166813000,4.77181298828125,0.44497916102409363,-0.9257429242134094,-0.0013302814913913608
1772593841187076000,4.792076171875,0.48488759994506836,-1.0551793575286865,-0.02979830652475357
1772593841207340000,4.812340087890625,0.8862335681915283,-1.360212802886963,-0.08806463330984116
1772593841227604000,4.83260400390625,1.056376576423645,-1.3261576890945435,-0.18810181319713593
1772593841247867000,4.852866943359375,1.074202299118042,-1.2298452854156494,-0.21164779365062714
1772593841268131000,4.873131103515625,1.0320323705673218,-1.2398223876953125,-0.14034469425678253
1772593841288395000,4.89339501953125,0.4725160002708435,-0.9873349666595459,-0.09072519838809967
1772593841308658000,4.913657958984375,-2.090803384780884,0.35092827677726746,-1.1081244945526123
1772593841328922000,4.933922119140625,-6.0793867111206055,1.7646183967590332,-3.6808888912200928
1772593841349186000,4.95418603515625,-6.910147190093994,1.6734941005706787,-3.94667911529541
1772593841369449000,4.974448974609375,-4.8938398361206055,1.2035056352615356,-2.3801395893096924
1772593841389713000,4.994712890625,-2.650718927383423,0.9750963449478149,-0.8090772032737732
1772593841409977000,5.01497705078125,-0.6153882145881653,0.5620439648628235,0.11759688705205917
1772593841430240000,5.035239990234375,1.0388168096542358,-0.030596474185585976,0.3825889527797699
1772593841450504000,5.05550390625,1.8663849830627441,-0.07981689274311066,0.24224425852298737
1772593841470768000,5.07576806640625,2.0044682025909424,0.4963280260562897,0.755067765712738
1772593841491031000,5.096031005859375,1.7054208517074585,1.0208580493927002,1.4586536884307861
1772593841511295000,5.116294921875,1.6406362056732178,1.3535614013671875,2.2058727741241455
1772593841531559000,5.136558837890625,2.073908805847168,1.741471529006958,3.0665650367736816
1772593841551822000,5.156822021484375,2.3277266025543213,2.3757498264312744,3.926325798034668
1772593841572086000,5.1770859375,2.3003227710723877,2.527801036834717,4.417465686798096
1772593841592350000,5.197349853515625,1.9706790447235107,1.6210811138153076,3.9545278549194336
1772593841612613000,5.217613037109375,1.750118374824524,0.06904160976409912,2.3019192218780518
1772593841632877000,5.237876953125,1.6230764389038086,-1.4972318410873413,-0.9370502829551697
1772593841653141000,5.25814111328125,1.2028405666351318,-1.5707963705062866,-2.8098206520080566
1772593841673404000,5.27840380859375,0.6785765886306763,-0.6897509694099426,-2.358323097229004
1772593841693668000,5.298668212890625,-0.10442709922790527,0.10283076018095016,-0.9765596389770508
1772593841713932000,5.31893212890625,-0.6936087608337402,0.3969559967517853,-0.056004852056503296
1772593841734195000,5.33919482421875,-0.7840679287910461,0.40520375967025757,0.1657530814409256
1772593841754459000,5.359458984375,-0.7228749990463257,0.5375667810440063,0.13129878044128418
1772593841774723000,5.37972314453125,-0.5870532393455505,0.774622917175293,-0.0063853515312075615
1772593841794986000,5.399986083984375,-0.3710155189037323,0.8343525528907776,-0.1575053334236145
1772593841815250000,5.42025,-0.21523955464363098,0.7987010478973389,-0.2293405383825302
1772593841835514000,5.44051416015625,-0.22415243089199066,0.9188254475593567,-0.31807032227516174
1772593841855777000,5.460777099609375,-0.9556742310523987,1.0553122758865356,-0.3722127676010132
1772593841876041000,5.481041015625,-2.0044682025909424,1.1815561056137085,-0.1750650554895401
1772593841896305000,5.501304931640625,-2.284226417541504,0.922816276550293,0.21856525540351868
1772593841916568000,5.521568115234375,-1.8355224132537842,0.2792260944843292,0.04669288173317909
1772593841936832000,5.54183203125,-1.1231566667556763,0.18570730090141296,-0.9468944072723389
1772593841957096000,5.562095947265625,-0.5273236036300659,-0.26432693004608154,-1.868646502494812
1772593841977359000,5.582359130859375,-0.15271632373332977,-0.4803646504878998,-2.0015416145324707
1772593841997623000,5.602623046875,0.5238648653030396,-0.4274194538593292,-1.618287444114685
1772593842017887000,5.622886962890625,1.4441536664962769,-0.20938630402088165,-1.2347673177719116
1772593842038150000,5.64314990234375,2.3011209964752197,0.21670286357402802,-0.955940306186676
1772593842058414000,5.6634140625,3.0345051288604736,0.48209401965141296,-0.6815032362937927
1772593842078678000,5.683677978515625,3.3233091831207275,0.4681260585784912,-0.4324745237827301
1772593842098942000,5.70394189453125,2.898284435272217,0.3699512779712677,-0.22242307662963867
1772593842119205000,5.724205078125,1.8010681867599487,0.5637733340263367,0.22415243089199066
1772593842139469000,5.744468994140625,0.34374475479125977,0.9184263348579407,0.5728192329406738
1772593842159733000,5.76473291015625,-0.9217520952224731,1.0244498252868652,0.5561907291412354
1772593842179996000,5.784995849609375,-1.370589017868042,0.8344855904579163,0.444580078125
1772593842200260000,5.805260009765625,-0.6437232494354248,0.22761116921901703,0.3502631187438965
1772593842220524000,5.82552392578125,0.4697223901748657,-0.6540994048118591,0.2870747447013855
1772593842240787000,5.845786865234375,0.963655948638916,-1.2559187412261963,0.22375334799289703
1772593842261051000,5.86605078125,0.715957522392273,-1.0324314832687378,0.14393645524978638
1772593842281315000,5.886315185546875,0.027802884578704834,-0.007981688715517521,0.07063794881105423
1772593842301578000,5.906577880859375,-0.3265841007232666,0.8435314893722534,-0.011573448777198792
1772593842321842000,5.926842041015625,-0.4018780589103699,1.3246943950653076,-0.08979400247335434
1772593842342106000,5.947106201171875,-0.240913987159729,1.6786822080612183,-0.1179959699511528
1772593842362369000,5.967369140625,-3.6145079135894775,-0.3327034115791321,-0.45588746666908264
1772593842382633000,5.987633056640625,-10.0748872756958,1.3116575479507446,-1.2064323425292969
1772593842402897000,6.00789697265625,-12.895881652832031,1.120097041130066,-2.3132264614105225
1772593842423160000,6.02816015625,-9.781959533691406,0.5120253562927246,-2.1253907680511475
1772593842443424000,6.048424072265625,-4.936408519744873,-0.13489054143428802,-1.861862063407898
1772593842463688000,6.06868798828125,-0.6270946860313416,-0.39708903431892395,-1.4875208139419556
1772593842483951000,6.088951171875,2.7329304218292236,0.0818123146891594,-0.05893146991729736
1772593842504215000,6.109215087890625,5.059858798980713,0.5624430179595947,1.596470832824707
1772593842524479000,6.12947900390625,5.603012561798096,0.09139034152030945,1.8103801012039185
1772593842544742000,6.149741943359375,4.509787559509277,-0.16987694799900055,1.0474636554718018
1772593842565006000,6.170006103515625,3.2567951679229736,0.9921239614486694,0.9258759617805481
1772593842585270000,6.19027001953125,2.8123481273651123,2.722288131713867,2.1594460010528564
1772593842605533000,6.210532958984375,3.031977653503418,3.1450514793395996,2.7096505165100098
1772593842625797000,6.230797119140625,3.1595516204833984,2.7298707962036133,2.21771240234375
1772593842646061000,6.25106103515625,2.9448442459106445,1.6331865787506104,0.9075180292129517
1772593842666324000,6.271323974609375,2.237400531768799,0.25887277722358704,-0.9873349666595459
1772593842686588000,6.291587890625,1.038151741027832,-0.05454154312610626,-2.016573667526245
1772593842706852000,6.31185205078125,-0.018756968900561333,0.47836923599243164,-1.9690827131271362
1772593842727115000,6.332114990234375,-0.804554283618927,1.1878083944320679,-1.290107011795044
1772593842747379000,6.35237890625,-1.2110882997512817,1.914275050163269,-0.318203330039978
1772593842767643000,6.372642822265625,-1.1602715253829956,2.1088953018188477,0.07582604885101318
1772593842787906000,6.392906005859375,-1.024183750152588,2.1186063289642334,0.10163351148366928
1772593842808170000,6.413169921875,-1.0116790533065796,2.1022439002990723,0.052945204079151154
1772593842828434000,6.433433837890625,-1.3228319883346558,2.191239833831787,-0.06305534392595291
1772593842848697000,6.453697021484375,-1.506942868232727,2.2295517921447754,-0.22255609929561615
1772593842868961000,6.4739609375,-1.4308507442474365,2.184455394744873,-0.36742374300956726
1772593842889225000,6.494224853515625,-1.6037874221801758,2.085482358932495,-0.5051078796386719
1772593842909488000,6.514488037109375,-1.7353522777557373,1.8212884664535522,-0.5471447706222534
1772593842929752000,6.534751953125,-1.6279984712600708,1.396396517753601,-0.4500342309474945
1772593842950016000,6.55501611328125,-1.3697909116744995,1.1001428365707397,-0.4226304292678833
1772593842970279000,6.57527880859375,-1.0820510387420654,0.9877340197563171,-0.6904160976409912
1772593842990543000,6.595543212890625,-0.7119666934013367,0.8882289528846741,-1.2097580432891846
1772593843010807000,6.61580712890625,-0.15205118060112,1.24421226978302,-1.5755854845046997
1772593843031070000,6.636070068359375,0.6023514866828918,1.821953535079956,-1.975601077079773
1772593843051334000,6.656333984375,1.4312498569488525,2.2554922103881836,-2.6493887901306152
1772593843071598000,6.67659814453125,1.91826593875885,2.443993091583252,-3.019207000732422
1772593843091861000,6.696861083984375,1.8991098403930664,2.7329304218292236,-2.6632235050201416
1772593843112125000,6.717125,1.538603663444519,2.978766441345215,-1.7986736297607422
1772593843132389000,6.73738916015625,1.1079914569854736,2.9561514854431152,-1.120097041130066
1772593843152652000,6.757652099609375,0.652237057685852,2.9348671436309814,-0.9397108554840088
1772593843172916000,6.777916015625,0.26259756088256836,2.784013271331787,-0.8638848066329956
1772593843193180000,6.798179931640625,-0.04642682522535324,2.5799479484558105,-0.8183891773223877
1772593843213443000,6.818443115234375,-0.3018408715724945,2.4160573482513428,-0.823178231716156
1772593843233707000,6.83870703125,-0.5169473886489868,2.216115951538086,-0.8307608366012573
1772593843253971000,6.858970947265625,-0.689617931842804,1.900041103363037,-0.785930335521698
1772593843274234000,6.879234130859375,-0.8093432784080505,1.6076452732086182,-0.7226089239120483
1772593843294498000,6.899498046875,-0.8412700295448303,1.4263278245925903,-0.6720582246780396
1772593843314762000,6.919761962890625,-0.7399025559425354,1.405442476272583,-0.6260305047035217
1772593843335025000,6.94002490234375,-0.6285580396652222,1.562814712524414,-0.3747403025627136
1772593843355289000,6.9602890625,-0.7907193303108215,1.8731694221496582,0.1185280829668045
1772593843375553000,6.980552978515625,-1.3434512615203857,1.8184947967529297,0.26765263080596924
1772593843395817000,7.00081689453125,-1.9484633207321167,1.5544339418411255,0.1585695594549179
1772593843416080000,7.021079833984375,-2.391580104827881,1.1814230680465698,-0.23918461799621582
1772593843436344000,7.041343994140625,-2.9235596656799316,0.6533012390136719,-0.8080130219459534
1772593843456608000,7.06160791015625,-3.3076119422912598,0.4177083969116211,-0.9374493956565857
1772593843476871000,7.081870849609375,-3.203317880630493,0.36196959018707275,-0.8811784982681274
1772593843497135000,7.102135009765625,-2.7346596717834473,0.06505076587200165,-1.0334956645965576
1772593843517399000,7.12239892578125,-1.7588982582092285,-0.1575053334236145,-1.1529549360275269
1772593843537662000,7.142661865234375,-0.5539292097091675,-0.3107537627220154,-1.4180800914764404
1772593843557926000,7.16292578125,0.4774380326271057,-0.27749672532081604,-1.6486178636550903
1772593843578190000,7.183190185546875,1.1489641666412354,0.06159203499555588,-1.6844024658203125
1772593843598453000,7.203452880859375,1.8228847980499268,0.47996556758880615,-1.6044524908065796
1772593843618717000,7.223717041015625,2.342625856399536,1.1468356847763062,-1.1388540267944336
1772593843638981000,7.243981201171875,2.6435353755950928,2.033468246459961,-0.11267484724521637
1772593843659244000,7.264244140625,2.4145939350128174,2.6372830867767334,0.4697223901748657
1772593843679508000,7.284508056640625,2.2940704822540283,2.8135454654693604,1.5029520988464355
1772593843699772000,7.30477197265625,1.8931236267089844,2.4112682342529297,1.405043363571167
1772593843720035000,7.32503515625,1.4953694343566895,1.6837372779846191,0.6606178283691406
1772593843740299000,7.345299072265625,1.156280755996704,1.2552536725997925,0.1404777318239212
1772593843760563000,7.36556298828125,1.145106315612793,1.216010332107544,-0.42888274788856506
1772593843780826000,7.385826171875,1.1055970191955566,1.4416260719299316,-0.9111098051071167
1772593843801090000,7.406090087890625,0.7534714341163635,1.7519807815551758,-1.4041121006011963
1772593843821354000,7.42635400390625,-0.1448676586151123,2.21052885055542,-1.8133066892623901
1772593843841617000,7.446616943359375,-2.447584867477417,2.5979068279266357,-1.0232524871826172
1772593843861881000,7.466881103515625,-4.92430305480957,2.6896963119506836,1.00955069065094
1772593843882145000,7.48714501953125,-5.5278520584106445,3.5988106727600098,1.8661189079284668
1772593843902408000,7.507407958984375,-5.1277031898498535,4.613283157348633,1.3374650478363037
1772593843922672000,7.527672119140625,-4.746577262878418,5.037110805511475,0.38112565875053406
1772593843942936000,7.54793603515625,-4.645741939544678,5.050280570983887,-0.43167635798454285
1772593843963199000,7.568198974609375,-4.481585502624512,4.86364221572876,-1.281061053276062
1772593843983463000,7.588462890625,-4.161519527435303,5.140739917755127,-2.360185384750366
1772593844003727000,7.60872705078125,-3.5376176834106445,5.584388732910156,-0.9821468591690063
1772593844023990000,7.628989990234375,-2.890568733215332,5.812132835388184,-1.7040905952453613
1772593844044254000,7.64925390625,-2.3407633304595947,5.697728633880615,-1.716861367225647
1772593844064518000,7.669517822265625,-1.6877281665802002,5.911239147186279,-0.9166970252990723
1772593844084781000,7.689781005859375,-1.390410304069519,5.741894245147705,-0.05972963944077492
1772593844105045000,7.710044921875,-1.6540720462799072,5.16402006149292,1.0895005464553833
1772593844125309000,7.730308837890625,-1.8089168071746826,4.442209243774414,1.9004402160644531
1772593844145572000,7.750572021484375,-1.815967321395874,3.681554079055786,1.1854138374328613
1772593844165836000,7.7708359375,-1.9838488101959229,2.8054306507110596,1.2734785079956055
1772593844186100000,7.791099853515625,-2.1570515632629395,1.9262475967407227,1.1505604982376099
1772593844206363000,7.81136279296875,-2.2072031497955322,0.8125359416007996,1.3457127809524536
1772593844226627000,7.831626953125,-2.274249315261841,-0.39881840348243713,1.4344425201416016
1772593844246891000,7.85189111328125,-2.3950388431549072,-0.8665453791618347,1.63837468624115
1772593844267154000,7.87215380859375,-2.440800428390503,-0.7030537724494934,1.4013185501098633
1772593844287418000,7.892418212890625,-2.4453234672546387,-0.31580883264541626,0.9169630408287048
1772593844307682000,7.91268212890625,-2.3629791736602783,0.3660934865474701,0.8215818405151367
1772593844327945000,7.932945068359375,-2.281033754348755,1.1439090967178345,1.161468744277954
1772593844348209000,7.953208984375,-2.026550769805908,1.2709509134292603,1.0844454765319824
1772593844368473000,7.97347314453125,-1.6821409463882446,0.9804174900054932,0.8398067355155945
1772593844388736000,7.993736083984375,-1.3663321733474731,0.6111313104629517,0.6990629434585571
1772593844409000000,8.014,-1.1506935358047485,0.411589115858078,0.523199737071991
1772593844429264000,8.034263916015625,-0.9874679446220398,0.38671284914016724,0.3140794634819031
1772593844449527000,8.054527099609375,-0.9147015810012817,0.3271162211894989,0.5325117111206055
1772593844469791000,8.074791015625,-0.8348847031593323,0.20818905532360077,0.7917835712432861
1772593844490055000,8.095054931640625,-0.7027877569198608,0.09125731140375137,0.8181231617927551
1772593844510318000,8.115318115234375,-0.563241183757782,0.03791302442550659,0.759989857673645
1772593844530582000,8.13558203125,-0.49965372681617737,-0.01942211017012596,0.6634113788604736
1772593844550846000,8.155845947265625,-0.5075023770332336,-0.11520238220691681,0.5494062900543213
1772593844571109000,8.176109130859375,-0.5841265916824341,-0.2112487107515335,0.43274056911468506
1772593844591373000,8.196373046875,-0.6435902118682861,-0.25993701815605164,0.5313144326210022
1772593844611637000,8.216636962890625,-0.7117006182670593,-0.28228574991226196,0.8669444918632507
1772593844631900000,8.23689990234375,-0.800563395023346,-0.30436840653419495,0.9017978310585022
1772593844652164000,8.2571640625,-0.8221139907836914,-0.26326271891593933,1.0667527914047241
1772593844672428000,8.277427978515625,-1.0354911088943481,0.0022614786867052317,1.4081029891967773
1772593844692692000,8.29769189453125,-1.246872901916504,0.3248547613620758,1.3236300945281982
1772593844712955000,8.317954833984375,-1.1220924854278564,0.37966233491897583,1.046798586845398
1772593844733219000,8.338218994140625,-0.8726646900177002,0.36582741141319275,0.6914803385734558
1772593844753483000,8.35848291015625,-0.7267327904701233,0.348666787147522,0.2508910894393921
1772593844773746000,8.378745849609375,-0.6910812258720398,0.30490052700042725,-0.14633096754550934
1772593844794010000,8.399010009765625,-0.6163194179534912,0.26100122928619385,-0.4061349630355835
1772593844814274000,8.419274169921875,-0.5056400299072266,0.2689829170703888,-0.7062464356422424
1772593844834537000,8.439536865234375,-0.3792632520198822,0.6260305047035217,-0.8440636396408081
1772593844854801000,8.45980078125,-0.3341667056083679,0.8656141757965088,-0.6415947675704956
1772593844875065000,8.480065185546875,-0.351859450340271,0.7727605104446411,-0.340685099363327
1772593844895328000,8.500327880859375,-0.2814875841140747,0.6620811223983765,-0.18424399197101593
1772593844915592000,8.520592041015625,-0.06678013503551483,0.5935716032981873,-0.10828491300344467
1772593844935856000,8.540856201171875,0.033390067517757416,0.48701605200767517,0.04868830367922783
1772593844956119000,8.561119140625,0.0862022414803505,0.3695521950721741,0.1641567349433899
1772593844976383000,8.581383056640625,0.0883306935429573,0.21537257730960846,0.1289042830467224
1772593844996647000,8.60164697265625,0.0653168261051178,0.16016589105129242,0.14446857571601868
1772593845016910000,8.62191015625,0.01569732278585434,0.08487196266651154,0.13528962433338165
1772593845037174000,8.642174072265625,-0.04549562931060791,0.005986266769468784,0.12025745213031769
1772593845057438000,8.66243798828125,-0.21284504234790802,-0.15205118060112,0.14007864892482758
1772593845077701000,8.682701171875,-0.22907447814941406,-0.1998082846403122,0.1301015317440033
1772593845097965000,8.702965087890625,-0.1547117382287979,-0.1497897058725357,0.10988125205039978
