time,seconds_elapsed,z,y,x
1772593836648007000,0.2530068359375,8.308777809143066,-3.064578056335449,0.8646060824394226
1772593836668271000,0.27327099609375,8.263287544250488,-3.0657753944396973,0.937629222869873
1772593836688534000,0.293533935546875,8.241740226745605,-2.9762918949127197,2.441187858581543
1772593836708798000,0.3137978515625,8.309077262878418,-2.131138801574707,4.337695121765137
1772593836729062000,0.334061767578125,9.166799545288086,-1.2497732639312744,5.821202278137207
1772593836749325000,0.354324951171875,6.468235015869141,-0.507570743560791,8.832808494567871
1772593836769589000,0.374589111328125,0.9564836025238037,2.6024973392486572,8.901941299438477
1772593836789853000,0.39485302734375,-2.8685529232025146,3.6484642028808594,10.326491355895996
1772593836810116000,0.4151162109375,-2.9325978755950928,3.6128504276275635,10.39771842956543
1772593836830380000,0.435380126953125,-2.8802247047424316,2.7404630184173584,9.589675903320312
1772593836850644000,0.45564404296875,-1.933916449546814,1.4457985162734985,8.680776596069336
1772593836870907000,0.475906982421875,-2.0045454502105713,0.203207865357399,7.8996686935424805
1772593836891171000,0.496171142578125,-2.997241258621216,-0.8170213103294373,6.531382083892822
1772593836911435000,0.51643505859375,-3.013402223587036,-1.5744868516921997,5.115511417388916
1772593836931698000,0.536697998046875,-2.947561502456665,-3.141192674636841,5.084087371826172
1772593836951962000,0.556962158203125,-1.9593547582626343,-4.845564842224121,5.963357925415039
1772593836972226000,0.57722607421875,-1.0477625131607056,-6.259640216827393,7.633912086486816
1772593836992489000,0.597489013671875,-1.0516531467437744,-7.690774440765381,8.691550254821777
1772593837012753000,0.6177529296875,-1.8285715579986572,-9.387365341186523,9.612420082092285
1772593837033017000,0.63801708984375,-1.908478021621704,-10.569802284240723,9.637859344482422
1772593837053280000,0.658280029296875,-1.955164909362793,-10.556633949279785,8.835203170776367
1772593837073544000,0.6785439453125,-2.7578210830688477,-11.611279487609863,8.925284385681152
1772593837093808000,0.69880810546875,-2.8104934692382812,-12.383708953857422,8.928576469421387
1772593837114071000,0.719071044921875,-1.722927451133728,-13.782820701599121,6.412869453430176
1772593837134335000,0.7393349609375,-1.7304092645645142,-13.799579620361328,4.837484359741211
1772593837154599000,0.759598876953125,-1.6974890232086182,-12.533346176147461,4.74381160736084
1772593837174862000,0.779862060546875,0.12120646238327026,-10.976816177368164,3.856759548187256
1772593837195126000,0.8001259765625,1.2898762226104736,-9.155726432800293,3.8558619022369385
1772593837215390000,0.820389892578125,1.3416507244110107,-7.2352776527404785,4.998494625091553
1772593837235653000,0.840653076171875,1.3509283065795898,-5.418976306915283,6.983287811279297
1772593837255917000,0.8609169921875,1.2997522354125977,-4.490923881530762,8.317755699157715
1772593837276181000,0.881180908203125,1.2611457109451294,-4.464886665344238,8.308178901672363
1772593837296444000,0.90144384765625,1.2327146530151367,-4.4846391677856445,7.2107367515563965
1772593837316708000,0.9217080078125,0.4189853072166443,-4.559158802032471,7.133523941040039
1772593837336972000,0.941971923828125,0.395043283700943,-5.426458358764648,7.090428352355957
1772593837357235000,0.96223486328125,0.42706573009490967,-6.426037311553955,7.06528902053833
1772593837377499000,0.982498779296875,1.525405764579773,-7.190685749053955,7.0452375411987305
1772593837397763000,1.00276318359375,1.603217363357544,-7.994239330291748,6.990170955657959
1772593837418026000,1.02302587890625,2.476203203201294,-9.039907455444336,6.060323238372803
1772593837438290000,1.0432900390625,2.502239942550659,-9.08569622039795,6.018125057220459
1772593837458554000,1.06355419921875,2.504634141921997,-9.136872291564941,5.257068157196045
1772593837478817000,1.083817138671875,2.486677646636963,-9.897629737854004,4.505289077758789
1772593837499081000,1.1040810546875,2.4390928745269775,-9.924863815307617,3.685275077819824
1772593837519345000,1.124344970703125,2.3579893112182617,-9.96945571899414,3.5957915782928467
1772593837539608000,1.144608154296875,1.2650363445281982,-10.018536567687988,2.727893590927124
1772593837559872000,1.1648720703125,1.2363059520721436,-10.025120735168457,2.7898435592651367
1772593837580136000,1.185135986328125,1.213860273361206,-9.937732696533203,3.570652484893799
1772593837600399000,1.205399169921875,1.204582691192627,-9.125499725341797,4.91499662399292
1772593837620663000,1.2256630859375,1.2204443216323853,-9.057265281677246,4.997896194458008
1772593837640927000,1.245927001953125,1.2363059520721436,-8.03075122833252,5.886743545532227
1772593837661190000,1.26618994140625,1.2198457717895508,-8.01848030090332,5.948094844818115
1772593837681454000,1.2864541015625,0.29478609561920166,-8.061277389526367,6.961440563201904
1772593837701718000,1.306718017578125,-0.4767454266548157,-9.428067207336426,7.020398139953613
1772593837721981000,1.32698095703125,-0.4944026470184326,-10.564414978027344,7.881412506103516
1772593837742245000,1.3472451171875,-0.441430926322937,-10.647912979125977,7.85926628112793
1772593837762509000,1.367509033203125,-0.3767874836921692,-11.512818336486816,6.983587265014648
1772593837782772000,1.38777197265625,-0.3100491166114807,-11.485883712768555,5.880458831787109
1772593837803036000,1.408035888671875,0.5051765441894531,-11.508627891540527,5.055057525634766
1772593837823300000,1.428300048828125,0.5105634927749634,-11.478102684020996,5.075109004974365
1772593837843563000,1.44856298828125,0.43604397773742676,-10.573094367980957,6.074987411499023
1772593837863827000,1.468826904296875,0.3767874836921692,-9.744400978088379,6.13753604888916
1772593837884091000,1.4890908203125,0.3256114423274994,-9.687239646911621,6.081871032714844
1772593837904354000,1.50935400390625,0.3411737382411957,-9.651625633239746,5.1816511154174805
1772593837924618000,1.529617919921875,0.3785831332206726,-9.611522674560547,4.141669750213623
1772593837944882000,1.5498818359375,0.3711012601852417,-8.843283653259277,2.820668935775757
1772593837965146000,1.57014599609375,0.3522469103336334,-8.061576843261719,1.9419968128204346
1772593837985409000,1.590408935546875,0.28131869435310364,-6.866271018981934,1.0740987062454224
1772593838005673000,1.6106728515625,0.21607670187950134,-5.862801551818848,1.028908133506775
1772593838025937000,1.63093701171875,0.14784196019172668,-5.042488098144531,0.955585777759552
1772593838046200000,1.651199951171875,0.12689268589019775,-5.0125603675842285,0.8852560520172119
1772593838066464000,1.671464111328125,0.07781155407428741,-5.0032830238342285,0.8514379858970642
1772593838086728000,1.69172802734375,-0.8753799796104431,-5.768230438232422,1.7301100492477417
1772593838106991000,1.7119912109375,-2.5166053771972656,-8.658031463623047,6.793846607208252
1772593838127255000,1.732255126953125,-3.5236663818359375,-11.314997673034668,13.595174789428711
1772593838147519000,1.75251904296875,-3.549104690551758,-11.328763961791992,14.700997352600098
1772593838167782000,1.772781982421875,-2.4654293060302734,-10.39532470703125,13.753191947937012
1772593838188046000,1.793046142578125,-1.478419542312622,-9.596260070800781,9.924863815307617
1772593838208310000,1.81331005859375,-1.43532395362854,-9.648932456970215,5.677250862121582
1772593838228573000,1.833572998046875,0.05776011571288109,-10.38963794708252,2.991854190826416
1772593838248837000,1.853837158203125,0.988506019115448,-10.33217716217041,2.044947624206543
1772593838269101000,1.87410107421875,1.0235211849212646,-10.284293174743652,1.2689268589019775
1772593838289364000,1.894364013671875,0.9852139949798584,-10.395025253295898,1.2509703636169434
1772593838309628000,1.9146279296875,3.8097734451293945,-10.43123722076416,-1.3524247407913208
1772593838329892000,1.93489208984375,4.658817291259766,-10.383952140808105,-2.783858060836792
1772593838350155000,1.955155029296875,4.6600141525268555,-9.48762321472168,-3.6227264404296875
1772593838370419000,1.9754189453125,3.8477814197540283,-8.443451881408691,-3.59220027923584
1772593838390683000,1.995682861328125,2.061108350753784,-8.385392189025879,-3.519775867462158
1772593838410946000,2.015946044921875,0.32291796803474426,-8.43387508392334,-1.953967809677124
1772593838431210000,2.0362099609375,-0.4794389009475708,-9.839271545410156,0.13826514780521393
1772593838451474000,2.056473876953125,-0.44592007994651794,-10.967239379882812,2.055422067642212
1772593838471737000,2.076737060546875,-0.3845686614513397,-10.925041198730469,2.972700595855713
1772593838492001000,2.0970009765625,0.5231330990791321,-9.946112632751465,2.061707019805908
1772593838512265000,2.117264892578125,0.5617395639419556,-9.929352760314941,1.9812018871307373
1772593838532528000,2.137528076171875,0.5841852426528931,-9.922768592834473,1.934814214706421
1772593838552792000,2.1577919921875,0.5548562407493591,-9.92097282409668,1.9306243658065796
1772593838573056000,2.178055908203125,0.4967968463897705,-9.931447982788086,1.9261353015899658
1772593838593319000,2.19831884765625,0.4569932520389557,-9.980828285217285,1.9303251504898071
1772593838613583000,2.2185830078125,0.4554968774318695,-10.804733276367188,2.0021512508392334
1772593838633847000,2.238846923828125,0.47465047240257263,-10.822988510131836,2.8856115341186523
1772593838654110000,2.25910986328125,0.5048772692680359,-10.793061256408691,3.7119104862213135
1772593838674374000,2.279373779296875,0.4884171485900879,-10.842741012573242,4.7491984367370605
1772593838694638000,2.29963818359375,-0.3555389642715454,-11.75672721862793,5.750872611999512
1772593838714908000,2.319907958984375,-0.38726213574409485,-12.718598365783691,6.520608425140381
1772593838735172000,2.340172119140625,-0.39384618401527405,-12.752415657043457,6.600215435028076
1772593838755436000,2.36043603515625,-0.3256114423274994,-12.817956924438477,6.6127848625183105
1772593838775699000,2.380698974609375,1.66696298122406,-12.876615524291992,5.2714338302612305
1772593838795963000,2.400962890625,2.5860371589660645,-12.910134315490723,3.6709096431732178
1772593838816227000,2.42122705078125,2.61087703704834,-12.869132995605469,2.7632081508636475
1772593838836490000,2.441489990234375,2.538452386856079,-11.820174217224121,2.742558002471924
1772593838856754000,2.46175390625,1.5945383310317993,-11.762712478637695,2.727893590927124
1772593838877018000,2.48201806640625,1.6103999614715576,-11.708843231201172,2.741959571838379
1772593838897281000,2.502281005859375,1.646312952041626,-11.719318389892578,2.8006174564361572
1772593838917545000,2.522544921875,1.6810288429260254,-11.796232223510742,2.820668935775757
1772593838937809000,2.542808837890625,2.6069862842559814,-11.836933135986328,1.7091606855392456
1772593838958072000,2.563072021484375,2.660856008529663,-11.79443645477295,0.30466216802597046
1772593838978336000,2.5833359375,2.676717519760132,-10.160393714904785,-0.7359177470207214
1772593838998600000,2.603599853515625,2.651578426361084,-8.640374183654785,-0.8104372620582581
1772593839018863000,2.623863037109375,2.6168625354766846,-7.297826290130615,-1.7094600200653076
1772593839039127000,2.644126953125,2.5668835639953613,-5.971138954162598,-1.7893664836883545
1772593839059391000,2.664390869140625,2.516904592514038,-4.86830997467041,-2.5019407272338867
1772593839079654000,2.68465380859375,1.5607202053070068,-4.022857189178467,-2.5007436275482178
1772593839099918000,2.70491796875,-1.0606313943862915,-4.033930778503418,-2.4905683994293213
1772593839120182000,2.72518212890625,-4.387973308563232,-5.700594425201416,-0.623390257358551
1772593839140445000,2.74544482421875,-4.478354454040527,-8.574234962463379,2.848501443862915
1772593839160709000,2.765709228515625,-2.161964178085327,-10.081684112548828,2.893991231918335
1772593839180973000,2.78597314453125,0.4893149733543396,-11.546037673950195,1.4655506610870361
1772593839201236000,2.806236083984375,-2.5638906955718994,-11.620556831359863,-4.096179962158203
1772593839221500000,2.8265,-1.53707754611969,-17.352275848388672,-4.1751885414123535
1772593839241764000,2.84676416015625,-2.7326819896698,-19.589059829711914,-1.5690999031066895
1772593839262027000,2.867027099609375,-1.2934675216674805,-18.235137939453125,0.5770025849342346
1772593839282291000,2.887291015625,0.3663128614425659,-14.131476402282715,1.6499042510986328
1772593839302555000,2.907554931640625,1.493682622909546,-11.103110313415527,1.7181390523910522
1772593839322818000,2.927818115234375,2.3971943855285645,-8.852261543273926,2.647388458251953
1772593839343082000,2.94808203125,2.4217350482940674,-7.905653953552246,3.464409828186035
1772593839363346000,2.968345947265625,2.3786394596099854,-7.126341342926025,4.363731861114502
1772593839383609000,2.988609130859375,1.6011223793029785,-7.190086841583252,4.435258865356445
1772593839403873000,3.008873046875,1.5454572439193726,-8.12292766571045,4.452915668487549
1772593839424137000,3.029136962890625,1.5589245557785034,-8.204629898071289,4.417601585388184
1772593839444400000,3.049400146484375,1.6268600225448608,-8.9773588180542,4.348468780517578
1772593839464664000,3.0696640625,2.4130561351776123,-8.958504676818848,4.278737545013428
1772593839484928000,3.089927978515625,2.492363929748535,-8.951621055603027,4.214094161987305
1772593839505192000,3.11019189453125,3.4099416732788086,-8.93156909942627,4.168604373931885
1772593839525455000,3.130455078125,4.241029262542725,-8.172607421875,2.9957449436187744
1772593839545719000,3.150718994140625,4.206313133239746,-8.127716064453125,1.733102798461914
1772593839565983000,3.17098291015625,3.451840400695801,-8.08402156829834,0.4118026793003082
1772593839586246000,3.191245849609375,3.3662476539611816,-8.17021369934082,0.3438672125339508
1772593839606510000,3.211510009765625,2.3546974658966064,-9.395146369934082,0.3684077858924866
1772593839626774000,3.23177392578125,2.338536500930786,-10.291176795959473,0.45340195298194885
1772593839647037000,3.252036865234375,2.38462495803833,-10.37228012084961,0.5018845200538635
1772593839667301000,3.272301025390625,2.4304139614105225,-11.236587524414062,0.5156511664390564
1772593839687565000,3.29256494140625,3.155557870864868,-11.26262378692627,0.5216367244720459
1772593839707828000,3.312827880859375,3.1902737617492676,-11.265616416931152,0.5596446394920349
1772593839728092000,3.333091796875,3.183091163635254,-11.277587890625,1.3210008144378662
1772593839748356000,3.353356201171875,3.14508318901062,-11.288661003112793,1.403002142906189
1772593839768619000,3.373618896484375,3.062483310699463,-11.256638526916504,2.2218191623687744
1772593839788883000,3.393883056640625,1.875557780265808,-11.28806209564209,2.2131402492523193
1772593839809147000,3.41414697265625,-0.3025672435760498,-12.387300491333008,1.0555436611175537
1772593839829410000,3.43441015625,-1.5454572439193726,-12.464513778686523,0.9672574996948242
1772593839849674000,3.454674072265625,-2.4070706367492676,-13.297994613647461,0.12419921159744263
1772593839869938000,3.47493798828125,-2.457049608230591,-13.340790748596191,0.12779051065444946
1772593839890201000,3.495201171875,-2.5103204250335693,-13.353959083557129,0.14365209639072418
1772593839910465000,3.515465087890625,-2.5016415119171143,-12.566566467285156,0.15023615956306458
1772593839930729000,3.53572900390625,-0.6760627031326294,-11.832444190979004,0.11103110015392303
1772593839950992000,3.555991943359375,1.4496891498565674,-10.983400344848633,0.06643909960985184
1772593839971256000,3.576256103515625,2.9053637981414795,-9.85184097290039,0.039205051958560944
1772593839991520000,3.59652001953125,3.7481226921081543,-8.625411033630371,0.04997896030545235
1772593840011783000,3.616782958984375,3.8055837154388428,-7.67730712890625,0.10863690078258514
1772593840032047000,3.637047119140625,2.532766103744507,-7.6653361320495605,1.9623476266860962
1772593840052311000,3.65731103515625,1.5738883018493652,-8.714594841003418,3.1453824043273926
1772593840072574000,3.677573974609375,0.8074445128440857,-9.734524726867676,3.141192674636841
1772593840092838000,3.697837890625,0.7832032442092896,-9.818920135498047,2.153883695602417
1772593840113102000,3.71810205078125,0.7484872937202454,-10.594342231750488,2.067692518234253
1772593840133365000,3.738364990234375,0.7371148467063904,-9.709385871887207,1.1378443241119385
1772593840153629000,3.75862890625,0.7230489253997803,-8.7669677734375,-0.5108627676963806
1772593840173893000,3.77889306640625,0.6596025824546814,-7.573757648468018,-1.5909470319747925
1772593840194156000,3.799156005859375,-0.08888474106788635,-6.399102687835693,-2.4549546241760254
1772593840214420000,3.819419921875,-0.15801730751991272,-5.2771196365356445,-2.5178024768829346
1772593840234684000,3.839683837890625,-1.7483657598495483,-5.259761810302734,-2.4887726306915283
1772593840254947000,3.859947021484375,-2.826355218887329,-6.8336501121521,-0.3627215623855591
1772593840275211000,3.8802109375,-3.7759554386138916,-10.542867660522461,2.9328970909118652
1772593840295475000,3.900474853515625,-3.828029155731201,-13.931560516357422,6.0504469871521
1772593840315738000,3.920738037109375,-2.409764051437378,-14.705486297607422,7.056311130523682
1772593840336002000,3.941001953125,-0.4779425263404846,-13.101370811462402,6.329071998596191
1772593840356266000,3.961265869140625,-1.2446856498718262,-13.033435821533203,4.7590742111206055
1772593840376529000,3.98152880859375,-1.2883797883987427,-12.102689743041992,3.0591912269592285
1772593840396793000,4.00179296875,-0.541987419128418,-10.916961669921875,1.5233107805252075
1772593840417057000,4.02205712890625,-0.4794389009475708,-9.504681587219238,0.4354454278945923
1772593840437320000,4.04231982421875,-0.4100070297718048,-9.434351921081543,0.3902548849582672
1772593840457584000,4.062584228515625,0.34087446331977844,-9.48462963104248,0.322618693113327
1772593840477848000,4.08284814453125,1.6699557304382324,-10.407295227050781,-1.304241418838501
1772593840498111000,4.103111083984375,1.7160440683364868,-10.38155746459961,-2.090437412261963
1772593840518375000,4.123375,1.7052701711654663,-9.445425033569336,-2.092831611633301
1772593840538639000,4.14363916015625,1.680729627609253,-8.557475090026855,-2.0742764472961426
1772593840558902000,4.163902099609375,1.7193361520767212,-8.563759803771973,-1.9967641830444336
1772593840579166000,4.184166015625,1.7809867858886719,-8.653542518615723,-1.0324994325637817
1772593840599430000,4.204429931640625,1.857301950454712,-9.644144058227539,0.0005985504249110818
1772593840619693000,4.224693115234375,1.8773534297943115,-9.674071311950684,0.07721300423145294
1772593840639957000,4.24495703125,1.853710651397705,-9.668684005737305,1.2623428106307983
1772593840660221000,4.265220947265625,0.9190741777420044,-9.630376815795898,2.15567946434021
1772593840680484000,4.285484130859375,0.8427590131759644,-9.623494148254395,2.173635959625244
1772593840700748000,4.305748046875,0.8517372608184814,-9.67885971069336,2.1380221843719482
1772593840721012000,4.326011962890625,0.7766191959381104,-9.753378868103027,2.094327926635742
1772593840741275000,4.34627490234375,0.7416039705276489,-10.530896186828613,2.09672212600708
1772593840761539000,4.3665390625,0.8101379871368408,-10.616787910461426,2.1912930011749268
1772593840781803000,4.386802978515625,0.8921394348144531,-10.68562126159668,3.427299737930298
1772593840802067000,4.40706689453125,1.7372926473617554,-10.716147422790527,4.239831924438477
1772593840822330000,4.427330078125,1.7579425573349,-10.685321807861328,5.020042419433594
1772593840842594000,4.447593994140625,1.7450737953186035,-10.723928451538086,5.947795391082764
1772593840862858000,4.46785791015625,0.6416460275650024,-10.804733276367188,5.964554786682129
1772593840883121000,4.488120849609375,0.5659294128417969,-11.728296279907227,5.979817867279053
1772593840903385000,4.508385009765625,-0.21877017617225647,-11.75672721862793,5.982511520385742
1772593840923649000,4.52864892578125,-0.20889410376548767,-11.784560203552246,5.9070940017700195
1772593840943912000,4.548911865234375,-0.18225860595703125,-11.799224853515625,4.7509942054748535
1772593840964176000,4.56917578125,-0.1256955862045288,-11.878232955932617,3.667917013168335
1772593840984440000,4.589440185546875,-0.19482816755771637,-12.997522354125977,2.3843255043029785
1772593841004703000,4.609702880859375,-0.2406172752380371,-12.998719215393066,1.4284405708312988
1772593841024967000,4.629966796875,-0.22954408824443817,-11.974000930786133,0.6796540021896362
1772593841045231000,4.650231201171875,-0.24660277366638184,-11.033080101013184,0.7018003463745117
1772593841065494000,4.670493896484375,-0.26665422320365906,-10.94808578491211,0.7529764175415039
1772593841085758000,4.690758056640625,-0.26725277304649353,-10.045770645141602,0.7954735159873962
1772593841106022000,4.71102197265625,-0.24899697303771973,-9.99220085144043,0.7721300721168518
1772593841126285000,4.73128515625,-0.24570494890213013,-9.086593627929688,0.7083844542503357
1772593841146549000,4.751549072265625,-0.24839842319488525,-7.417236804962158,0.6341641545295715
1772593841166813000,4.77181298828125,-0.2861070930957794,-6.27400541305542,-0.19063830375671387
1772593841187076000,4.792076171875,-0.3345896899700165,-5.3797712326049805,-0.22864626348018646
1772593841207340000,4.812340087890625,-0.3510498106479645,-5.311835765838623,-0.2950853705406189
1772593841227604000,4.83260400390625,-0.2959831953048706,-5.249885559082031,-0.3603273630142212
1772593841247867000,4.852866943359375,-0.26246437430381775,-5.225046157836914,-0.3932476341724396
1772593841268131000,4.873131103515625,-0.30196869373321533,-6.076783180236816,0.67815762758255
1772593841288395000,4.89339501953125,-2.7997195720672607,-9.319430351257324,4.035726070404053
1772593841308658000,4.913657958984375,-5.090970516204834,-13.812448501586914,8.500014305114746
1772593841328922000,4.933922119140625,-5.809231281280518,-15.404593467712402,10.799046516418457
1772593841349186000,4.95418603515625,-4.237437725067139,-14.3702974319458,9.870096206665039
1772593841369449000,4.974448974609375,-2.8212673664093018,-12.628216743469238,7.540538311004639
1772593841389713000,4.994712890625,-2.793135643005371,-11.733084678649902,5.081094741821289
1772593841409977000,5.01497705078125,-2.7323827743530273,-11.651981353759766,3.3168671131134033
1772593841430240000,5.035239990234375,-0.9424176216125488,-9.797672271728516,2.301426410675049
1772593841450504000,5.05550390625,-0.10624270141124725,-8.669404029846191,2.2538416385650635
1772593841470768000,5.07576806640625,0.7924807667732239,-8.593987464904785,2.1924901008605957
1772593841491031000,5.096031005859375,1.8504186868667603,-8.5903959274292,1.1321581602096558
1772593841511295000,5.116294921875,3.1441853046417236,-9.75517463684082,1.0720038414001465
1772593841531559000,5.136558837890625,4.7509942054748535,-9.78480339050293,0.3031657934188843
1772593841551822000,5.156822021484375,4.831499099731445,-9.746496200561523,0.2974795699119568
1772593841572086000,5.1770859375,4.822520732879639,-9.701305389404297,0.29388827085494995
1772593841592350000,5.197349853515625,1.6038159132003784,-9.704597473144531,0.30286651849746704
1772593841612613000,5.217613037109375,-0.46567222476005554,-9.760262489318848,0.3181295394897461
1772593841632877000,5.237876953125,-0.4246715307235718,-9.795876502990723,0.32860419154167175
1772593841653141000,5.25814111328125,0.42856210470199585,-9.753080368041992,0.39534255862236023
1772593841673404000,5.27840380859375,1.3742717504501343,-8.995614051818848,1.2554595470428467
1772593841693668000,5.298668212890625,1.3850456476211548,-8.984241485595703,1.324592113494873
1772593841713932000,5.31893212890625,1.3682862520217896,-9.00160026550293,1.3823522329330444
1772593841734195000,5.33919482421875,1.34823477268219,-9.02943229675293,1.391929030418396
1772593841754459000,5.359458984375,1.3195043802261353,-9.8599214553833,1.367987036705017
1772593841774723000,5.37972314453125,1.2877812385559082,-9.9093017578125,1.3272855281829834
1772593841794986000,5.399986083984375,1.2539631128311157,-9.974543571472168,1.3215993642807007
1772593841815250000,5.42025,1.2069768905639648,-10.685920715332031,1.3718775510787964
1772593841835514000,5.44051416015625,1.2485761642456055,-10.682628631591797,2.8125884532928467
1772593841855777000,5.460777099609375,2.104203939437866,-10.657489776611328,3.9426517486572266
1772593841876041000,5.481041015625,2.097320795059204,-10.631752014160156,4.0096893310546875
1772593841896305000,5.501304931640625,1.3467384576797485,-11.60559368133545,4.020462989807129
1772593841916568000,5.521568115234375,0.20889410376548767,-12.37293529510498,3.9591116905212402
1772593841936832000,5.54183203125,-0.9484031200408936,-12.455235481262207,3.9217023849487305
1772593841957096000,5.562095947265625,-0.9944915175437927,-12.522871971130371,3.8681321144104004
1772593841977359000,5.582359130859375,-1.0118495225906372,-12.500426292419434,2.5872342586517334
1772593841997623000,5.602623046875,-0.99479079246521,-12.51329517364502,1.4619593620300293
1772593842017887000,5.622886962890625,-0.9579799771308899,-13.351265907287598,0.2974795699119568
1772593842038150000,5.64314990234375,-0.9454103708267212,-14.132373809814453,-1.0705074071884155
1772593842058414000,5.6634140625,-0.9056068062782288,-14.050971031188965,-2.0039467811584473
1772593842078678000,5.683677978515625,-0.8289923667907715,-12.690465927124023,-1.965938925743103
1772593842098942000,5.70394189453125,0.11192893236875534,-11.615469932556152,-0.8759785294532776
1772593842119205000,5.724205078125,0.14574703574180603,-10.703577995300293,0.5156511664390564
1772593842139469000,5.744468994140625,0.1322796493768692,-9.6803560256958,1.4969745874404907
1772593842159733000,5.76473291015625,0.13377602398395538,-9.611822128295898,1.4472949504852295
1772593842179996000,5.784995849609375,0.10504560172557831,-9.537601470947266,0.16849194467067719
1772593842200260000,5.805260009765625,0.1074398010969162,-8.58620548248291,-0.6383540034294128
1772593842220524000,5.82552392578125,0.10235211998224258,-7.396287441253662,-0.5811924338340759
1772593842240787000,5.845786865234375,0.04159925505518913,-5.682637691497803,0.1999158412218094
1772593842261051000,5.86605078125,0.030526071786880493,-4.902726650238037,0.2139817774295807
1772593842281315000,5.886315185546875,-0.04908113554120064,-5.889736175537109,0.25438392162323
1772593842301578000,5.906577880859375,-0.03621229901909828,-5.947196960449219,0.26336219906806946
1772593842321842000,5.926842041015625,-0.02753331884741783,-6.001365661621094,1.0223240852355957
1772593842342106000,5.947106201171875,-0.06434416770935059,-7.117362976074219,4.605546474456787
1772593842362369000,5.967369140625,-1.569698452949524,-8.105569839477539,11.932401657104492
1772593842382633000,5.987633056640625,-2.3995885848999023,-8.054393768310547,16.009727478027344
1772593842402897000,6.00789697265625,-2.36188006401062,-7.988852500915527,15.915156364440918
1772593842423160000,6.02816015625,-4.423586845397949,-8.759486198425293,12.24394702911377
1772593842443424000,6.048424072265625,-3.3629555702209473,-11.191994667053223,10.781688690185547
1772593842463688000,6.06868798828125,0.5796960592269897,-13.432968139648438,6.496067523956299
1772593842483951000,6.088951171875,0.5617395639419556,-13.465588569641113,3.2540194988250732
1772593842504215000,6.109215087890625,-0.42437225580215454,-11.211148262023926,2.089240312576294
1772593842524479000,6.12947900390625,-0.38636431097984314,-8.529643058776855,2.036867141723633
1772593842544742000,6.149741943359375,2.425326347351074,-8.502708435058594,1.9877859354019165
1772593842565006000,6.170006103515625,3.4763808250427246,-9.593865394592285,1.0905588865280151
1772593842585270000,6.19027001953125,3.483264207839966,-10.663175582885742,1.0202292203903198
1772593842605533000,6.210532958984375,3.409642457962036,-10.740987777709961,0.26665422320365906
1772593842625797000,6.230797119140625,1.2225391864776611,-11.555015563964844,0.2932897210121155
1772593842646061000,6.25106103515625,-0.26396074891090393,-11.569082260131836,1.0384849309921265
1772593842666324000,6.271323974609375,-0.29149407148361206,-11.512518882751465,1.7842788696289062
1772593842686588000,6.291587890625,-0.23912090063095093,-11.437700271606445,1.8680758476257324
1772593842706852000,6.31185205078125,1.1118074655532837,-10.623671531677246,2.702754497528076
1772593842727115000,6.332114990234375,1.184531331062317,-10.550947189331055,2.7380688190460205
1772593842747379000,6.35237890625,1.258152961730957,-10.483611106872559,2.781463861465454
1772593842767643000,6.372642822265625,1.3120225667953491,-10.411186218261719,2.820668935775757
1772593842787906000,6.392906005859375,1.348534107208252,-9.677363395690918,2.8796260356903076
1772593842808170000,6.413169921875,1.3685855865478516,-9.646537780761719,3.623624324798584
1772593842828434000,6.433433837890625,1.3626000881195068,-9.60643482208252,3.6739025115966797
1772593842848697000,6.453697021484375,1.3404536247253418,-9.563039779663086,3.7493197917938232
1772593842868961000,6.4739609375,1.3084312677383423,-9.517251014709473,4.552873611450195
1772593842889225000,6.494224853515625,1.2877812385559082,-8.745121002197266,4.587290287017822
1772593842909488000,6.514488037109375,1.2575544118881226,-8.727463722229004,4.607940673828125
1772593842929752000,6.534751953125,1.1962029933929443,-8.729259490966797,4.603451251983643
1772593842950016000,6.55501611328125,0.4010287821292877,-8.769661903381348,4.587589740753174
1772593842970279000,6.57527880859375,0.36481648683547974,-9.68005657196045,4.541501522064209
1772593842990543000,6.595543212890625,0.30376434326171875,-10.823587417602539,4.475361347198486
1772593843010807000,6.61580712890625,-0.529417872428894,-12.316072463989258,3.7439329624176025
1772593843031070000,6.636070068359375,-1.6549919843673706,-13.254301071166992,3.66851544380188
1772593843051334000,6.656333984375,-1.7082629203796387,-13.325228691101074,2.9565398693084717
1772593843071598000,6.67659814453125,-1.6487071514129639,-13.373112678527832,2.9747955799102783
1772593843091861000,6.696861083984375,-0.8221089839935303,-13.348572731018066,2.973299264907837
1772593843112125000,6.717125,-0.8589198589324951,-12.15296745300293,2.952948570251465
1772593843132389000,6.73738916015625,-0.8508394360542297,-11.231200218200684,2.975693464279175
1772593843152652000,6.757652099609375,-0.806546688079834,-10.387842178344727,3.010409355163574
1772593843172916000,6.777916015625,-0.8044517636299133,-9.362825393676758,3.0190882682800293
1772593843193180000,6.798179931640625,-0.8095394372940063,-8.56076717376709,3.0265703201293945
1772593843213443000,6.818443115234375,-0.7906851172447205,-7.641992568969727,3.02986216545105
1772593843233707000,6.83870703125,-0.7616553902626038,-7.587224960327148,3.0271687507629395
1772593843253971000,6.858970947265625,-0.739209771156311,-6.816890716552734,3.0235774517059326
1772593843274234000,6.879234130859375,-0.7197569012641907,-6.780977725982666,3.0313587188720703
1772593843294498000,6.899498046875,-0.6572083830833435,-6.712144374847412,3.0316579341888428
1772593843314762000,6.919761962890625,0.11432313174009323,-6.651092529296875,3.069965124130249
1772593843335025000,6.94002490234375,0.14604631066322327,-6.578967094421387,3.848080635070801
1772593843355289000,6.9602890625,0.14335282146930695,-6.540360450744629,3.9297828674316406
1772593843375553000,6.980552978515625,0.11252748221158981,-6.514622688293457,4.873098373413086
1772593843395817000,7.00081689453125,-0.6613982319831848,-6.54185676574707,5.664381980895996
1772593843416080000,7.021079833984375,-0.6982090473175049,-6.596025466918945,6.4834980964660645
1772593843436344000,7.041343994140625,-0.7565677165985107,-7.557896137237549,7.946654796600342
1772593843456608000,7.06160791015625,-0.8224082589149475,-7.603984832763672,9.253589630126953
1772593843476871000,7.081870849609375,-1.6867151260375977,-8.409034729003906,10.063727378845215
1772593843497135000,7.102135009765625,-1.7654244899749756,-8.49133586883545,10.041581153869629
1772593843517399000,7.12239892578125,-2.8341362476348877,-9.396044731140137,9.049484252929688
1772593843537662000,7.142661865234375,-2.8499977588653564,-9.47265911102295,8.970475196838379
1772593843557926000,7.16292578125,-2.861370325088501,-9.53281307220459,7.851485252380371
1772593843578190000,7.183190185546875,-2.876633405685425,-10.524611473083496,7.032967567443848
1772593843598453000,7.203452880859375,-1.7235260009765625,-10.601225852966309,6.2853779792785645
1772593843618717000,7.223717041015625,0.02124853990972042,-11.585243225097656,6.277895927429199
1772593843638981000,7.243981201171875,1.2850877046585083,-12.59380054473877,6.293757915496826
1772593843659244000,7.264244140625,2.3511061668395996,-13.532626152038574,6.367379188537598
1772593843679508000,7.284508056640625,1.349731206893921,-14.330195426940918,6.424540996551514
1772593843699772000,7.30477197265625,1.2578537464141846,-14.337677001953125,6.422146797180176
1772593843720035000,7.32503515625,1.212363839149475,-14.34904956817627,6.32757568359375
1772593843740299000,7.345299072265625,0.43843817710876465,-14.330493927001953,5.245696067810059
1772593843760563000,7.36556298828125,0.3800795078277588,-13.25639533996582,4.409820079803467
1772593843780826000,7.385826171875,-0.5946598649024963,-11.196185111999512,4.4170026779174805
1772593843801090000,7.406090087890625,-0.6192004084587097,-9.449016571044922,5.288193225860596
1772593843821354000,7.42635400390625,2.5219922065734863,-7.371447563171387,9.517251014709473
1772593843841617000,7.446616943359375,4.686350345611572,-6.415562629699707,10.395624160766602
1772593843861881000,7.466881103515625,5.711368083953857,-5.448903560638428,9.645041465759277
1772593843882145000,7.48714501953125,5.739500045776367,-4.287715911865234,8.365341186523438
1772593843902408000,7.507407958984375,5.738302707672119,-3.2456395626068115,7.552209854125977
1772593843922672000,7.527672119140625,5.674258232116699,-2.4346039295196533,6.4631476402282715
1772593843942936000,7.54793603515625,4.923974990844727,-2.3564929962158203,5.017648220062256
1772593843963199000,7.568198974609375,4.855141639709473,-2.30022931098938,3.664924144744873
1772593843983463000,7.588462890625,4.782717227935791,-2.2673089504241943,2.493561029434204
1772593844003727000,7.60872705078125,4.768651008605957,-2.263418436050415,2.4136545658111572
1772593844023990000,7.628989990234375,4.84406852722168,-2.2649147510528564,1.5194202661514282
1772593844044254000,7.64925390625,5.7993550300598145,-2.24935245513916,1.467944860458374
1772593844064518000,7.669517822265625,6.707954406738281,-2.183511972427368,1.390731930732727
1772593844084781000,7.689781005859375,6.788459777832031,-1.4104840755462646,1.349731206893921
1772593844105045000,7.710044921875,8.391077995300293,-1.370081901550293,1.315613865852356
1772593844125309000,7.730308837890625,8.44554615020752,-1.3221979141235352,1.28000009059906
1772593844145572000,7.750572021484375,8.403648376464844,-1.2476783990859985,1.2958617210388184
1772593844165836000,7.7708359375,7.182605266571045,-0.3214215636253357,1.3569138050079346
1772593844186100000,7.791099853515625,7.097910404205322,-0.2636614739894867,2.2352864742279053
1772593844206363000,7.81136279296875,6.342240333557129,0.5093663930892944,2.256535053253174
1772593844226627000,7.831626953125,6.413467884063721,0.49889177083969116,2.2957401275634766
1772593844246891000,7.85189111328125,7.294534206390381,0.45190557837486267,2.3382372856140137
1772593844267154000,7.87215380859375,8.486248016357422,0.4845265746116638,2.332850217819214
1772593844287418000,7.892418212890625,8.55148983001709,1.358709454536438,1.4047977924346924
1772593844307682000,7.91268212890625,9.324518203735352,1.4116811752319336,1.3709797859191895
1772593844327945000,7.932945068359375,9.288305282592773,1.4508862495422363,1.3494319915771484
1772593844348209000,7.953208984375,9.202413558959961,1.5005658864974976,1.3365631103515625
1772593844368473000,7.97347314453125,8.464999198913574,1.5514427423477173,1.3386579751968384
1772593844388736000,7.993736083984375,9.362226486206055,1.5816694498062134,1.371578335762024
1772593844409000000,8.014,10.451887130737305,1.645115852355957,1.4083890914916992
1772593844429264000,8.034263916015625,10.455179214477539,2.401085138320923,1.4000093936920166
1772593844449527000,8.054527099609375,9.612719535827637,2.4316110610961914,1.3503297567367554
1772593844469791000,8.074791015625,9.559449195861816,2.5121161937713623,1.3171101808547974
1772593844490055000,8.095054931640625,9.486125946044922,2.582146644592285,1.3063362836837769
1772593844510318000,8.115318115234375,9.475052833557129,2.653373956680298,1.3605051040649414
1772593844530582000,8.13558203125,9.46338176727295,2.681206703186035,1.4359225034713745
1772593844550846000,8.155845947265625,9.489119529724121,2.7332804203033447,1.4661492109298706
1772593844571109000,8.176109130859375,9.468469619750977,3.5066077709198,1.502660870552063
1772593844591373000,8.196373046875,9.457395553588867,3.5592801570892334,1.5179238319396973
1772593844611637000,8.216636962890625,9.38556957244873,3.62302565574646,1.4876971244812012
1772593844631900000,8.23689990234375,8.62630844116211,4.378994941711426,1.4053963422775269
1772593844652164000,8.2571640625,8.632294654846191,4.437353610992432,0.5485714673995972
1772593844672428000,8.277427978515625,8.636184692382812,4.445733070373535,0.517746090888977
1772593844692692000,8.29769189453125,8.685864448547363,4.434061527252197,0.501285970211029
1772593844712955000,8.317954833984375,9.484331130981445,4.451419353485107,0.45100775361061096
1772593844733219000,8.338218994140625,9.560047149658203,4.424185276031494,0.375291109085083
1772593844753483000,8.35848291015625,10.317512512207031,4.344278812408447,0.3115454912185669
1772593844773746000,8.378745849609375,10.338461875915527,4.279635429382324,0.28042086958885193
1772593844794010000,8.399010009765625,10.336965560913086,3.5883097648620605,0.2139817774295807
1772593844814274000,8.419274169921875,10.2962646484375,3.589207649230957,-0.5300164222717285
1772593844834537000,8.439536865234375,9.515754699707031,3.5604772567749023,-0.5752069354057312
1772593844854801000,8.45980078125,9.493309020996094,3.5464112758636475,-0.6365583539009094
1772593844875065000,8.480065185546875,9.445724487304688,3.5224692821502686,-0.669179379940033
1772593844895328000,8.500327880859375,9.36581802368164,3.5066077709198,-0.6631938815116882
1772593844915592000,8.520592041015625,8.644864082336426,3.4799721240997314,-0.6299743056297302
1772593844935856000,8.540856201171875,8.616133689880371,3.470993995666504,-0.5784989595413208
1772593844956119000,8.561119140625,8.569446563720703,3.4700961112976074,-0.5638344883918762
1772593844976383000,8.581383056640625,8.513182640075684,3.4623148441314697,-0.5386953949928284
1772593844996647000,8.60164697265625,8.46170711517334,3.448249101638794,-0.5147533416748047
1772593845016910000,8.62191015625,8.432976722717285,3.4431612491607666,-0.4602852761745453
1772593845037174000,8.642174072265625,8.423699378967285,3.4620156288146973,-0.41958385705947876
1772593845057438000,8.66243798828125,8.371026992797852,3.4874539375305176,-0.3932476341724396
1772593845077701000,8.682701171875,8.292317390441895,3.5200750827789307,-0.37828385829925537
1772593845097965000,8.702965087890625,8.277054786682129,3.5592801570892334,-0.3528454899787903
