time,seconds_elapsed,z,y,x
1772389552020479700,0.240479736328125,0.047182999551296234,0.01843399927020073,-0.07012400031089783
1772389552040537300,0.260537353515625,0.04094700142741203,-0.044450998306274414,-0.049699001014232635
1772389552060594700,0.2805947265625,-0.07764200121164322,-0.12436100095510483,-0.1661590039730072
1772389552080652000,0.300652099609375,-0.18691299855709076,-0.12588800489902496,-0.28252699971199036
1772389552100709600,0.320709716796875,-0.007930999621748924,-0.04151099920272827,-0.1492220014333725
1772389552120767200,0.340767333984375,0.106454998254776,0.02999100089073181,-0.004976999945938587
1772389552140824600,0.360824462890625,-0.03883599862456322,-0.07360599935054779,0.042417000979185104
1772389552160882000,0.3808818359375,-0.11586800217628479,0.00031400000443682075,0.09473399817943573
1772389552180939300,0.400939208984375,0.07770399749279022,0.07705199718475342,0.12378700077533722
1772389552200996900,0.420996826171875,0.09496399760246277,-0.026357999071478844,0.0206300001591444
1772389552221054500,0.441054443359375,0.022370999678969383,-0.02668599970638752,0.06850399821996689
1772389552241111800,0.46111181640625,0.041095998138189316,-0.019749000668525696,-0.00519599998369813
1772389552261169200,0.481169189453125,0.09367699921131134,-0.02539999969303608,-0.0953570008277893
1772389552281226500,0.5012265625,0.0005419999943114817,-0.0531190000474453,-0.021084999665617943
1772389552301284000,0.5212841796875,-0.07396599650382996,0.04790399968624115,-0.06246799975633621
1772389552321341400,0.541341552734375,-0.26637300848960876,0.036722999066114426,-0.0979750007390976
1772389552341398800,0.561398681640625,-0.4386979937553406,-0.02822200022637844,-0.07518000155687332
1772389552361456400,0.581456298828125,-0.21175800263881683,-0.005776999983936548,-0.10574399679899216
1772389552381514000,0.601513916015625,-0.01420699991285801,-0.039021000266075134,-0.19739499688148499
1772389552401571000,0.621571044921875,0.09983400255441666,-0.08481699973344803,-0.14271600544452667
1772389552421628700,0.641628662109375,0.25586700439453125,-0.06945399940013885,-0.008572000078856945
1772389552441686300,0.661686279296875,0.157492995262146,0.003636999987065792,0.04994099959731102
1772389552461743600,0.68174365234375,-0.18280400335788727,0.01970900036394596,-0.023245999589562416
1772389552481801000,0.701801025390625,-0.21504299342632294,0.042966000735759735,0.06380199640989304
1772389552501858600,0.721858642578125,0.007964000105857849,0.05517299845814705,0.10704199969768524
1772389552521916000,0.741916015625,0.11517100036144257,0.01773899979889393,0.012833000160753727
1772389552541973200,0.76197314453125,0.1809370070695877,0.014190999791026115,-0.051332999020814896
1772389552562030800,0.78203076171875,0.20155000686645508,-0.05184600129723549,-0.10586600005626678
1772389552582088200,0.802088134765625,-0.16996000707149506,-0.06867700070142746,-0.17909300327301025
1772389552602145500,0.8221455078125,-0.41916799545288086,0.010657000355422497,-0.07367400079965591
1772389552622203100,0.842203125,-0.19373400509357452,0.0773250013589859,0.06505999714136124
1772389552642260500,0.862260498046875,0.048211999237537384,0.042660001665353775,0.1000479981303215
1772389552662317800,0.88231787109375,0.11696899682283401,-0.004271000158041716,0.011238000355660915
1772389552682375400,0.90237548828125,0.10717599838972092,-0.03221699967980385,-0.011808999814093113
1772389552702432800,0.922432861328125,0.08333999663591385,-0.0329740010201931,0.07455199956893921
1772389552722490000,0.942489990234375,0.1738719940185547,0.019220000132918358,0.02124200016260147
1772389552742547700,0.962547607421875,0.14309799671173096,0.011376000009477139,-0.08460599929094315
1772389552762605000,0.98260498046875,-0.02152100019156933,0.00190100003965199,-0.033284999430179596
1772389552782662400,1.002662353515625,0.0059819999150931835,0.062320999801158905,0.10377100110054016
1772389552802720000,1.022719970703125,0.1023859977722168,0.07305700331926346,0.10221700370311737
1772389552822777600,1.042777587890625,0.10670900344848633,-0.010354000143706799,-0.014224999584257603
1772389552842834700,1.062834716796875,0.008566999807953835,-0.12108399718999863,-0.16978000104427338
1772389552862892300,1.082892333984375,0.010852999985218048,-0.040066998451948166,-0.2606239914894104
1772389552882950000,1.102949951171875,0.056683000177145004,-0.033654000610113144,-0.07249899953603745
1772389552903007200,1.12300732421875,0.030146000906825066,0.0018749999580904841,0.03799999877810478
1772389552923064600,1.143064697265625,-0.07588200271129608,-0.00009899999713525176,-0.015999000519514084
1772389552943122000,1.163121826171875,-0.04870599880814552,-0.021678000688552856,-0.026398999616503716
1772389552963179500,1.183179443359375,0.005034000147134066,0.011455999687314034,0.04047999903559685
1772389552983236900,1.20323681640625,0.06162700057029724,0.04596500098705292,0.049984000623226166
1772389553003294200,1.223294189453125,0.1333020031452179,0.007970999926328659,0.0359870009124279
1772389553023351800,1.243351806640625,0.04904099926352501,-0.04562100023031235,0.09918899834156036
1772389553043409200,1.2634091796875,0.06243300065398216,-0.009297999553382397,0.1449510008096695
1772389553063466500,1.283466552734375,0.0843459963798523,0.014960999600589275,0.025560999289155006
1772389553083524000,1.303524169921875,-0.2621220052242279,-0.01283000037074089,-0.021150000393390656
1772389553103581200,1.323581298828125,-0.4720979928970337,0.03933500126004219,0.09347900003194809
1772389553123638800,1.343638671875,-0.061677999794483185,0.04506799951195717,0.06918299943208694
1772389553143696400,1.3636962890625,0.24425700306892395,0.044054001569747925,-0.17425300180912018
1772389553163753500,1.38375341796875,0.08020500093698502,-0.026355000212788582,-0.15860199928283691
1772389553183811000,1.40381103515625,-0.04143499955534935,0.0461140014231205,-0.017281999811530113
1772389553203868700,1.42386865234375,0.25245100259780884,0.03689099848270416,-0.013825000263750553
1772389553223926000,1.443926025390625,0.22276100516319275,-0.04168599843978882,-0.15345999598503113
1772389553243983400,1.4639833984375,-0.15059000253677368,-0.04294800013303757,-0.025167999789118767
1772389553264040700,1.484040771484375,-0.16847200691699982,0.03683999925851822,0.17186500132083893
1772389553284098300,1.504098388671875,0.06762100011110306,0.09667199850082397,0.14709199965000153
1772389553304155400,1.5241552734375,0.13089700043201447,0.026937000453472137,-0.00712599977850914
1772389553324213000,1.544212890625,-0.002481000032275915,-0.0008490000036545098,0.02309899963438511
1772389553344270600,1.5642705078125,0.05001400038599968,-0.0318790003657341,0.12567900121212006
1772389553364327700,1.58432763671875,0.10481099784374237,-0.009503999724984169,0.07414299994707108
1772389553384385300,1.60438525390625,-0.023350000381469727,-0.014003000222146511,-0.019084999337792397
1772389553404442600,1.624442626953125,-0.08587999641895294,-0.026403000578284264,-0.05046800151467323
1772389553424500000,1.6445,-0.0719040036201477,-0.01872199960052967,-0.09397400170564651
1772389553444557600,1.6645576171875,-0.12872299551963806,-0.003777999896556139,-0.08637899905443192
1772389553464615000,1.684614990234375,-0.17417800426483154,0.029776999726891518,-0.011502999812364578
1772389553484672300,1.70467236328125,-0.07214300334453583,0.02782200090587139,0.00039599998854100704
1772389553504729600,1.7247294921875,0.14148500561714172,0.015856999903917313,-0.1052820011973381
1772389553524787000,1.744786865234375,0.23238800466060638,-0.012113000266253948,-0.10102500021457672
1772389553544844300,1.76484423828125,0.18190999329090118,-0.00009000000136438757,0.05677900090813637
1772389553564902000,1.78490185546875,0.06472799926996231,0.0023270000237971544,0.09102299809455872
1772389553584959200,1.804959228515625,0.007782000117003918,-0.017336999997496605,0.08081799745559692
1772389553605016600,1.8250166015625,0.01422599982470274,-0.004269999917596579,0.034255001693964005
1772389553625074000,1.845073974609375,0.030579999089241028,-0.0666159987449646,0.02340400032699108
1772389553645131300,1.86513134765625,0.04366400092840195,-0.04049300029873848,-0.027675999328494072
1772389553665188600,1.885188720703125,-0.07866799831390381,0.033204998821020126,0.06665799766778946
1772389553685246200,1.90524609375,-0.234934002161026,0.0473640002310276,0.08932600170373917
1772389553705303600,1.925303466796875,-0.20314699411392212,0.021090999245643616,-0.060538001358509064
1772389553725361000,1.94536083984375,-0.14971700310707092,-0.006326000206172466,-0.07563000172376633
1772389553745418200,1.965418212890625,0.04182500019669533,0.021338000893592834,-0.04450400173664093
1772389553765475600,1.9854755859375,0.17905999720096588,-0.021328000351786613,-0.06680300086736679
1772389553785533000,2.005532958984375,0.13684800267219543,-0.04506300017237663,-0.11424300074577332
1772389553805590500,2.025590576171875,0.0022780001163482666,-0.008050000295042992,-0.04979399964213371
1772389553825647900,2.04564794921875,-0.09737599641084671,0.0223580002784729,0.07936400175094604
1772389553845705200,2.065705322265625,-0.033900998532772064,0.021886000409722328,0.08029100298881531
1772389553865762600,2.085762451171875,-0.01592100039124489,0.0407090000808239,-0.042966000735759735
1772389553885819600,2.105819580078125,0.021662000566720963,0.01736699976027012,-0.05517299845814705
1772389553905877200,2.125877197265625,0.029330000281333923,-0.03250600025057793,0.03986100107431412
1772389553925934600,2.1459345703125,-0.014934999868273735,-0.022004999220371246,0.11028899997472763
1772389553945992000,2.165991943359375,0.10645099729299545,0.012795999646186829,0.049830999225378036
1772389553966049300,2.18604931640625,0.05316099897027016,-0.025761999189853668,-0.07693500071763992
1772389553986106600,2.206106689453125,-0.16307100653648376,-0.04780900105834007,-0.026348000392317772
1772389554006164000,2.2261640625,-0.14005599915981293,0.005750999785959721,0.016520999372005463
1772389554026221600,2.2462216796875,0.012753999792039394,0.022200999781489372,-0.11478199809789658
1772389554046279000,2.26627880859375,-0.11779599636793137,-0.0414390005171299,-0.0766260027885437
1772389554066336000,2.2863359375,-0.07903700321912766,-0.008351000025868416,0.02269900031387806
1772389554086393600,2.3063935546875,0.1647700071334839,-0.009080000221729279,-0.10023999959230423
1772389554106450700,2.32645068359375,0.22541600465774536,-0.02406499907374382,-0.06259199976921082
1772389554126508300,2.34650830078125,0.14193199574947357,-0.024852000176906586,0.05472499877214432
1772389554146565600,2.366565673828125,-0.03365299850702286,-0.003080999944359064,0.030980000272393227
1772389554166623000,2.386623046875,-0.18612299859523773,-0.01206399966031313,0.12238399684429169
1772389554186680300,2.406680419921875,-0.16409799456596375,0.024746999144554138,0.0803069993853569
1772389554206737700,2.426737548828125,0.023920999839901924,-0.00660100020468235,-0.0445530004799366
1772389554226795000,2.446794921875,0.0631370022892952,-0.02048099972307682,0.005956000182777643
1772389554246852400,2.466852294921875,0.11530900001525879,0.04121499881148338,0.0143649997189641
1772389554266909700,2.48690966796875,0.07144699990749359,0.04017199948430061,-0.07650700211524963
1772389554286967000,2.506967041015625,0.013158000074326992,-0.031060999259352684,-0.032405998557806015
1772389554307024400,2.5270244140625,0.06012599915266037,-0.012849000282585621,-0.017923999577760696
1772389554327081700,2.547081787109375,0.02170100063085556,0.01611899957060814,-0.027938999235630035
1772389554347139000,2.56713916015625,-0.09943900257349014,0.03769500181078911,0.013647999614477158
1772389554367196200,2.587196044921875,-0.03235099837183952,-0.005843000020831823,-0.06748100370168686
1772389554387253800,2.607253662109375,-0.11388000100851059,-0.03907399997115135,-0.07078500092029572
1772389554407311000,2.62731103515625,-0.1847040057182312,-0.006459999829530716,0.035371001809835434
1772389554427368400,2.647368408203125,-0.05416300147771835,0.026830999180674553,0.03549699857831001
1772389554447425800,2.66742578125,0.06626900285482407,0.025465000420808792,0.09559699892997742
1772389554467483100,2.687483154296875,0.12341500073671341,0.03237200155854225,0.10527800023555756
1772389554487540200,2.707540283203125,0.19633199274539948,0.05629799887537956,0.01862199977040291
1772389554507597800,2.727597900390625,0.05946499854326248,-0.07416100054979324,-0.061101000756025314
1772389554527655200,2.7476552734375,-0.0556269995868206,-0.07052800059318542,-0.08168099820613861
1772389554547712300,2.767712158203125,-0.0269009992480278,0.017976000905036926,-0.1037449985742569
1772389554567769900,2.787769775390625,-0.05592099949717522,0.02398099936544895,0.005003000143915415
1772389554587827200,2.8078271484375,-0.07353699952363968,0.006384000182151794,0.06960300356149673
1772389554607884300,2.82788427734375,-0.03242899850010872,0.0011080000549554825,0.04208200052380562
1772389554627942000,2.84794189453125,-0.02994300052523613,0.0048859999515116215,0.06246500089764595
1772389554647999200,2.867999267578125,0.04164399951696396,0.005508999805897474,0.036371998488903046
1772389554668056300,2.888056396484375,0.0845159962773323,-0.0011919999960809946,-0.018900999799370766
1772389554688114000,2.908114013671875,0.018012000247836113,0.043046001344919205,-0.03192099928855896
1772389554708171300,2.928171142578125,-0.15998899936676025,0.03043700009584427,0.08326199650764465
1772389554728228400,2.948228271484375,-0.1183909997344017,0.017148999497294426,0.08580999821424484
1772389554748285700,2.96828564453125,0.1852860003709793,-0.03108000010251999,-0.0849509984254837
1772389554768343000,2.988343017578125,0.28022900223731995,-0.07446400076150894,-0.14636099338531494
1772389554788400400,3.008400390625,0.026582999154925346,-0.028371000662446022,-0.0418890006840229
1772389554808457500,3.02845751953125,-0.1683329939842224,0.03090200014412403,0.07768800109624863
1772389554828515000,3.04851513671875,-0.17306600511074066,0.016721000894904137,0.07175000011920929
1772389554848572200,3.068572265625,-0.05925299972295761,-0.013821999542415142,-0.00419900007545948
1772389554868629500,3.08862939453125,0.0629969984292984,-0.023858999833464622,-0.037758998572826385
1772389554888686800,3.108686767578125,0.03199699893593788,0.00011200000153621659,0.030592000111937523
1772389554908744000,3.128743896484375,-0.02080100029706955,0.026489999145269394,0.02287299931049347
1772389554928801500,3.148801513671875,-0.016641000285744667,0.01559200044721365,0.012698999606072903
1772389554948858600,3.168858642578125,-0.020512999966740608,-0.002725000027567148,0.02375900000333786
1772389554968916000,3.188916015625,-0.005210000090301037,0.01141900010406971,0.022206999361515045
1772389554988973600,3.2089736328125,0.10463099926710129,0.005135000217705965,-0.06783399730920792
1772389555009030700,3.22903076171875,0.1589049994945526,-0.04949000105261803,-0.054267000406980515
1772389555029088000,3.249087890625,0.035124000161886215,-0.035592999309301376,-0.03781300038099289
1772389555049145300,3.269145263671875,-0.01590000092983246,0.018725000321865082,0.020949000492691994
1772389555069202400,3.289202392578125,-0.08792000263929367,0.036580998450517654,0.08795899897813797
1772389555089260000,3.309260009765625,-0.0719359964132309,0.01006499957293272,-0.004031999967992306
1772389555109317000,3.329317138671875,-0.055948998779058456,-0.009548000060021877,-0.008825999684631824
1772389555129374500,3.34937451171875,-0.08315899968147278,-0.005237999837845564,0.07853899896144867
1772389555149431800,3.369431884765625,0.051072001457214355,-0.01779000088572502,0.013230999931693077
1772389555169489000,3.389489013671875,0.04085800051689148,-0.019832000136375427,-0.04301400110125542
1772389555189546200,3.409546142578125,-0.07291299849748611,0.03213400021195412,-0.013611000031232834
1772389555209603600,3.429603515625,-0.13112999498844147,0.042507000267505646,-0.026088999584317207
1772389555229661000,3.449660888671875,-0.00330400001257658,-0.03639400005340576,-0.07047100365161896
1772389555249718000,3.469718017578125,0.08295600116252899,-0.017914999276399612,-0.04677699878811836
1772389555269775400,3.489775390625,0.07996399700641632,-0.01273099984973669,0.08097799867391586
1772389555289832700,3.509832763671875,0.10477200150489807,-0.019783999770879745,0.08958200365304947
1772389555309889800,3.529889892578125,0.06061699986457825,0.0017709999810904264,0.07166600227355957
1772389555329947400,3.549947509765625,-0.014705000445246696,-0.013782000169157982,0.002131999935954809
1772389555350004500,3.57000439453125,-0.03896399959921837,-0.026226000860333443,-0.09429299831390381
1772389555370061800,3.590061767578125,-0.032770998775959015,-0.042580001056194305,-0.023435000330209732
1772389555390119000,3.610118896484375,-0.02061700075864792,0.027535000815987587,0.03645100072026253
1772389555410176300,3.63017626953125,-0.11969300359487534,0.014027999714016914,0.07956100255250931
1772389555430233600,3.650233642578125,-0.16295500099658966,0.0632219985127449,0.07324899733066559
1772389555450290700,3.670290771484375,-0.15516400337219238,0.05457799881696701,-0.05820000171661377
1772389555470347800,3.69034765625,-0.1777310073375702,0.03566199913620949,-0.11376000195741653
1772389555490405000,3.710405029296875,0.0242139995098114,-0.0018700000364333391,-0.05660799890756607
1772389555510462500,3.73046240234375,0.14977100491523743,0.01770400069653988,0.00431300001218915
1772389555530519800,3.750519775390625,0.13101699948310852,0.014162999577820301,0.0170499999076128
1772389555550577200,3.7705771484375,0.0688140019774437,-0.023068999871611595,-0.003959000110626221
1772389555570634200,3.79063427734375,0.07985100150108337,-0.037654999643564224,0.006432000081986189
1772389555590691600,3.810691650390625,0.12308000028133392,-0.032524000853300095,0.045944999903440475
1772389555610749000,3.8307490234375,0.09446399658918381,0.014779999852180481,0.04795600101351738
1772389555630806000,3.850805908203125,-0.006827999837696552,0.005423000082373619,0.030364999547600746
1772389555650863400,3.87086328125,-0.02626200020313263,-0.02046000026166439,0.024291999638080597
1772389555670920400,3.89092041015625,-0.07300899922847748,-0.045166999101638794,0.02183300070464611
1772389555690977800,3.910977783203125,-0.14800700545310974,0.017464999109506607,0.04946599900722504
1772389555711035100,3.93103515625,0.03439300134778023,0.042771998792886734,0.028372999280691147
1772389555731092200,3.95109228515625,0.12351500242948532,0.028617000207304955,-0.04850099980831146
1772389555751149800,3.97114990234375,0.010812000371515751,0.05169399827718735,-0.07479999959468842
1772389555771207000,3.99120703125,-0.01054999977350235,-0.002644000109285116,-0.06143999844789505
1772389555791264300,4.01126416015625,-0.018039999529719353,-0.0461140014231205,-0.06515199691057205
1772389555811321300,4.0313212890625,-0.0008319999906234443,-0.0008919999818317592,-0.011322000063955784
1772389555831378700,4.051378662109375,0.039333999156951904,0.0512860007584095,0.0005419999943114817
1772389555851436000,4.07143603515625,0.05866700038313866,0.0010290000354871154,-0.033966001123189926
1772389555871493000,4.0914931640625,-0.05706600099802017,-0.08397600054740906,0.03602699935436249
1772389555891550500,4.111550537109375,-0.02805200032889843,-0.05358099937438965,0.08962099999189377
1772389555911607800,4.13160791015625,0.021556999534368515,-0.03486400097608566,0.0548969991505146
1772389555931665000,4.151664794921875,-0.04035300016403198,0.00810800027102232,0.11831700056791306
1772389555951722200,4.17172216796875,0.06371700018644333,0.025685999542474747,0.16905400156974792
1772389555971779300,4.191779296875,0.008573000319302082,0.049348000437021255,0.12004300206899643
1772389555991836700,4.211836669921875,-0.05234000086784363,0.03547799959778786,0.016033999621868134
1772389556011893800,4.231893798828125,-0.01307199988514185,0.028382999822497368,-0.07517199963331223
1772389556031951000,4.251951171875,0.003140999935567379,0.019505999982357025,-0.1273369938135147
1772389556052008200,4.27200830078125,0.09051299840211868,-0.022794000804424286,-0.08106999844312668
1772389556072065500,4.2920654296875,0.1180109977722168,0.01616399921476841,-0.03765600174665451
1772389556092122600,4.31212255859375,0.06000800058245659,-0.011868000030517578,-0.09732399880886078
1772389556112180000,4.332179931640625,-0.07279299944639206,-0.02549399994313717,-0.028258999809622765
1772389556132237300,4.3522373046875,-0.03343399986624718,0.026002999395132065,-0.017007999122142792
1772389556152294400,4.37229443359375,0.015652000904083252,0.007203000131994486,-0.02320599928498268
1772389556172351700,4.392351806640625,0.012521999888122082,-0.027036000043153763,0.035034000873565674
1772389556192408800,4.412408935546875,0.08681699633598328,-0.009630000218749046,0.10482700169086456
1772389556212466200,4.432466064453125,0.12705400586128235,0.009096000343561172,0.07026199996471405
1772389556232523300,4.452523193359375,-0.05755599960684776,-0.017521999776363373,0.09700900316238403
1772389556252580600,4.47258056640625,-0.2724449932575226,0.02838199958205223,0.12720699608325958
1772389556272638000,4.492637939453125,-0.1259559988975525,0.014705000445246696,0.08096600323915482
1772389556292695000,4.512695068359375,-0.04076400026679039,0.019764000549912453,-0.08322600275278091
1772389556312752000,4.532752197265625,-0.10221099853515625,-0.02658800035715103,-0.19058099389076233
1772389556332809200,4.552809326171875,-0.0657690018415451,-0.009270000271499157,-0.05326500162482262
1772389556352866600,4.572866455078125,0.0697840005159378,0.043783001601696014,0.07418700307607651
1772389556372923600,4.592923583984375,0.12062700092792511,0.03342600166797638,0.07694999873638153
1772389556392981000,4.61298095703125,0.12370199710130692,0.030740000307559967,0.017559999600052834
1772389556413038000,4.6330380859375,0.07576099783182144,0.018192000687122345,-0.024351000785827637
1772389556433095400,4.653095458984375,-0.012190000154078007,0.02095399983227253,0.03171800076961517
1772389556453152500,4.673152587890625,0.005446999799460173,0.03196299821138382,0.052574001252651215
1772389556473209900,4.6932099609375,0.033156998455524445,0.023169999942183495,-0.005940000060945749
1772389556493267000,4.713266845703125,-0.01907300017774105,-0.028663000091910362,0.0032470000442117453
1772389556513324300,4.73332421875,0.024739999324083328,-0.055730000138282776,-0.0878010019659996
1772389556533381400,4.75338134765625,0.034991998225450516,-0.0429840013384819,-0.07424099743366241
1772389556553438700,4.773438720703125,-0.000805000017862767,-0.051187001168727875,0.028605999425053596
1772389556573495600,4.79349560546875,0.022554999217391014,-0.012148999609053135,0.00048499999684281647
1772389556593553000,4.813552978515625,-0.09315499663352966,0.015080000273883343,0.08998800069093704
1772389556613610200,4.8336103515625,-0.08412399888038635,0.023262999951839447,0.123989999294281
1772389556633667300,4.853667236328125,0.03590000048279762,-0.0021879998967051506,-0.02160700038075447
1772389556653724400,4.873724365234375,0.05751999840140343,-0.041749998927116394,-0.07648500055074692
1772389556673781800,4.89378173828125,-0.022783000022172928,-0.007000000216066837,-0.009987999685108662
1772389556693838800,4.9138388671875,0.027372000738978386,0.02319899946451187,-0.005590000189840794
1772389556713896000,4.93389599609375,0.06429799646139145,-0.01583999954164028,-0.0660720020532608
1772389556733953300,4.953953369140625,0.007437999825924635,-0.03747199848294258,-0.016057999804615974
1772389556754010400,4.97401025390625,0.013949999585747719,0.004422000143676996,0.015953000634908676
1772389556774067700,4.994067626953125,0.03195999935269356,0.03793799877166748,-0.01043699961155653
1772389556794124800,5.014124755859375,0.0007680000271648169,-0.002449000021442771,-0.0027489999774843454
1772389556814182000,5.034181884765625,-0.04338499903678894,0.006039999891072512,0.026599999517202377
1772389556834239000,5.054239013671875,-0.04270799830555916,0.014431999996304512,0.007679999805986881
1772389556854296300,5.07429638671875,0.0042329998686909676,-0.02685300074517727,-0.028255000710487366
1772389556874353400,5.094353515625,0.08018600195646286,-0.04068100079894066,-0.009003999643027782
1772389556894410800,5.11441064453125,0.12174899876117706,0.0002530000056140125,-0.000003000000106112566
1772389556914467800,5.1344677734375,-0.03460000082850456,-0.03259599953889847,0.007996000349521637
1772389556934525000,5.15452490234375,-0.19487999379634857,0.016321999952197075,-0.012802000157535076
1772389556954582000,5.17458203125,-0.17510400712490082,-0.010142000392079353,0.026558000594377518
1772389556974639400,5.194639404296875,-0.042482998222112656,0.00548599986359477,0.022846000269055367
1772389556994696400,5.214696533203125,0.014012999832630157,0.04438899829983711,0.022276999428868294
1772389557014753800,5.23475390625,0.05521000176668167,0.03151100128889084,-0.07817800343036652
1772389557034810600,5.254810546875,0.03856800124049187,0.002007999923080206,-0.1505420058965683
1772389557054868000,5.274867919921875,-0.04194499924778938,-0.019192999228835106,-0.03243400156497955
1772389557074925000,5.294925048828125,-0.018355999141931534,0.03104499913752079,0.07165200263261795
1772389557094982400,5.314982421875,0.03331499919295311,0.03203599900007248,-0.01947700046002865
1772389557115039500,5.33503955078125,-0.018946999683976173,-0.004769999999552965,-0.04998200014233589
1772389557135096800,5.355096923828125,-0.03835799917578697,-0.01581599935889244,0.04481400176882744
1772389557155154000,5.37515380859375,-0.01548600010573864,-0.01825300045311451,0.052650999277830124
1772389557175211000,5.3952109375,-0.07158900052309036,-0.028201999142766,0.013321000151336193
1772389557195268000,5.41526806640625,-0.034070998430252075,-0.02416200004518032,-0.01574300043284893
1772389557215325200,5.4353251953125,0.023941999301314354,0.01506900042295456,0.013805000111460686
1772389557235382500,5.455382568359375,0.021554000675678253,0.02725600078701973,0.05344400182366371
1772389557255439600,5.475439697265625,0.12604300677776337,0.018604999408125877,0.09075500071048737
1772389557275496700,5.49549658203125,0.06243399903178215,0.005284000188112259,-0.0025949999690055847
1772389557295554000,5.515553955078125,-0.07645200192928314,-0.01897200010716915,-0.08207599818706512
1772389557315611100,5.535611083984375,-0.043561000376939774,-0.013577999547123909,-0.04086099937558174
1772389557335668200,5.555668212890625,0.07395000010728836,-0.020462000742554665,-0.036687999963760376
1772389557355725300,5.575725341796875,-0.00003899999865097925,-0.016370000317692757,-0.04055099934339523
1772389557375782400,5.595782470703125,-0.08643099665641785,0.04450400173664093,0.025158999487757683
1772389557395839700,5.61583984375,-0.028344999998807907,0.02840300090610981,0.044927000999450684
1772389557415896800,5.635896728515625,0.1493230015039444,-0.05647699907422066,-0.032857999205589294
1772389557435954000,5.655953857421875,0.13705800473690033,-0.0451820008456707,-0.0974859967827797
1772389557456011300,5.67601123046875,0.04244700074195862,-0.0017450000159442425,-0.0035890000872313976
1772389557476068400,5.696068359375,-0.05644199997186661,0.01460300013422966,0.07232800126075745
1772389557496125400,5.71612548828125,-0.0867530032992363,0.00928299967199564,0.1226620003581047
1772389557516182500,5.7361826171875,-0.039002999663352966,0.015425999648869038,0.04853000119328499
1772389557536239600,5.756239501953125,-0.02400200068950653,0.008340000174939632,-0.07637500017881393
1772389557556297000,5.776296875,-0.009602000005543232,-0.02052599936723709,-0.0723000019788742
1772389557576353800,5.796353759765625,0.027518000453710556,-0.014020999893546104,-0.0026400000788271427
1772389557596411100,5.8164111328125,0.05961399897933006,-0.00001700000029813964,0.00028700000257231295
1772389557616468200,5.83646826171875,0.046091001480817795,0.02158600091934204,-0.011769999749958515
1772389557636525300,5.856525390625,0.05047300085425377,0.06126900017261505,0.004184000194072723
1772389557656582700,5.876582763671875,-0.02122100070118904,0.02421499975025654,-0.010251999832689762
1772389557676639700,5.8966396484375,-0.09697599709033966,-0.019027000293135643,-0.01380200032144785
1772389557696696800,5.91669677734375,0.06161800026893616,0.007176999934017658,-0.030240999534726143
1772389557716754000,5.93675390625,0.08769399672746658,-0.0070580001920461655,-0.02979299984872341
1772389557736811000,5.95681103515625,-0.005843999795615673,-0.04244599863886833,-0.0198340006172657
1772389557756868000,5.9768681640625,-0.047074999660253525,-0.0035570000763982534,0.026531999930739403
1772389557776925200,5.99692529296875,0.007938999682664871,-0.0004450000124052167,0.009224999696016312
1772389557796982300,6.016982177734375,-0.012848000042140484,-0.009956000372767448,-0.015819000080227852
1772389557817039600,6.03703955078125,-0.010277999565005302,0.0016339999856427312,0.04894400015473366
1772389557837096700,6.0570966796875,0.05177700147032738,0.012507000006735325,0.06635499745607376
1772389557857153800,6.07715380859375,-0.002578000072389841,0.01960499957203865,0.05308400094509125
1772389557877211000,6.0972109375,-0.021261999383568764,-0.02991499938070774,-0.009531999938189983
1772389557897268000,6.11726806640625,0.055789001286029816,-0.045531999319791794,-0.11322499811649323
1772389557917325300,6.1373251953125,-0.012968000024557114,0.011572999879717827,-0.04098000004887581
1772389557937382400,6.15738232421875,-0.008774000220000744,0.04765800014138222,0.061615001410245895
1772389557957439500,6.177439453125,0.16738000512123108,0.005326999817043543,0.02609200030565262
1772389557977496600,6.19749658203125,0.049904000014066696,-0.018137000501155853,-0.036726001650094986
1772389557997553700,6.2175537109375,-0.25527599453926086,0.017488999292254448,-0.014179999940097332
1772389558017610800,6.23761083984375,-0.18502099812030792,0.0299919992685318,-0.033743999898433685
1772389558037668000,6.257668212890625,0.1215829998254776,0.03279300034046173,-0.002194999950006604
1772389558057725000,6.277724853515625,0.3220660090446472,-0.008165000006556511,0.05744300037622452
1772389558077782300,6.2977822265625,0.2384530007839203,-0.004131999798119068,0.030753999948501587
1772389558097839000,6.317839111328125,-0.060437001287937164,0.0006939999875612557,-0.019395999610424042
1772389558117896400,6.337896484375,-0.2299489974975586,0.044555000960826874,0.005282999947667122
1772389558137953500,6.35795361328125,-0.13995899260044098,0.01964299939572811,0.015425999648869038
1772389558158010600,6.3780107421875,0.025631999596953392,-0.041085001081228256,-0.042858000844717026
1772389558178067700,6.398067626953125,0.07250499725341797,-0.021668000146746635,-0.023087000474333763
1772389558198125000,6.418125,-0.00519500020891428,0.009864999912679195,0.07192999869585037
1772389558218182000,6.438181884765625,-0.09855599701404572,0.026291999965906143,0.03274400159716606
1772389558238239000,6.458239013671875,-0.036444999277591705,0.06583400070667267,0.0029949999880045652
1772389558258296000,6.478296142578125,0.1620440036058426,0.04866600036621094,-0.0016029999824240804
1772389558278353200,6.498353271484375,0.22403499484062195,-0.014665000140666962,-0.033282000571489334
1772389558298410200,6.51841015625,0.10642799735069275,-0.029332999140024185,-0.05542600154876709
1772389558318467300,6.53846728515625,0.03554200008511543,0.010932999663054943,-0.04994099959731102
1772389558338524400,6.5585244140625,0.08203399926424026,0.014347000047564507,0.013647000305354595
1772389558358581500,6.57858154296875,0.13202700018882751,-0.026122000068426132,0.03891700133681297
1772389558378638600,6.598638671875,-0.1047779992222786,-0.057698000222444534,0.029534000903367996
1772389558398695700,6.61869580078125,-0.23742200434207916,-0.017357999458909035,-0.02197200059890747
1772389558418752800,6.638752685546875,-0.1395380049943924,0.006912999786436558,-0.027178000658750534
1772389558438809900,6.658809814453125,0.09876900166273117,0.020729999989271164,0.01665700040757656
1772389558458867000,6.678866943359375,0.16541500389575958,-0.02341499924659729,0.057326000183820724
1772389558478924000,6.698924072265625,-0.0036669999826699495,0.006066999863833189,0.06106000021100044
1772389558498981000,6.718981201171875,-0.06453300267457962,0.008852999657392502,0.021648000925779343
1772389558519038200,6.7390380859375,-0.00202700006775558,-0.02571599930524826,-0.059480998665094376
1772389558539095300,6.75909521484375,-0.03762099891901016,0.0026259999722242355,-0.06438399851322174
1772389558559152000,6.779152099609375,-0.08769699931144714,0.002099999925121665,-0.013106999918818474
1772389558579209500,6.79920947265625,0.016241999343037605,-0.005518000107258558,-0.010486000217497349
1772389558599266600,6.8192666015625,0.10499300062656403,0.006783999968320131,0.012409999966621399
1772389558619323600,6.83932373046875,0.008794999681413174,0.019027000293135643,-0.030070999637246132
1772389558639380700,6.859380615234375,-0.024963000789284706,0.011220999993383884,-0.07365699857473373
1772389558659437800,6.879437744140625,0.018428999930620193,-0.021422000601887703,-0.0021250001154839993
1772389558679495000,6.899494873046875,0.08514299988746643,0.005262000020593405,0.08469899743795395
1772389558699552000,6.919552001953125,0.05131400004029274,0.010610000230371952,0.08295899629592896
1772389558719609000,6.939609130859375,0.034651000052690506,0.004486999940127134,-0.009631999768316746
1772389558739666200,6.959666259765625,0.06612099707126617,-0.015608999878168106,-0.06130500137805939
1772389558759723300,6.97972314453125,0.05129599943757057,-0.026086999103426933,-0.011443999595940113
1772389558779780400,6.9997802734375,-0.05096200108528137,-0.005669999867677689,0.031644001603126526
1772389558799837400,7.01983740234375,-0.12156900018453598,0.043462999165058136,-0.005884000100195408
1772389558819894500,7.03989453125,-0.05485500022768974,0.013970999978482723,-0.03350700065493584
1772389558839951400,7.059951416015625,0.14571499824523926,0.03357600048184395,-0.014805999584496021
1772389558860008700,7.0800087890625,0.17017200589179993,0.05246099829673767,-0.014244000427424908
1772389558880065800,7.100065673828125,0.027336999773979187,0.013170000165700912,-0.014595000073313713
1772389558900122600,7.12012255859375,-0.04372899979352951,-0.0142639996483922,-0.019675999879837036
1772389558920180000,7.140179931640625,0.02661599963903427,-0.021011000499129295,-0.032540999352931976
1772389558940236800,7.16023681640625,-0.001905999961309135,0.02079099975526333,0.02116600051522255
1772389558960294000,7.1802939453125,0.046473998576402664,-0.00816699955612421,-0.03666599839925766
1772389558980351000,7.20035107421875,-0.006819999776780605,-0.0481330007314682,-0.030933000147342682
1772389559000408000,7.220407958984375,-0.02465599961578846,-0.012106000445783138,0.023252999410033226
1772389559020465200,7.240465087890625,-0.06532499939203262,0.02711400017142296,0.07380200177431107
1772389559040522200,7.260522216796875,-0.12746000289916992,0.03129100054502487,0.10544200241565704
1772389559060579300,7.280579345703125,-0.04596799984574318,0.00343300006352365,0.10115300118923187
1772389559080636400,7.300636474609375,0.06642500311136246,0.0067460001446306705,0.029722999781370163
1772389559100693200,7.320693359375,0.04193999990820885,-0.0026030000299215317,-0.005020999815315008
1772389559120750600,7.34075048828125,-0.01844700053334236,-0.01888200081884861,-0.0176170002669096
1772389559140807400,7.360807373046875,-0.009157000109553337,0.017694000154733658,0.006705999840050936
1772389559160864500,7.380864501953125,-0.022525999695062637,0.00775500014424324,-0.04423400014638901
1772389559180921600,7.400921630859375,-0.10442099720239639,-0.020194999873638153,-0.07538799941539764
1772389559200978700,7.420978759765625,-0.16193699836730957,0.02224300056695938,-0.024310000240802765
1772389559221035800,7.441035888671875,0.056049998849630356,0.031394001096487045,-0.007447999902069569
1772389559241092900,7.4610927734375,0.319240003824234,-0.017284000292420387,0.04124100133776665
1772389559261150000,7.48114990234375,0.2841919958591461,-0.04102800041437149,-0.04700599983334541
1772389559281207000,7.50120703125,-0.0006459999713115394,-0.02642199955880642,-0.033604998141527176
1772389559301264000,7.521263916015625,-0.06371600180864334,0.04366200044751167,0.09551499783992767
1772389559321321000,7.541321044921875,0.03462599962949753,0.034928999841213226,0.08201199769973755
1772389559341378000,7.5613779296875,0.05890100076794624,-0.008856000378727913,-0.04158899933099747
1772389559361435100,7.58143505859375,-0.03527899831533432,-0.06068500131368637,-0.012470999732613564
1772389559381492200,7.6014921875,-0.09542299807071686,-0.006147999782115221,0.051621999591588974
1772389559401549300,7.62154931640625,-0.0819379985332489,0.019881000742316246,-0.013902000151574612
1772389559421606100,7.641606201171875,-0.0791499987244606,0.015905000269412994,-0.002320999978110194
1772389559441663500,7.66166357421875,0.10547900199890137,0.047123998403549194,0.014142000116407871
1772389559461720300,7.68172021484375,0.17798300087451935,0.02250000089406967,-0.025484999641776085
1772389559481777400,7.70177734375,-0.0016129999421536922,-0.01640000008046627,-0.033987998962402344
1772389559501834500,7.72183447265625,-0.17889000475406647,0.03327900171279907,0.028808999806642532
1772389559521891300,7.741891357421875,-0.08951199799776077,0.03222300112247467,0.030246999114751816
1772389559541948700,7.76194873046875,0.11558999866247177,-0.003019999945536256,-0.05580199882388115
1772389559562005500,7.782005615234375,0.10207200050354004,-0.03681600093841553,-0.050241000950336456
1772389559582062600,7.8020625,-0.003942000214010477,-0.008652999997138977,0.06700599938631058
1772389559602119700,7.82211962890625,-0.07995299994945526,0.01067699957638979,0.038405001163482666
1772389559622176500,7.842176513671875,-0.031161999329924583,0.018139999359846115,-0.03487500175833702
1772389559642233600,7.862233642578125,0.08786900341510773,0.006513000000268221,0.010498999617993832
1772389559662290400,7.88229052734375,0.143095001578331,-0.012388999573886395,0.08119899779558182
1772389559682347800,7.90234765625,0.0704760029911995,0.002088000066578388,0.06335899978876114
1772389559702404600,7.922404541015625,0.01958099938929081,0.005669999867677689,0.002686999971047044
1772389559722462000,7.9424619140625,0.10206499695777893,-0.014662999659776688,-0.05944899842143059
1772389559742518800,7.962518798828125,0.133651003241539,-0.01813100092113018,-0.022758999839425087
1772389559762575600,7.98257568359375,-0.07707799971103668,-0.014504999853670597,-0.01980699971318245
1772389559782633000,8.002633056640626,-0.14806200563907623,0.011594999581575394,-0.015845999121665955
1772389559802689800,8.022689697265625,-0.0912489965558052,0.047676000744104385,-0.0454769991338253
1772389559822747000,8.042746826171875,-0.02579900063574314,0.00534099992364645,-0.061181001365184784
1772389559842804000,8.062803955078126,-0.033440001308918,-0.008526000194251537,0.007054000161588192
1772389559862860800,8.08286083984375,-0.015552000142633915,-0.0012209999840706587,0.08724299818277359
1772389559882918000,8.10291796875,-0.0012410000199452043,0.010222000069916248,0.09699399769306183
1772389559902975000,8.12297509765625,0.04940599948167801,0.029776999726891518,0.0007960000075399876
1772389559923032000,8.143031982421874,0.033925000578165054,-0.01697699911892414,-0.0281629990786314
1772389559943089000,8.1630888671875,-0.09045899659395218,-0.020780999213457108,0.0022690000478178263
1772389559963146200,8.183146240234375,-0.05076700076460838,0.02177399955689907,0.03861499950289726
1772389559983203000,8.203203125,0.05298500135540962,0.02061999961733818,0.05969199910759926
1772389560003260000,8.223260009765625,0.10958799719810486,0.00929499976336956,-0.02904600091278553
1772389560023317200,8.243317138671875,0.07006999850273132,0.02823599986732006,-0.027235999703407288
1772389560043374000,8.2633740234375,0.06565599888563156,0.0033889999613165855,0.009410000406205654
1772389560063431200,8.28343115234375,0.06452500075101852,-0.02608799934387207,-0.021270999684929848
1772389560083488000,8.303488037109375,0.02281999960541725,-0.020871000364422798,-0.07701700180768967
1772389560103545000,8.323545166015625,0.015855999663472176,0.0025029999669641256,-0.009612999856472015
1772389560123602200,8.343602294921874,-0.02331399917602539,-0.001996000064536929,0.036309000104665756
1772389560143659300,8.3636591796875,0.01974800042808056,-0.020796999335289,-0.016551999375224113
1772389560163716000,8.383716064453125,0.03899800032377243,0.012161999940872192,-0.025242000818252563
1772389560183773200,8.403773193359376,-0.013601000420749187,0.009728999808430672,0.004606000147759914
1772389560203830300,8.423830322265625,-0.07728099822998047,0.03658200055360794,0.04848499968647957
1772389560223887400,8.443887451171875,-0.002623999956995249,0.018066000193357468,-0.006010999903082848
1772389560243944400,8.4639443359375,0.06109999865293503,-0.010346000082790852,-0.06800899654626846
1772389560264001300,8.484001220703124,-0.008719000034034252,0.006922000087797642,0.024792000651359558
1772389560284058400,8.504058349609375,-0.02617499977350235,0.013536999933421612,0.06543300300836563
1772389560304115200,8.524115234375,0.013458999805152416,-0.02196899987757206,-0.02205199934542179
1772389560324172500,8.544172607421874,0.02996700070798397,-0.036775000393390656,-0.09604199975728989
1772389560344229400,8.5642294921875,0.003172999946400523,-0.012620000168681145,-0.050432998687028885
1772389560364286500,8.584286376953125,0.025738999247550964,0.00750300008803606,0.05165199935436249
1772389560384343300,8.60434326171875,0.08139099925756454,-0.013195999898016453,0.0029219998978078365
1772389560404400400,8.624400390625,-0.030887000262737274,0.02384199947118759,-0.003261999925598502
1772389560424457200,8.644457275390625,-0.13190899789333344,-0.0001250000059371814,0.0589900016784668
1772389560444514300,8.664514404296876,-0.047926999628543854,0.021498000249266624,0.07919199764728546
1772389560464571100,8.684571044921874,0.08085700124502182,0.018797999247908592,-0.00944599974900484
1772389560484628200,8.704628173828125,0.030285999178886414,-0.0081599997356534,-0.061156000941991806
1772389560504685300,8.724685302734375,-0.0869700014591217,-0.0025279999244958162,-0.06252499669790268
1772389560524742100,8.7447421875,-0.14637599885463715,-0.0036230001132935286,0.019579000771045685
1772389560544799200,8.76479931640625,0.007697999943047762,-0.009297999553382397,0.03806300088763237
1772389560564856000,8.78485595703125,0.11495800316333771,0.0005610000225715339,-0.02074900083243847
1772389560584913200,8.8049130859375,0.05756700038909912,-0.020349999889731407,-0.050999000668525696
1772389560604970200,8.82497021484375,0.0364530012011528,-0.014680000022053719,-0.0623989999294281
1772389560625027000,8.845027099609375,0.00036299999919719994,-0.017343999817967415,-0.003519000019878149
1772389560645084200,8.865084228515625,0.0018899999558925629,0.012524000369012356,0.06598400324583054
1772389560665141200,8.885141357421874,0.05191199854016304,0.04841899871826172,0.056786999106407166
1772389560685198000,8.905197998046875,0.027929000556468964,0.03313500061631203,-0.04656999930739403
1772389560705255200,8.925255126953125,-0.0024560000747442245,-0.04229100048542023,-0.08685600012540817
1772389560725312000,8.94531201171875,0.003633999964222312,-0.03943299874663353,-0.037484001368284225
1772389560745369000,8.965369140625,0.06210700049996376,0.019652999937534332,0.027612000703811646
1772389560765426200,8.98542626953125,0.030486000701785088,0.02932099997997284,0.04688899964094162
1772389560785483000,9.00548291015625,0.013189000077545643,0.019456999376416206,0.018310999497771263
1772389560805540000,9.0255400390625,-0.0006479999865405262,0.004364999942481518,-0.02135000005364418
1772389560825597000,9.045596923828125,0.021880000829696655,-0.03650699928402901,-0.038679998368024826
1772389560845654000,9.065654052734375,0.00470399996265769,-0.02920600026845932,-0.0037440001033246517
1772389560865711000,9.085711181640624,-0.005836000200361013,0.01823499985039234,0.006603999994695187
1772389560885768000,9.105767822265625,-0.09906800091266632,-0.007811000104993582,0.0012829999905079603
1772389560905824800,9.12582470703125,-0.10245499759912491,0.0009500000160187483,0.005026000086218119
1772389560925881900,9.1458818359375,0.018035000190138817,0.006360999774187803,-0.08637800067663193
1772389560945939000,9.16593896484375,0.09522800147533417,-0.01411100011318922,-0.009101999923586845
1772389560965995800,9.185995849609375,0.010582000017166138,-0.008888999931514263,0.007916999980807304
1772389560986052900,9.206052978515626,-0.03953300043940544,-0.028711000457406044,-0.05926499888300896
1772389561006109700,9.226109619140624,-0.038825999945402145,0.03302999958395958,0.01258699968457222
1772389561026166800,9.246166748046875,0.02973799966275692,0.03202399984002113,0.04606899991631508
1772389561046224000,9.266223876953125,0.060589998960494995,0.0064199999906122684,0.016054999083280563
1772389561066280700,9.28628076171875,0.011672000400722027,-0.029263999313116074,-0.029555000364780426
1772389561086337800,9.306337890625,-0.11306200176477432,-0.033011000603437424,-0.02364400029182434
1772389561106394600,9.32639453125,-0.05604900047183037,-0.011208999902009964,0.05788400024175644
1772389561126451700,9.34645166015625,0.20076000690460205,0.014232000336050987,-0.005692000035196543
1772389561146508500,9.366508544921874,0.12940800189971924,0.019385000690817833,-0.05575300008058548
1772389561166566000,9.38656591796875,-0.07407300174236298,0.017108000814914703,-0.00060299999313429
1772389561186622700,9.406622802734375,-0.05925799906253815,0.00008600000001024455,0.024317000061273575
1772389561206679800,9.4266796875,0.044592998921871185,0.023267999291419983,0.007453999947756529
1772389561226736600,9.446736572265625,0.03887400031089783,0.013013999909162521,0.012362999841570854
1772389561246793500,9.46679345703125,-0.07370000332593918,-0.016787000000476837,-0.06690900027751923
1772389561266850600,9.4868505859375,-0.08376000076532364,-0.0014299999456852674,-0.0783270001411438
1772389561286907600,9.50690771484375,-0.07500799745321274,-0.043542999774217606,-0.024261999875307083
1772389561306964500,9.526964599609375,-0.02320599928498268,-0.014034999534487724,-0.012209000065922737
1772389561327021300,9.547021240234375,0.0766339972615242,0.031170999631285667,0.013431999832391739
1772389561347078400,9.567078369140624,0.054106999188661575,0.009736999869346619,0.046744998544454575
1772389561367135200,9.58713525390625,-0.03351299837231636,-0.02100900001823902,0.06059600040316582
1772389561387192300,9.6071923828125,0.06678900122642517,0.013592000119388103,0.04287699982523918
1772389561407249400,9.62724951171875,0.05903099849820137,0.006874000187963247,-0.009697999805212021
1772389561427306200,9.64730615234375,-0.08477400243282318,-0.03290000185370445,-0.0037579999770969152
1772389561447363300,9.66736328125,-0.04301999881863594,-0.012719999998807907,0.013793000020086765
1772389561467420400,9.68742041015625,0.03278300166130066,0.0034229999873787165,-0.0945649966597557
1772389561487477200,9.707477294921874,0.011026999913156033,0.0043390002101659775,-0.03325200080871582
1772389561507534000,9.7275341796875,0.0720210000872612,-0.011727999895811081,0.048597998917102814
1772389561527591200,9.747591064453125,-0.013581999577581882,0.008217000402510166,-0.02672100067138672
1772389561547648300,9.767648193359374,-0.10446500033140182,0.0393729992210865,-0.02857699990272522
1772389561567705000,9.787705078125,0.026026999577879906,0.019497999921441078,0.007538000121712685
1772389561587762200,9.80776220703125,0.1312209963798523,0.009998999536037445,0.044429998844861984
1772389561607819000,9.827819091796876,0.1225769966840744,0,0.0011439999798312783
1772389561627876000,9.8478759765625,-0.024337999522686005,-0.0472010001540184,-0.08148399740457535
1772389561647933000,9.867932861328125,-0.18827000260353088,0.011838000267744064,0.010812000371515751
1772389561667990000,9.887989990234376,-0.041815999895334244,-0.004127999767661095,0.02464899979531765
1772389561688047000,9.908047119140624,0.08574700355529785,-0.022501999512314796,0.025319000706076622
1772389561708104000,9.92810400390625,0.0669969990849495,0.04119599983096123,0.05305499956011772
1772389561728161000,9.9481611328125,0.016798000782728195,0.0385579988360405,0.004044000059366226
1772389561748217900,9.9682177734375,-0.09936100244522095,-0.00355300004594028,-0.0351639986038208
1772389561768274700,9.988274658203125,-0.01068899966776371,-0.025242000818252563,0.019867999479174614
1772389561788331800,10.008331787109375,0.08104799687862396,0.004604999907314777,-0.03450499847531319
1772389561808388900,10.028388916015626,0.042438000440597534,-0.013914999552071095,-0.06920400261878967
1772389561828445400,10.048445556640624,-0.042847998440265656,0.00406799977645278,-0.020963000133633614
1772389561848502800,10.068502685546875,-0.045478999614715576,0.00005400000009103678,0.028829000890254974
1772389561868559600,10.0885595703125,-0.015583000145852566,-0.01195599976927042,-0.005735999904572964
1772389561888616400,10.108616455078124,0.054733000695705414,-0.0015640000347048044,-0.04858899861574173
1772389561908673500,10.128673583984375,0.07418599724769592,0.004346999805420637,0.045928001403808594
1772389561928730400,10.14873046875,0.048149000853300095,0.0034779999405145645,0.07434199750423431
1772389561948787500,10.168787353515626,-0.05187999829649925,0.016381999477744102,0.048273999243974686
1772389561968844300,10.18884423828125,-0.02630399912595749,0.0011060000397264957,0.048218999058008194
1772389561988901000,10.208901123046875,-0.036242999136447906,-0.008713999763131142,-0.023024000227451324
1772389562008958200,10.228958251953125,-0.011393999680876732,-0.029371000826358795,-0.07521899789571762
1772389562029015300,10.249015380859374,0.07488399744033813,0.002901999978348613,0.010223999619483948
1772389562049072000,10.269072021484375,0.029506999999284744,0.014321999624371529,-0.007019999902695417
1772389562069129200,10.289129150390625,-0.14919400215148926,-0.07734200358390808,-0.14561599493026733
1772389562089186000,10.30918603515625,0.1126440018415451,0.08052600175142288,0.06030600145459175
1772389562109243100,10.3292431640625,-0.08588399738073349,0.10442099720239639,0.16824500262737274
1772389562129300000,10.349300048828125,-0.2239069938659668,0.021935999393463135,0.11539600044488907
1772389562149357000,10.369357177734376,0.03927300125360489,-0.062449999153614044,-0.07968199998140335
1772389562169414000,10.389413818359374,0.2722190022468567,0.005239000078290701,-0.1461459994316101
