time,seconds_elapsed,z,y,x
1772389552020479700,0.240479736328125,0.0882750004529953,-0.011962499469518661,-0.08648750185966492
1772389552040537300,0.260537353515625,0.09143749624490738,-0.002337499987334013,-0.09611249715089798
1772389552060594700,0.2805947265625,0.08717499673366547,-0.0034374999813735485,-0.08758749812841415
1772389552080652000,0.300652099609375,0.1073874980211258,-0.025849999859929085,-0.1354375034570694
1772389552100709600,0.320709716796875,0.13942499458789825,-0.06201250106096268,-0.17599999904632568
1772389552120767200,0.340767333984375,0.13612499833106995,-0.05142499879002571,-0.13227500021457672
1772389552140824600,0.360824462890625,0.11591249704360962,-0.031075000762939453,-0.08648750185966492
1772389552160882000,0.3808818359375,0.12553749978542328,-0.059950001537799835,-0.11096250265836716
1772389552180939300,0.400939208984375,0.08923749625682831,-0.05664999783039093,-0.12168750166893005
1772389552200996900,0.420996826171875,0.0658624991774559,-0.00976249948143959,-0.07150000333786011
1772389552221054500,0.441054443359375,0.053075000643730164,-0.04179999977350235,-0.040699999779462814
1772389552241111800,0.46111181640625,0.021175000816583633,-0.05348749831318855,-0.033275000751018524
1772389552261169200,0.481169189453125,0.01691249944269657,-0.03959999978542328,0.025437500327825546
1772389552281226500,0.5012265625,0.021175000816583633,-0.031075000762939453,0.08401250094175339
1772389552301284000,0.5212841796875,0.018975000828504562,-0.007699999958276749,0.10958749800920486
1772389552321341400,0.541341552734375,0.025437500327825546,0.043449997901916504,0.15207499265670776
1772389552341398800,0.561398681640625,0.030662499368190765,0.03918749839067459,0.09776250272989273
1772389552361456400,0.581456298828125,0.017875000834465027,0.0147124994546175,-0.004399999976158142
1772389552381514000,0.601513916015625,0.021175000816583633,0.006187499966472387,-0.016224998980760574
1772389552401571000,0.621571044921875,0.03396249935030937,-0.03753750026226044,-0.01718750037252903
1772389552421628700,0.641628662109375,0.032862499356269836,-0.06421250104904175,0.02213750034570694
1772389552441686300,0.661686279296875,0.02213750034570694,-0.05884999781847,0.10628750175237656
1772389552461743600,0.68174365234375,0.01691249944269657,-0.048124998807907104,0.13928750157356262
1772389552481801000,0.701801025390625,0.01691249944269657,-0.08332499861717224,0.08607500046491623
1772389552501858600,0.721858642578125,-0.005499999970197678,-0.10779999941587448,0.04028749838471413
1772389552521916000,0.741916015625,-0.020487500354647636,-0.09391249716281891,0.07328750193119049
1772389552541973200,0.76197314453125,-0.031075000762939453,-0.08112499862909317,0.09886249899864197
1772389552562030800,0.78203076171875,-0.031075000762939453,-0.03217500075697899,0.15633749961853027
1772389552582088200,0.802088134765625,-0.00013749999925494194,-0.00976249948143959,0.2171124964952469
1772389552602145500,0.8221455078125,0.027499999850988388,-0.022549999877810478,0.13928750157356262
1772389552622203100,0.842203125,0.025437500327825546,-0.005499999970197678,0.021175000816583633
1772389552642260500,0.862260498046875,0.023237500339746475,0.017875000834465027,0.0008249999955296516
1772389552662317800,0.88231787109375,0.015812499448657036,0.055137500166893005,-0.012924999929964542
1772389552682375400,0.90237548828125,0.027499999850988388,0.0849749967455864,0.0008249999955296516
1772389552702432800,0.922432861328125,0.02433750033378601,0.08291249722242355,-0.014024999924004078
1772389552722490000,0.942489990234375,0.004124999977648258,0.07864999771118164,-0.025712499395012856
1772389552742547700,0.962547607421875,0.011549999937415123,0.08291249722242355,0.0147124994546175
1772389552762605000,0.98260498046875,0.03918749839067459,0.07108750194311142,0.032862499356269836
1772389552782662400,1.002662353515625,0.04028749838471413,0.04235000163316727,0.005087499972432852
1772389552802720000,1.022719970703125,0.015812499448657036,0.043449997901916504,0.009349999949336052
1772389552822777600,1.042777587890625,-0.0034374999813735485,0.04028749838471413,0.030662499368190765
1772389552842834700,1.062834716796875,-0.0012374999932944775,0.0019249999895691872,0.04138749837875366
1772389552862892300,1.082892333984375,0.021175000816583633,-0.025849999859929085,0.04455000162124634
1772389552882950000,1.102949951171875,0.0424874983727932,-0.05348749831318855,0.04455000162124634
1772389552903007200,1.12300732421875,0.02969999983906746,-0.07479999959468842,0.05939999967813492
1772389552923064600,1.143064697265625,0.018975000828504562,-0.06943749636411667,0.0541750006377697
1772389552943122000,1.163121826171875,0.02433750033378601,-0.07163749635219574,0.03492499887943268
1772389552963179500,1.183179443359375,0.027499999850988388,-0.09611249715089798,0.02433750033378601
1772389552983236900,1.20323681640625,0.018975000828504562,-0.10999999940395355,0.012649999931454659
1772389553003294200,1.223294189453125,0.018975000828504562,-0.09184999763965607,0.03492499887943268
1772389553023351800,1.243351806640625,0.021175000816583633,-0.1163249984383583,0.06366249918937683
1772389553043409200,1.2634091796875,0.0008249999955296516,-0.14300000667572021,0.05623750016093254
1772389553063466500,1.283466552734375,-0.023649999871850014,-0.10037499666213989,0.09776250272989273
1772389553083524000,1.303524169921875,-0.005499999970197678,-0.023649999871850014,0.1574375033378601
1772389553103581200,1.323581298828125,-0.010862499475479126,-0.040699999779462814,0.07328750193119049
1772389553123638800,1.343638671875,-0.05238749831914902,-0.03863750025629997,-0.04702499881386757
1772389553143696400,1.3636962890625,-0.06297499686479568,-0.0012374999932944775,-0.01718750037252903
1772389553163753500,1.38375341796875,-0.025712499395012856,0.013612499460577965,0.047712501138448715
1772389553183811000,1.40381103515625,-0.016224998980760574,-0.04496249929070473,0.004124999977648258
1772389553203868700,1.42386865234375,-0.03423750028014183,-0.05458749830722809,-0.021449999883770943
1772389553223926000,1.443926025390625,-0.016224998980760574,-0.03437500074505806,0.0658624991774559
1772389553243983400,1.4639833984375,0.0147124994546175,-0.04496249929070473,0.08071249723434448
1772389553264040700,1.484040771484375,0.0147124994546175,-0.05664999783039093,0.011549999937415123
1772389553284098300,1.504098388671875,-0.010862499475479126,-0.05238749831914902,-0.016224998980760574
1772389553304155400,1.5241552734375,-0.007699999958276749,-0.03863750025629997,0.015812499448657036
1772389553324213000,1.544212890625,0.02213750034570694,-0.0364375002682209,0.04661250114440918
1772389553344270600,1.5642705078125,0.01691249944269657,-0.030112499371170998,0.025437500327825546
1772389553364327700,1.58432763671875,0.0019249999895691872,-0.02681249938905239,0.05843750014901161
1772389553384385300,1.60438525390625,-0.0012374999932944775,-0.031075000762939453,0.07328750193119049
1772389553404442600,1.624442626953125,0.0030249999836087227,-0.02681249938905239,0.06270000338554382
1772389553424500000,1.6445,0.006187499966472387,-0.0034374999813735485,0.05939999967813492
1772389553444557600,1.6645576171875,0.0147124994546175,0.018975000828504562,0.05197500064969063
1772389553464615000,1.684614990234375,0.018975000828504562,0.04028749838471413,0.021175000816583633
1772389553484672300,1.70467236328125,0.009349999949336052,0.05087500065565109,-0.03753750026226044
1772389553504729600,1.7247294921875,0.004124999977648258,0.04235000163316727,-0.06517499685287476
1772389553524787000,1.744786865234375,0.020075000822544098,0.04661250114440918,-0.03849999979138374
1772389553544844300,1.76484423828125,0.030662499368190765,0.027499999850988388,0.005087499972432852
1772389553564902000,1.78490185546875,0.01691249944269657,0.015812499448657036,0.027499999850988388
1772389553584959200,1.804959228515625,0.006187499966472387,-0.014024999924004078,0.04028749838471413
1772389553605016600,1.8250166015625,0.0030249999836087227,-0.06627500057220459,0.03396249935030937
1772389553625074000,1.845073974609375,-0.0034374999813735485,-0.09721250087022781,0.032862499356269836
1772389553645131300,1.86513134765625,0.0030249999836087227,-0.08758749812841415,0.060499999672174454
1772389553665188600,1.885188720703125,0.0147124994546175,-0.07796250283718109,0.09679999947547913
1772389553685246200,1.90524609375,0.0019249999895691872,-0.040699999779462814,0.07122500240802765
1772389553705303600,1.925303466796875,-0.0012374999932944775,-0.0012374999932944775,0.03712499886751175
1772389553725361000,1.94536083984375,0.011549999937415123,-0.008799999952316284,-0.00013749999925494194
1772389553745418200,1.965418212890625,0.013612499460577965,-0.015124999918043613,-0.03959999978542328
1772389553765475600,1.9854755859375,0.012649999931454659,-0.01732499897480011,-0.012924999929964542
1772389553785533000,2.005532958984375,0.018975000828504562,-0.011962499469518661,0.028599999845027924
1772389553805590500,2.025590576171875,0.0317624993622303,-0.0012374999932944775,0.049912501126527786
1772389553825647900,2.04564794921875,0.028599999845027924,0.0008249999955296516,0.03918749839067459
1772389553845705200,2.065705322265625,0.011549999937415123,0.005087499972432852,0.011549999937415123
1772389553865762600,2.085762451171875,0.011549999937415123,-0.016224998980760574,0.007287499960511923
1772389553885819600,2.105819580078125,0.023237500339746475,-0.015124999918043613,-0.002337499987334013
1772389553905877200,2.125877197265625,0.0317624993622303,0.010449999943375587,0.011549999937415123
1772389553925934600,2.1459345703125,0.02213750034570694,0.0008249999955296516,0.006187499966472387
1772389553945992000,2.165991943359375,-0.002337499987334013,-0.020487500354647636,-0.0034374999813735485
1772389553966049300,2.18604931640625,-0.006599999964237213,0.0008249999955296516,0.038087498396635056
1772389553986106600,2.206106689453125,0.011549999937415123,-0.010862499475479126,0.0541750006377697
1772389554006164000,2.2261640625,0.005087499972432852,-0.04496249929070473,0.0008249999955296516
1772389554026221600,2.2462216796875,-0.0012374999932944775,-0.004537499975413084,0.0019249999895691872
1772389554046279000,2.26627880859375,0.023237500339746475,0.04455000162124634,0.021175000816583633
1772389554066336000,2.2863359375,0.018975000828504562,0.01677500084042549,-0.03959999978542328
1772389554086393600,2.3063935546875,0.011549999937415123,0.011549999937415123,-0.06407500058412552
1772389554106450700,2.32645068359375,0.0317624993622303,-0.0002749999985098839,-0.01718750037252903
1772389554126508300,2.34650830078125,0.023237500339746475,-0.014024999924004078,0.023237500339746475
1772389554146565600,2.366565673828125,0.021175000816583633,0.008249999955296516,0.053075000643730164
1772389554166623000,2.386623046875,0.018975000828504562,0.02419999986886978,0.04455000162124634
1772389554186680300,2.406680419921875,-0.005499999970197678,0.01251249946653843,-0.006599999964237213
1772389554206737700,2.426737548828125,-0.01718750037252903,0.011549999937415123,-0.021449999883770943
1772389554226795000,2.446794921875,-0.0034374999813735485,0.006187499966472387,-0.002337499987334013
1772389554246852400,2.466852294921875,-0.011962499469518661,-0.02681249938905239,0.011549999937415123
1772389554266909700,2.48690966796875,-0.014024999924004078,-0.03217500075697899,0.03492499887943268
1772389554286967000,2.506967041015625,-0.00976249948143959,-0.04386249929666519,0.043449997901916504
1772389554307024400,2.5270244140625,-0.016224998980760574,-0.07479999959468842,0.04028749838471413
1772389554327081700,2.547081787109375,-0.012924999929964542,-0.059950001537799835,0.07012499868869781
1772389554347139000,2.56713916015625,-0.012924999929964542,-0.06201250106096268,0.06366249918937683
1772389554367196200,2.587196044921875,-0.0193875003606081,-0.04496249929070473,0.04235000163316727
1772389554387253800,2.607253662109375,-0.0012374999932944775,-0.018287500366568565,0.06159999966621399
1772389554407311000,2.62731103515625,0.007287499960511923,-0.011962499469518661,0.02969999983906746
1772389554427368400,2.647368408203125,0.005087499972432852,-0.011962499469518661,-0.010862499475479126
1772389554447425800,2.66742578125,0.009349999949336052,-0.006599999964237213,-0.008662499487400055
1772389554467483100,2.687483154296875,-0.0012374999932944775,-0.016224998980760574,-0.00013749999925494194
1772389554487540200,2.707540283203125,-0.016224998980760574,-0.016224998980760574,0.02433750033378601
1772389554507597800,2.727597900390625,-0.016224998980760574,-0.002337499987334013,0.06792499870061874
1772389554527655200,2.7476552734375,-0.007699999958276749,-0.022549999877810478,0.06159999966621399
1772389554547712300,2.767712158203125,0.0030249999836087227,-0.03863750025629997,0.05197500064969063
1772389554567769900,2.787769775390625,0.017875000834465027,-0.030112499371170998,0.057337500154972076
1772389554587827200,2.8078271484375,0.013612499460577965,-0.02681249938905239,0.04028749838471413
1772389554607884300,2.82788427734375,0.009349999949336052,-0.018287500366568565,0.027499999850988388
1772389554627942000,2.84794189453125,0.005087499972432852,-0.005499999970197678,0.026399999856948853
1772389554647999200,2.867999267578125,-0.005499999970197678,-0.011962499469518661,0.013612499460577965
1772389554668056300,2.888056396484375,-0.007699999958276749,-0.01732499897480011,0.013612499460577965
1772389554688114000,2.908114013671875,0.0030249999836087227,-0.0193875003606081,0.030662499368190765
1772389554708171300,2.928171142578125,0.011549999937415123,-0.035337500274181366,0.023237500339746475
1772389554728228400,2.948228271484375,-0.006599999964237213,-0.06627500057220459,-0.04922499880194664
1772389554748285700,2.96828564453125,-0.022549999877810478,-0.05348749831318855,-0.08002500236034393
1772389554768343000,2.988343017578125,-0.005499999970197678,-0.022549999877810478,-0.0012374999932944775
1772389554788400400,3.008400390625,0.0147124994546175,-0.014024999924004078,0.06696250289678574
1772389554808457500,3.02845751953125,0.012649999931454659,-0.013062499463558197,0.057337500154972076
1772389554828515000,3.04851513671875,0.0019249999895691872,-0.015124999918043613,0.02213750034570694
1772389554848572200,3.068572265625,-0.004399999976158142,-0.010862499475479126,-0.007699999958276749
1772389554868629500,3.08862939453125,0.0019249999895691872,0.005087499972432852,-0.002337499987334013
1772389554888686800,3.108686767578125,0.010449999943375587,0.011549999937415123,0.01691249944269657
1772389554908744000,3.128743896484375,0.005087499972432852,0.023237500339746475,0.015812499448657036
1772389554928801500,3.148801513671875,0.0030249999836087227,0.026399999856948853,0.006187499966472387
1772389554948858600,3.168858642578125,0.007287499960511923,-0.0034374999813735485,-0.006599999964237213
1772389554968916000,3.188916015625,0.0019249999895691872,-0.05238749831914902,-0.033275000751018524
1772389554988973600,3.2089736328125,-0.008662499487400055,-0.05142499879002571,-0.050324998795986176
1772389555009030700,3.22903076171875,-0.0034374999813735485,-0.048124998807907104,-0.004399999976158142
1772389555029088000,3.249087890625,0.0019249999895691872,-0.06847500056028366,0.023237500339746475
1772389555049145300,3.269145263671875,0.0030249999836087227,-0.05884999781847,0.038087498396635056
1772389555069202400,3.289202392578125,-0.00013749999925494194,-0.06091250106692314,0.038087498396635056
1772389555089260000,3.309260009765625,-0.006599999964237213,-0.06201250106096268,0.023237500339746475
1772389555109317000,3.329317138671875,0.015812499448657036,-0.05238749831914902,0.0317624993622303
1772389555129374500,3.34937451171875,0.012649999931454659,-0.04496249929070473,0.020075000822544098
1772389555149431800,3.369431884765625,-0.0034374999813735485,-0.02474999986588955,0.009349999949336052
1772389555169489000,3.389489013671875,0.0030249999836087227,-0.0002749999985098839,0.04138749837875366
1772389555189546200,3.409546142578125,0.009349999949336052,0.006187499966472387,0.05087500065565109
1772389555209603600,3.429603515625,0.006187499966472387,0.006187499966472387,0.018975000828504562
1772389555229661000,3.449660888671875,0.005087499972432852,0.01677500084042549,-0.012924999929964542
1772389555249718000,3.469718017578125,0.018975000828504562,0.006187499966472387,0.004124999977648258
1772389555269775400,3.489775390625,0.013612499460577965,-0.005499999970197678,0.015812499448657036
1772389555289832700,3.509832763671875,-0.0012374999932944775,-0.005499999970197678,0.02213750034570694
1772389555309889800,3.529889892578125,-0.00976249948143959,-0.025849999859929085,0.053075000643730164
1772389555329947400,3.549947509765625,-0.023649999871850014,-0.03863750025629997,0.049912501126527786
1772389555350004500,3.57000439453125,-0.015124999918043613,-0.048124998807907104,0.03918749839067459
1772389555370061800,3.590061767578125,-0.008662499487400055,-0.082225002348423,0.03492499887943268
1772389555390119000,3.610118896484375,-0.00976249948143959,-0.06737499684095383,0.045649997889995575
1772389555410176300,3.63017626953125,-0.015124999918043613,-0.03217500075697899,0.06270000338554382
1772389555430233600,3.650233642578125,-0.025712499395012856,-0.002337499987334013,0.05087500065565109
1772389555450290700,3.670290771484375,-0.029975000768899918,0.02213750034570694,0.030662499368190765
1772389555470347800,3.69034765625,-0.015124999918043613,0.028462499380111694,-0.004399999976158142
1772389555490405000,3.710405029296875,-0.002337499987334013,0.045512501150369644,-0.04922499880194664
1772389555510462500,3.73046240234375,0.0030249999836087227,0.03918749839067459,-0.03753750026226044
1772389555530519800,3.750519775390625,-0.0034374999813735485,0.04124999791383743,-0.016224998980760574
1772389555550577200,3.7705771484375,-0.007699999958276749,0.057337500154972076,-0.011962499469518661
1772389555570634200,3.79063427734375,-0.002337499987334013,0.0317624993622303,-0.012924999929964542
1772389555590691600,3.810691650390625,-0.005499999970197678,0.011549999937415123,-0.0034374999813735485
1772389555610749000,3.8307490234375,-0.006599999964237213,0.006187499966472387,0.030662499368190765
1772389555630806000,3.850805908203125,-0.010862499475479126,0.0008249999955296516,0.04455000162124634
1772389555650863400,3.87086328125,-0.014024999924004078,0.006187499966472387,0.03712499886751175
1772389555670920400,3.89092041015625,-0.010862499475479126,0.009349999949336052,0.04455000162124634
1772389555690977800,3.910977783203125,-0.008662499487400055,-0.015124999918043613,0.02213750034570694
1772389555711035100,3.93103515625,-0.0193875003606081,-0.010862499475479126,-0.006599999964237213
1772389555731092200,3.95109228515625,-0.016224998980760574,-0.0034374999813735485,0.021175000816583633
1772389555751149800,3.97114990234375,-0.004399999976158142,-0.005499999970197678,0.04138749837875366
1772389555771207000,3.99120703125,-0.00013749999925494194,0.006187499966472387,0.03918749839067459
1772389555791264300,4.01126416015625,0.005087499972432852,-0.006599999964237213,0.03918749839067459
1772389555811321300,4.0313212890625,0.010449999943375587,-0.015124999918043613,0.03918749839067459
1772389555831378700,4.051378662109375,0.008387500420212746,-0.016224998980760574,0.03396249935030937
1772389555851436000,4.07143603515625,0.008387500420212746,-0.018287500366568565,0.04235000163316727
1772389555871493000,4.0914931640625,0.015812499448657036,-0.035337500274181366,0.04661250114440918
1772389555891550500,4.111550537109375,-0.0012374999932944775,-0.040699999779462814,0.017875000834465027
1772389555911607800,4.13160791015625,-0.007699999958276749,-0.05142499879002571,0.0317624993622303
1772389555931665000,4.151664794921875,-0.006599999964237213,-0.04606249928474426,0.025437500327825546
1772389555951722200,4.17172216796875,-0.018287500366568565,-0.031075000762939453,0.017875000834465027
1772389555971779300,4.191779296875,-0.027912499383091927,-0.023649999871850014,0.03396249935030937
1772389555991836700,4.211836669921875,-0.03423750028014183,-0.014024999924004078,0.025437500327825546
1772389556011893800,4.231893798828125,-0.025712499395012856,-0.00976249948143959,0.011549999937415123
1772389556031951000,4.251951171875,-0.020487500354647636,-0.014024999924004078,0.0008249999955296516
1772389556052008200,4.27200830078125,-0.00976249948143959,-0.015124999918043613,-0.00013749999925494194
1772389556072065500,4.2920654296875,-0.01718750037252903,-0.02474999986588955,0.015812499448657036
1772389556092122600,4.31212255859375,-0.012924999929964542,-0.018287500366568565,0.05197500064969063
1772389556112180000,4.332179931640625,-0.007699999958276749,-0.027912499383091927,0.0541750006377697
1772389556132237300,4.3522373046875,-0.010862499475479126,-0.04922499880194664,0.036024998873472214
1772389556152294400,4.37229443359375,-0.00976249948143959,-0.05348749831318855,0.047712501138448715
1772389556172351700,4.392351806640625,-0.005499999970197678,-0.0705375000834465,0.060499999672174454
1772389556192408800,4.412408935546875,-0.0193875003606081,-0.08758749812841415,0.06476250290870667
1772389556212466200,4.432466064453125,-0.031075000762939453,-0.07699999958276749,0.08923749625682831
1772389556232523300,4.452523193359375,-0.018287500366568565,-0.059950001537799835,0.14464999735355377
1772389556252580600,4.47258056640625,-0.022549999877810478,-0.06943749636411667,0.11811249703168869
1772389556272638000,4.492637939453125,-0.042762499302625656,-0.048124998807907104,0.05087500065565109
1772389556292695000,4.512695068359375,-0.04592499881982803,-0.008799999952316284,0.045649997889995575
1772389556312752000,4.532752197265625,-0.0193875003606081,0.023237500339746475,0.03396249935030937
1772389556332809200,4.552809326171875,0.009349999949336052,0.010449999943375587,-0.0012374999932944775
1772389556352866600,4.572866455078125,0.008387500420212746,0.011549999937415123,-0.027912499383091927
1772389556372923600,4.592923583984375,-0.00013749999925494194,0.030662499368190765,-0.021449999883770943
1772389556392981000,4.61298095703125,-0.002337499987334013,0.04028749838471413,-0.006599999964237213
1772389556413038000,4.6330380859375,0.0019249999895691872,0.053075000643730164,0.010449999943375587
1772389556433095400,4.653095458984375,0.005087499972432852,0.045512501150369644,0.0030249999836087227
1772389556453152500,4.673152587890625,-0.00013749999925494194,0.0317624993622303,-0.01718750037252903
1772389556473209900,4.6932099609375,-0.00013749999925494194,0.043449997901916504,-0.010862499475479126
1772389556493267000,4.713266845703125,0.0008249999955296516,0.04661250114440918,-0.021449999883770943
1772389556513324300,4.73332421875,-0.004399999976158142,0.038087498396635056,-0.029975000768899918
1772389556533381400,4.75338134765625,0.013612499460577965,0.02956249937415123,-0.00976249948143959
1772389556553438700,4.773438720703125,0.008387500420212746,0.04881250113248825,-0.004399999976158142
1772389556573495600,4.79349560546875,0.012649999931454659,0.03382499888539314,-0.0012374999932944775
1772389556593553000,4.813552978515625,0.01691249944269657,0.03492499887943268,-0.006599999964237213
1772389556613610200,4.8336103515625,0.0008249999955296516,0.055137500166893005,-0.04386249929666519
1772389556633667300,4.853667236328125,-0.007699999958276749,0.043449997901916504,-0.05664999783039093
1772389556653724400,4.873724365234375,0.005087499972432852,0.05403750017285347,-0.031075000762939453
1772389556673781800,4.89378173828125,0.012649999931454659,0.06366249918937683,-0.022549999877810478
1772389556693838800,4.9138388671875,0.004124999977648258,0.04977500066161156,-0.03423750028014183
1772389556713896000,4.93389599609375,0.004124999977648258,0.045512501150369644,-0.014024999924004078
1772389556733953300,4.953953369140625,0.007287499960511923,0.038087498396635056,-0.002337499987334013
1772389556754010400,4.97401025390625,-0.002337499987334013,0.020075000822544098,-0.0012374999932944775
1772389556774067700,4.994067626953125,-0.00976249948143959,0.013612499460577965,0.008387500420212746
1772389556794124800,5.014124755859375,-0.011962499469518661,0.02213750034570694,0.017875000834465027
1772389556814182000,5.034181884765625,-0.007699999958276749,-0.008799999952316284,0.018975000828504562
1772389556834239000,5.054239013671875,-0.016224998980760574,-0.018287500366568565,-0.0012374999932944775
1772389556854296300,5.07429638671875,-0.015124999918043613,-0.02474999986588955,-0.010862499475479126
1772389556874353400,5.094353515625,-0.011962499469518661,-0.05884999781847,0.0008249999955296516
1772389556894410800,5.11441064453125,-0.0034374999813735485,-0.05142499879002571,0.04455000162124634
1772389556914467800,5.1344677734375,-0.008662499487400055,-0.042899999767541885,0.08291249722242355
1772389556934525000,5.15452490234375,0.0008249999955296516,-0.03863750025629997,0.07975000143051147
1772389556954582000,5.17458203125,-0.006599999964237213,-0.03217500075697899,0.04235000163316727
1772389556974639400,5.194639404296875,-0.0034374999813735485,-0.035337500274181366,0.027499999850988388
1772389556994696400,5.214696533203125,-0.008662499487400055,-0.030112499371170998,0.025437500327825546
1772389557014753800,5.23475390625,-0.0193875003606081,-0.016224998980760574,0.030662499368190765
1772389557034810600,5.254810546875,0.0019249999895691872,-0.005499999970197678,0.0541750006377697
1772389557054868000,5.274867919921875,0.025437500327825546,-0.025849999859929085,0.06476250290870667
1772389557074925000,5.294925048828125,0.01691249944269657,-0.03217500075697899,0.03918749839067459
1772389557094982400,5.314982421875,0.004124999977648258,-0.010862499475479126,0.030662499368190765
1772389557115039500,5.33503955078125,0.0147124994546175,-0.023649999871850014,0.04455000162124634
1772389557135096800,5.355096923828125,0.02213750034570694,-0.007699999958276749,0.03712499886751175
1772389557155154000,5.37515380859375,0.013612499460577965,0.003987499978393316,0.04235000163316727
1772389557175211000,5.3952109375,0.011549999937415123,0.0030249999836087227,0.03396249935030937
1772389557195268000,5.41526806640625,0.013612499460577965,0.007287499960511923,0.011549999937415123
1772389557215325200,5.4353251953125,0.025437500327825546,-0.00976249948143959,0.006187499966472387
1772389557235382500,5.455382568359375,0.030662499368190765,-0.007699999958276749,0.004124999977648258
1772389557255439600,5.475439697265625,0.017875000834465027,0.010449999943375587,0.007287499960511923
1772389557275496700,5.49549658203125,0.008387500420212746,0.023237500339746475,0.03712499886751175
1772389557295554000,5.515553955078125,0.008387500420212746,0.023237500339746475,0.0317624993622303
1772389557315611100,5.535611083984375,0.010449999943375587,0.021037500351667404,-0.002337499987334013
1772389557335668200,5.555668212890625,0.007287499960511923,0.02213750034570694,0.005087499972432852
1772389557355725300,5.575725341796875,0.013612499460577965,0.027499999850988388,0.03396249935030937
1772389557375782400,5.595782470703125,0.013612499460577965,0.026399999856948853,0.0147124994546175
1772389557395839700,5.61583984375,-0.0012374999932944775,0.021037500351667404,-0.015124999918043613
1772389557415896800,5.635896728515625,-0.005499999970197678,0.015812499448657036,-0.00976249948143959
1772389557435954000,5.655953857421875,0.005087499972432852,0.017875000834465027,0.02969999983906746
1772389557456011300,5.67601123046875,0.012649999931454659,0.015812499448657036,0.057337500154972076
1772389557476068400,5.696068359375,0.010449999943375587,0.010449999943375587,0.047712501138448715
1772389557496125400,5.71612548828125,-0.004399999976158142,-0.0002749999985098839,0.025437500327825546
1772389557516182500,5.7361826171875,-0.015124999918043613,-0.013062499463558197,0.0147124994546175
1772389557536239600,5.756239501953125,-0.014024999924004078,0.009349999949336052,0.011549999937415123
1772389557556297000,5.776296875,-0.002337499987334013,0.006187499966472387,0.013612499460577965
1772389557576353800,5.796353759765625,-0.0034374999813735485,-0.0012374999932944775,0.006187499966472387
1772389557596411100,5.8164111328125,-0.00976249948143959,-0.0002749999985098839,0.011549999937415123
1772389557616468200,5.83646826171875,-0.007699999958276749,0.007287499960511923,0.025437500327825546
1772389557636525300,5.856525390625,-0.004399999976158142,0.013612499460577965,0.02969999983906746
1772389557656582700,5.876582763671875,-0.0034374999813735485,0.018975000828504562,0.04881250113248825
1772389557676639700,5.8966396484375,-0.002337499987334013,0.018975000828504562,0.025437500327825546
1772389557696696800,5.91669677734375,-0.0034374999813735485,0.017875000834465027,0.008387500420212746
1772389557716754000,5.93675390625,-0.0034374999813735485,0.01677500084042549,0.032862499356269836
1772389557736811000,5.95681103515625,0.005087499972432852,0.02213750034570694,0.0541750006377697
1772389557756868000,5.9768681640625,0.005087499972432852,0.013612499460577965,0.04661250114440918
1772389557776925200,5.99692529296875,-0.004399999976158142,0.009349999949336052,0.03396249935030937
1772389557796982300,6.016982177734375,-0.0012374999932944775,0.0019249999895691872,0.04235000163316727
1772389557817039600,6.03703955078125,-0.0012374999932944775,-0.010862499475479126,0.0317624993622303
1772389557837096700,6.0570966796875,-0.007699999958276749,-0.00976249948143959,0.03918749839067459
1772389557857153800,6.07715380859375,-0.014024999924004078,-0.004537499975413084,0.055137500166893005
1772389557877211000,6.0972109375,-0.02681249938905239,-0.0012374999932944775,0.036024998873472214
1772389557897268000,6.11726806640625,-0.0193875003606081,-0.005499999970197678,0.04661250114440918
1772389557917325300,6.1373251953125,-0.002337499987334013,-0.025849999859929085,0.06159999966621399
1772389557937382400,6.15738232421875,-0.008662499487400055,-0.020487500354647636,0.04661250114440918
1772389557957439500,6.177439453125,-0.029012499377131462,0.021037500351667404,0.04661250114440918
1772389557977496600,6.19749658203125,-0.0193875003606081,0.04235000163316727,0.11384999752044678
1772389557997553700,6.2175537109375,-0.010862499475479126,0.027499999850988388,0.09253749996423721
1772389558017610800,6.23761083984375,-0.010862499475479126,-0.004537499975413084,0.007287499960511923
1772389558037668000,6.257668212890625,-0.005499999970197678,-0.021587500348687172,-0.04179999977350235
1772389558057725000,6.277724853515625,-0.006599999964237213,-0.013062499463558197,-0.007699999958276749
1772389558077782300,6.2977822265625,-0.015124999918043613,-0.014024999924004078,0.07122500240802765
1772389558097839000,6.317839111328125,-0.00976249948143959,-0.008799999952316284,0.10628750175237656
1772389558117896400,6.337896484375,-0.0034374999813735485,-0.0193875003606081,0.07438749819993973
1772389558137953500,6.35795361328125,-0.006599999964237213,-0.018287500366568565,0.021175000816583633
1772389558158010600,6.3780107421875,-0.002337499987334013,-0.008799999952316284,0.004124999977648258
1772389558178067700,6.398067626953125,0.006187499966472387,0.011549999937415123,0.021175000816583633
1772389558198125000,6.418125,0.006187499966472387,0.02419999986886978,0.032862499356269836
1772389558218182000,6.438181884765625,0.0030249999836087227,0.021037500351667404,0.0147124994546175
1772389558238239000,6.458239013671875,0.005087499972432852,0.017875000834465027,-0.031075000762939453
1772389558258296000,6.478296142578125,0.004124999977648258,0.036024998873472214,-0.03849999979138374
1772389558278353200,6.498353271484375,0.008387500420212746,0.04661250114440918,-0.00013749999925494194
1772389558298410200,6.51841015625,0.010449999943375587,0.04124999791383743,0.026399999856948853
1772389558318467300,6.53846728515625,0.015812499448657036,0.027499999850988388,0.028599999845027924
1772389558338524400,6.5585244140625,0.01691249944269657,0.01677500084042549,0.028599999845027924
1772389558358581500,6.57858154296875,0.013612499460577965,0.018975000828504562,0.06902500241994858
1772389558378638600,6.598638671875,0.012649999931454659,0.028462499380111694,0.09253749996423721
1772389558398695700,6.61869580078125,0.007287499960511923,0.025299999862909317,0.05623750016093254
1772389558418752800,6.638752685546875,0.015812499448657036,-0.0012374999932944775,-0.0012374999932944775
1772389558438809900,6.658809814453125,0.0147124994546175,-0.020487500354647636,-0.01718750037252903
1772389558458867000,6.678866943359375,0.017875000834465027,-0.0193875003606081,0.021175000816583633
1772389558478924000,6.698924072265625,0.012649999931454659,-0.015124999918043613,0.057337500154972076
1772389558498981000,6.718981201171875,-0.002337499987334013,-0.004537499975413084,0.03918749839067459
1772389558519038200,6.7390380859375,-0.005499999970197678,-0.0012374999932944775,0.02969999983906746
1772389558539095300,6.75909521484375,0.0019249999895691872,0.007287499960511923,0.03712499886751175
1772389558559152000,6.779152099609375,0.0030249999836087227,0.009349999949336052,0.021175000816583633
1772389558579209500,6.79920947265625,-0.0012374999932944775,0.015812499448657036,-0.0012374999932944775
1772389558599266600,6.8192666015625,-0.008662499487400055,0.026399999856948853,0.012649999931454659
1772389558619323600,6.83932373046875,-0.008662499487400055,0.03272499889135361,0.028599999845027924
1772389558639380700,6.859380615234375,-0.0012374999932944775,0.027499999850988388,0.018975000828504562
1772389558659437800,6.879437744140625,0.004124999977648258,0.025299999862909317,0.007287499960511923
1772389558679495000,6.899494873046875,0.005087499972432852,0.01677500084042549,0.018975000828504562
1772389558699552000,6.919552001953125,-0.007699999958276749,0.006187499966472387,0.030662499368190765
1772389558719609000,6.939609130859375,-0.016224998980760574,0.0019249999895691872,0.02969999983906746
1772389558739666200,6.959666259765625,-0.012924999929964542,-0.011962499469518661,0.04235000163316727
1772389558759723300,6.97972314453125,-0.007699999958276749,-0.022549999877810478,0.0658624991774559
1772389558779780400,6.9997802734375,-0.007699999958276749,-0.011962499469518661,0.0775500014424324
1772389558799837400,7.01983740234375,-0.00976249948143959,-0.014024999924004078,0.06159999966621399
1772389558819894500,7.03989453125,-0.004399999976158142,-0.020487500354647636,0.023237500339746475
1772389558839951400,7.059951416015625,0.0008249999955296516,-0.04496249929070473,0.018975000828504562
1772389558860008700,7.0800087890625,0.0030249999836087227,-0.05238749831914902,0.057337500154972076
1772389558880065800,7.100065673828125,0.0030249999836087227,-0.05458749830722809,0.0775500014424324
1772389558900122600,7.12012255859375,-0.0012374999932944775,-0.048124998807907104,0.0541750006377697
1772389558920180000,7.140179931640625,-0.0012374999932944775,-0.06091250106692314,0.057337500154972076
1772389558940236800,7.16023681640625,-0.002337499987334013,-0.06847500056028366,0.057337500154972076
1772389558960294000,7.1802939453125,-0.007699999958276749,-0.04606249928474426,0.0541750006377697
1772389558980351000,7.20035107421875,0.0030249999836087227,-0.05458749830722809,0.06792499870061874
1772389559000408000,7.220407958984375,0.005087499972432852,-0.06091250106692314,0.06270000338554382
1772389559020465200,7.240465087890625,0.005087499972432852,-0.05458749830722809,0.06270000338554382
1772389559040522200,7.260522216796875,0.0030249999836087227,-0.0471624992787838,0.049912501126527786
1772389559060579300,7.280579345703125,-0.005499999970197678,-0.03863750025629997,0.018975000828504562
1772389559080636400,7.300636474609375,-0.00976249948143959,-0.03217500075697899,0.020075000822544098
1772389559100693200,7.320693359375,-0.008662499487400055,-0.01732499897480011,0.03492499887943268
1772389559120750600,7.34075048828125,-0.004399999976158142,-0.00976249948143959,0.04028749838471413
1772389559140807400,7.360807373046875,-0.006599999964237213,-0.00976249948143959,0.027499999850988388
1772389559160864500,7.380864501953125,-0.014024999924004078,0.028462499380111694,0.032862499356269836
1772389559180921600,7.400921630859375,-0.0034374999813735485,0.06366249918937683,0.04028749838471413
1772389559200978700,7.420978759765625,0.006187499966472387,0.057337500154972076,0.0008249999955296516
1772389559221035800,7.441035888671875,0.0019249999895691872,0.04455000162124634,-0.05238749831914902
1772389559241092900,7.4610927734375,-0.008662499487400055,0.04028749838471413,-0.04386249929666519
1772389559261150000,7.48114990234375,-0.00976249948143959,0.036024998873472214,0.027499999850988388
1772389559281207000,7.50120703125,0.0030249999836087227,0.01251249946653843,0.06159999966621399
1772389559301264000,7.521263916015625,-0.002337499987334013,-0.0012374999932944775,0.04235000163316727
1772389559321321000,7.541321044921875,-0.016224998980760574,-0.01732499897480011,0.026399999856948853
1772389559341378000,7.5613779296875,-0.01718750037252903,-0.021587500348687172,0.04661250114440918
1772389559361435100,7.58143505859375,-0.002337499987334013,-0.016224998980760574,0.06792499870061874
1772389559381492200,7.6014921875,-0.004399999976158142,-0.020487500354647636,0.06476250290870667
1772389559401549300,7.62154931640625,-0.016224998980760574,-0.025849999859929085,0.04881250113248825
1772389559421606100,7.641606201171875,-0.005499999970197678,-0.025849999859929085,0.0147124994546175
1772389559441663500,7.66166357421875,-0.010862499475479126,-0.03863750025629997,-0.005499999970197678
1772389559461720300,7.68172021484375,-0.012924999929964542,-0.03217500075697899,0.028599999845027924
1772389559481777400,7.70177734375,-0.0012374999932944775,0.0008249999955296516,0.07644999772310257
1772389559501834500,7.72183447265625,-0.0012374999932944775,-0.0012374999932944775,0.057337500154972076
1772389559521891300,7.741891357421875,-0.010862499475479126,-0.0002749999985098839,-0.004399999976158142
1772389559541948700,7.76194873046875,-0.008662499487400055,0.01251249946653843,-0.005499999970197678
1772389559562005500,7.782005615234375,0.004124999977648258,0.02956249937415123,0.0317624993622303
1772389559582062600,7.8020625,0.004124999977648258,0.030662499368190765,0.043449997901916504
1772389559602119700,7.82211962890625,-0.004399999976158142,0.02956249937415123,0.02213750034570694
1772389559622176500,7.842176513671875,-0.00013749999925494194,0.0147124994546175,-0.004399999976158142
1772389559642233600,7.862233642578125,0.009349999949336052,0.013612499460577965,-0.005499999970197678
1772389559662290400,7.88229052734375,0.005087499972432852,0.015812499448657036,0.017875000834465027
1772389559682347800,7.90234765625,-0.005499999970197678,0.0008249999955296516,0.036024998873472214
1772389559702404600,7.922404541015625,-0.011962499469518661,-0.0193875003606081,0.036024998873472214
1772389559722462000,7.9424619140625,-0.016224998980760574,-0.03753750026226044,0.04138749837875366
1772389559742518800,7.962518798828125,-0.00976249948143959,-0.04496249929070473,0.0849749967455864
1772389559762575600,7.98257568359375,-0.010862499475479126,-0.04179999977350235,0.10628750175237656
1772389559782633000,8.002633056640626,-0.007699999958276749,-0.03863750025629997,0.0775500014424324
1772389559802689800,8.022689697265625,-0.007699999958276749,-0.03959999978542328,0.05197500064969063
1772389559822747000,8.042746826171875,-0.00013749999925494194,-0.0364375002682209,0.04455000162124634
1772389559842804000,8.062803955078126,0.008387500420212746,-0.03217500075697899,0.04138749837875366
1772389559862860800,8.08286083984375,0.008387500420212746,-0.013062499463558197,0.028599999845027924
1772389559882918000,8.10291796875,-0.002337499987334013,-0.002337499987334013,0.02433750033378601
1772389559902975000,8.12297509765625,-0.012924999929964542,0.015812499448657036,0.023237500339746475
1772389559923032000,8.143031982421874,-0.005499999970197678,0.02956249937415123,0.04235000163316727
1772389559943089000,8.1630888671875,0.0030249999836087227,0.025299999862909317,0.036024998873472214
1772389559963146200,8.183146240234375,0.0019249999895691872,0.027499999850988388,-0.00013749999925494194
1772389559983203000,8.203203125,-0.004399999976158142,0.02956249937415123,-0.002337499987334013
1772389560003260000,8.223260009765625,-0.006599999964237213,0.026399999856948853,0.005087499972432852
1772389560023317200,8.243317138671875,0.0030249999836087227,0.020075000822544098,0.015812499448657036
1772389560043374000,8.2633740234375,0.0008249999955296516,0.023237500339746475,0.010449999943375587
1772389560063431200,8.28343115234375,-0.006599999964237213,0.02956249937415123,0.02433750033378601
1772389560083488000,8.303488037109375,0.0019249999895691872,0.018975000828504562,0.0317624993622303
1772389560103545000,8.323545166015625,0.007287499960511923,0.01677500084042549,0.032862499356269836
1772389560123602200,8.343602294921874,-0.00013749999925494194,0.026399999856948853,0.02969999983906746
1772389560143659300,8.3636591796875,-0.008662499487400055,0.025299999862909317,0.023237500339746475
1772389560163716000,8.383716064453125,-0.0034374999813735485,0.02213750034570694,0.032862499356269836
1772389560183773200,8.403773193359376,-0.0012374999932944775,0.02419999986886978,0.04138749837875366
1772389560203830300,8.423830322265625,-0.0034374999813735485,0.013612499460577965,0.02969999983906746
1772389560223887400,8.443887451171875,-0.011962499469518661,0.010449999943375587,0.007287499960511923
1772389560243944400,8.4639443359375,0.0019249999895691872,0.008249999955296516,0.025437500327825546
1772389560264001300,8.484001220703124,0.011549999937415123,0.005087499972432852,0.03492499887943268
1772389560284058400,8.504058349609375,-0.0012374999932944775,0.0019249999895691872,0.018975000828504562
1772389560304115200,8.524115234375,-0.011962499469518661,0.0019249999895691872,0.015812499448657036
1772389560324172500,8.544172607421874,-0.00013749999925494194,-0.010862499475479126,0.021175000816583633
1772389560344229400,8.5642294921875,0.008387500420212746,-0.015124999918043613,0.021175000816583633
1772389560364286500,8.584286376953125,0.007287499960511923,-0.021587500348687172,0.017875000834465027
1772389560384343300,8.60434326171875,-0.002337499987334013,-0.023649999871850014,0.04028749838471413
1772389560404400400,8.624400390625,0.008387500420212746,-0.002337499987334013,0.06476250290870667
1772389560424457200,8.644457275390625,0.007287499960511923,0.0008249999955296516,0.043449997901916504
1772389560444514300,8.664514404296876,-0.0012374999932944775,-0.008799999952316284,0.006187499966472387
1772389560464571100,8.684571044921874,-0.006599999964237213,0.006187499966472387,0.011549999937415123
1772389560484628200,8.704628173828125,0.0008249999955296516,0.0147124994546175,0.04235000163316727
1772389560504685300,8.724685302734375,0.013612499460577965,0.027499999850988388,0.03918749839067459
1772389560524742100,8.7447421875,0.01691249944269657,0.028462499380111694,0.009349999949336052
1772389560544799200,8.76479931640625,0.010449999943375587,0.025299999862909317,-0.0193875003606081
1772389560564856000,8.78485595703125,0.006187499966472387,0.03382499888539314,-0.0034374999813735485
1772389560584913200,8.8049130859375,0.005087499972432852,0.03382499888539314,0.011549999937415123
1772389560604970200,8.82497021484375,0.009349999949336052,0.030662499368190765,0.011549999937415123
1772389560625027000,8.845027099609375,0.020075000822544098,0.02956249937415123,0.025437500327825546
1772389560645084200,8.865084228515625,0.010449999943375587,0.04028749838471413,0.0147124994546175
1772389560665141200,8.885141357421874,-0.0012374999932944775,0.04124999791383743,0.013612499460577965
1772389560685198000,8.905197998046875,-0.007699999958276749,0.043449997901916504,0.0147124994546175
1772389560705255200,8.925255126953125,0.0008249999955296516,0.04881250113248825,0.012649999931454659
1772389560725312000,8.94531201171875,0.013612499460577965,0.028462499380111694,0.008387500420212746
1772389560745369000,8.965369140625,0.009349999949336052,0.02213750034570694,0.011549999937415123
1772389560765426200,8.98542626953125,0.0008249999955296516,0.030662499368190765,0.021175000816583633
1772389560785483000,9.00548291015625,0.0030249999836087227,0.009349999949336052,0.02433750033378601
1772389560805540000,9.0255400390625,0.0030249999836087227,0.003987499978393316,0.021175000816583633
1772389560825597000,9.045596923828125,0.008387500420212746,0.008249999955296516,0.025437500327825546
1772389560845654000,9.065654052734375,0.008387500420212746,-0.00976249948143959,0.026399999856948853
1772389560865711000,9.085711181640624,0.007287499960511923,-0.0012374999932944775,0.02969999983906746
1772389560885768000,9.105767822265625,0.008387500420212746,0.011549999937415123,0.038087498396635056
1772389560905824800,9.12582470703125,0.0030249999836087227,0.007287499960511923,0.011549999937415123
1772389560925881900,9.1458818359375,0.006187499966472387,-0.00976249948143959,-0.006599999964237213
1772389560945939000,9.16593896484375,0.010449999943375587,-0.0002749999985098839,0.0147124994546175
1772389560965995800,9.185995849609375,0.005087499972432852,0.01677500084042549,0.03396249935030937
1772389560986052900,9.206052978515626,0.004124999977648258,0.015812499448657036,0.027499999850988388
1772389561006109700,9.226109619140624,0.013612499460577965,0.01251249946653843,0.01691249944269657
1772389561026166800,9.246166748046875,0.004124999977648258,0.015812499448657036,0.006187499966472387
1772389561046224000,9.266223876953125,0.0030249999836087227,0.021037500351667404,0.021175000816583633
1772389561066280700,9.28628076171875,0.0008249999955296516,0.02956249937415123,0.03396249935030937
1772389561086337800,9.306337890625,0.005087499972432852,0.03382499888539314,0.02969999983906746
1772389561106394600,9.32639453125,0.0030249999836087227,0.005087499972432852,-0.015124999918043613
1772389561126451700,9.34645166015625,-0.012924999929964542,-0.0002749999985098839,-0.010862499475479126
1772389561146508500,9.366508544921874,-0.002337499987334013,0.0019249999895691872,0.045649997889995575
1772389561166566000,9.38656591796875,0.004124999977648258,-0.005499999970197678,0.05197500064969063
1772389561186622700,9.406622802734375,0.0008249999955296516,-0.022549999877810478,0.023237500339746475
1772389561206679800,9.4266796875,-0.0034374999813735485,-0.029012499377131462,0.0147124994546175
1772389561226736600,9.446736572265625,-0.006599999964237213,-0.010862499475479126,0.036024998873472214
1772389561246793500,9.46679345703125,-0.006599999964237213,-0.0012374999932944775,0.04028749838471413
1772389561266850600,9.4868505859375,0.0030249999836087227,0.005087499972432852,0.01691249944269657
1772389561286907600,9.50690771484375,0.007287499960511923,0.023237500339746475,0.02213750034570694
1772389561306964500,9.526964599609375,0.008387500420212746,0.01251249946653843,0.0030249999836087227
1772389561327021300,9.547021240234375,0.009349999949336052,0.017875000834465027,-0.0012374999932944775
1772389561347078400,9.567078369140624,0.008387500420212746,0.01677500084042549,0.021175000816583633
1772389561367135200,9.58713525390625,0.007287499960511923,0.011549999937415123,0.01691249944269657
1772389561387192300,9.6071923828125,-0.002337499987334013,0.008249999955296516,0.010449999943375587
1772389561407249400,9.62724951171875,-0.005499999970197678,0.02213750034570694,0.036024998873472214
1772389561427306200,9.64730615234375,-0.004399999976158142,0.025299999862909317,0.04138749837875366
1772389561447363300,9.66736328125,-0.010862499475479126,0.0147124994546175,0.023237500339746475
1772389561467420400,9.68742041015625,-0.008662499487400055,0.021037500351667404,0.01691249944269657
1772389561487477200,9.707477294921874,0.004124999977648258,0.018975000828504562,0.027499999850988388
1772389561507534000,9.7275341796875,-0.0012374999932944775,0.009349999949336052,0.026399999856948853
1772389561527591200,9.747591064453125,-0.004399999976158142,0.011549999937415123,0.04028749838471413
1772389561547648300,9.767648193359374,0.004124999977648258,0.013612499460577965,0.015812499448657036
1772389561567705000,9.787705078125,0.0030249999836087227,0.005087499972432852,-0.00976249948143959
1772389561587762200,9.80776220703125,0.0019249999895691872,-0.013062499463558197,-0.0012374999932944775
1772389561607819000,9.827819091796876,-0.014024999924004078,-0.0002749999985098839,0.030662499368190765
1772389561627876000,9.8478759765625,-0.002337499987334013,0.009349999949336052,0.0658624991774559
1772389561647933000,9.867932861328125,0.006187499966472387,-0.002337499987334013,0.03712499886751175
1772389561667990000,9.887989990234376,-0.005499999970197678,-0.008799999952316284,-0.006599999964237213
1772389561688047000,9.908047119140624,0.0019249999895691872,-0.014024999924004078,0.007287499960511923
1772389561708104000,9.92810400390625,-0.005499999970197678,-0.005499999970197678,0.02433750033378601
1772389561728161000,9.9481611328125,-0.00976249948143959,0.008249999955296516,0.03918749839067459
1772389561748217900,9.9682177734375,0.0008249999955296516,0.006187499966472387,0.02969999983906746
1772389561768274700,9.988274658203125,0.0008249999955296516,0.0019249999895691872,0.005087499972432852
1772389561788331800,10.008331787109375,-0.006599999964237213,0.0008249999955296516,0.01691249944269657
1772389561808388900,10.028388916015626,0.0030249999836087227,0.007287499960511923,0.04028749838471413
1772389561828445400,10.048445556640624,0.009349999949336052,0.007287499960511923,0.04028749838471413
1772389561848502800,10.068502685546875,0.005087499972432852,0.005087499972432852,0.02213750034570694
1772389561868559600,10.0885595703125,-0.005499999970197678,0.005087499972432852,0.010449999943375587
1772389561888616400,10.108616455078124,0.0019249999895691872,-0.008799999952316284,0.012649999931454659
1772389561908673500,10.128673583984375,0.006187499966472387,-0.025849999859929085,0.027499999850988388
1772389561928730400,10.14873046875,0.0030249999836087227,-0.029012499377131462,0.045649997889995575
1772389561948787500,10.168787353515626,0.0008249999955296516,-0.03437500074505806,0.04881250113248825
1772389561968844300,10.18884423828125,-0.005499999970197678,-0.027912499383091927,0.03918749839067459
1772389561988901000,10.208901123046875,-0.014024999924004078,-0.029012499377131462,0.03918749839067459
1772389562008958200,10.228958251953125,-0.005499999970197678,-0.022549999877810478,0.032862499356269836
1772389562029015300,10.249015380859374,-0.002337499987334013,-0.014024999924004078,0.04455000162124634
1772389562049072000,10.269072021484375,-0.016224998980760574,-0.014024999924004078,0.09253749996423721
1772389562069129200,10.289129150390625,-0.008662499487400055,-0.04386249929666519,0.0849749967455864
1772389562089186000,10.30918603515625,0.009349999949336052,-0.025849999859929085,0.04235000163316727
1772389562109243100,10.3292431640625,-0.002337499987334013,-0.0034374999813735485,0.057337500154972076
1772389562129300000,10.349300048828125,-0.02681249938905239,0.023237500339746475,-0.02681249938905239
1772389562149357000,10.369357177734376,-0.021449999883770943,0.027499999850988388,-0.07259999960660934
1772389562169414000,10.389413818359374,-0.01718750037252903,0.02956249937415123,-0.008662499487400055
